#   1 NUMBER                 Running object number                                     
#   2 X_IMAGE                Object position along x                                    [pixel]
#   3 Y_IMAGE                Object position along y                                    [pixel]
#   4 ALPHA_J2000            Right ascension of barycenter (J2000)                      [deg]
#   5 DELTA_J2000            Declination of barycenter (J2000)                          [deg]
#   6 FLUX_APER              Flux vector within fixed circular aperture(s)              [count]
#   9 FLUXERR_APER           RMS error vector for aperture flux(es)                     [count]
#  12 FLUX_RADIUS            Fraction-of-light radii                                    [pixel]
#  13 FWHM_IMAGE             FWHM assuming a gaussian core                              [pixel]
#  14 BACKGROUND             Background at centroid position                            [count]
#  15 THRESHOLD              Detection threshold above background                       [count]
#  16 FLUX_MAX               Peak flux above background                                 [count]
#  17 ISOAREA_IMAGE          Isophotal area above Analysis threshold                    [pixel**2]
#  18 A_IMAGE                Profile RMS along major axis                               [pixel]
#  19 B_IMAGE                Profile RMS along minor axis                               [pixel]
#  20 THETA_IMAGE            Position angle (CCW/x)                                     [deg]
#  21 FLAGS                  Extraction flags                                          
         1      1.7424     45.0976 307.9349791  +6.6326561     126925.6     181708.9     204140.9      84.7073     151.3734     280.8957      1.567     3.78     1183.714     63.96694     33814.11       169     2.638     1.326 -86.17  24
         2     60.8119     23.1797 307.9111454  +6.6436882     1539.101     3486.115     3356.961     90.53526     181.1428     362.7912      2.285     7.16     1178.546     63.96694     211.1416        28     1.907     1.214 -51.93   0
         3      2.9883     18.7684 307.9353568  +6.6435732     1207.783     2829.311     2953.671     90.39051     168.8727     302.4006      2.328     8.89      1184.04     63.96694     163.4658        24     1.828     1.419 -66.02  24
         4    761.4598     13.1255 307.6199161  +6.6712201     1010.886     2243.578     2581.388     91.25552     181.5039     362.8634      2.203     7.21     1147.048     63.96694     124.6573        14     1.360     1.086  38.13   0
         5     88.2432      7.1908 307.9002744  +6.6512110     4744.958     11935.14      14244.5     90.39051     181.2873     355.5365      2.539     6.00     1175.991     63.96694     496.2457        60     1.970     1.737 -52.75  16
         6    417.7826      6.7991 307.7631541  +6.6623870     1176.103     2743.295     2958.885     90.53526     180.9982     352.1692      2.387     7.80     1162.623     63.96694     130.0822        20     1.494     1.316 -60.66  16
         7    630.0245      1.5103 307.6750075  +6.6716454     3722.915     5683.771     6240.371     81.71761     146.9848      276.195      1.615     5.22     1151.869     63.96694     711.4633        21     1.698     0.670  -3.61  24
         8    254.6103      1.9778 307.8312208  +6.6589295     512.0341     858.3319     396.1505      86.8444     154.6254     284.8304      1.573     4.59     1175.124     63.96694     76.64478         5     1.032     0.580  16.74  24
         9    578.3129    990.0369 307.6630971  +6.2615808     122486.8     228703.8       254455     90.96809     181.3595     362.8995      2.046     4.26     1204.463     63.96694     13761.15       117     1.953     1.513 -44.69   3
        10    570.9713   1021.9681 307.6650709  +6.2481461     2370.949     4262.236     4803.893     90.39052     169.5691     303.0494      1.876     4.33     1206.039     63.96694     301.8783        25     1.376     1.162 -34.22  24
        11    580.0384    982.8967 307.6626209  +6.2645877     56395.82     108395.4     120567.2     90.96809     181.3595     363.0799      2.071     4.49     1204.106     63.96694     5967.363        86     1.892     1.464 -35.62   3
        12    212.6371    992.9818 307.8150526  +6.2481716     2715.672     5351.503     5683.828     90.53526     181.2873     362.6469      2.098     4.85     1205.162     63.96694     289.3545        31     1.500     1.333 -38.55   0
        13    960.7501    988.9450 307.5041013  +6.2747365     723.0915      1152.98     1496.553     90.96809     181.5039     362.9356      2.408     5.53     1199.438     63.96694     103.9567         8     1.354     0.636 -54.17   0
        14    789.2254    986.6908 307.5755049  +6.2699755     5730.166     9654.307     11003.69     91.11192     181.2151     362.7191      1.836     3.96     1201.914     63.96694     736.2163        39     1.728     1.182 -49.96   0
        15    886.9904    983.9075 307.5349437  +6.2743709     1340.166     2387.444     2377.606     90.53526     181.0705     362.6469      1.823     5.55     1200.654     63.96694     171.0497        19     1.418     1.174 -61.19   0
        16    209.9837    982.2906 307.8165185  +6.2524992     1647.393     3152.989     3627.631     90.67976     181.2873     362.7912      2.021     4.74     1204.735     63.96694     211.0654        20     1.425     1.055 -45.41   0
        17    712.9440    979.3796 307.6074726  +6.2704611      6027.21     10624.95     12067.81     90.39051     181.5039      362.683      1.918     4.14     1203.251     63.96694     694.3827        39     1.675     1.178 -47.39   0
        18    428.0916    979.6127 307.7259159  +6.2608832     2840.293      5768.93      6791.54     90.67976     181.2151     362.6469      2.202     4.91     1204.834     63.96694     296.8527        36     1.628     1.366 -33.03   0
        19    569.1873    978.4752 307.6672826  +6.2660530     3153.601     6252.371     7473.371     90.39052     181.1428      362.683      2.164     4.71     1203.995     63.96694     363.3676        37     1.663     1.365 -65.60   0
        20    745.2256    974.4692 307.5942142  +6.2735624     1144.785     1769.886     2321.706     90.53526     181.3595     362.8273      1.868     5.00     1202.585     63.96694     176.3326        14     1.207     0.932 -34.28   0
        21    952.4899    968.7654 307.5082157  +6.2827987     6348.419     10233.63     10149.47     91.11192     181.4317     362.8995      1.751     3.61      1198.97     63.96694      797.708        37     1.568     1.099 -48.49   0
        22    237.0941    969.0731 307.8056938  +6.2588645     897.1307     1736.575     1695.073     90.82404     181.6481     362.8995      1.960     6.84     1204.709     63.96694     126.8309        11     1.227     1.109  70.57   0
        23    711.6390    967.2311 307.6084252  +6.2754361     2166.479      4436.92     5553.917     90.53526     181.2151     362.7191      2.431     8.84     1202.356     63.96694     297.4218        30     2.158     1.092 -29.05   0
        24    728.5450    965.9475 307.6014382  +6.2765283     913.1956     1532.089     1420.569     91.25552     181.5039     362.8634      1.829     5.70     1202.249     63.96694     118.2002        10     1.218     0.752  -9.82   0
        25    358.9243    964.4702 307.7551901  +6.2648319     1273.658     2522.838     2135.757     91.25552     181.6481     362.8995      1.993     6.94     1205.844     63.96694     144.6777        18     1.346     1.087 -78.57   0
        26    541.4315    954.6710 307.6796291  +6.2749620     2970.353     5946.016     6982.382     90.82404     181.5039     362.8634      2.168     4.65     1203.312     63.96694     295.3585        33     1.535     1.319 -46.25   0
        27    291.6542    953.4495 307.7835361  +6.2671398     10607.76     21190.53     24108.07     90.96809     181.5039     362.9356      2.159     4.76     1205.059     63.96694     1010.433        61     2.010     1.433 -41.53   0
        28    745.8160    953.9202 307.5946619  +6.2820706     6485.811     11565.83     12556.75     90.53526     181.2151      362.683      1.941     4.02     1201.086     63.96694     751.1456        44     1.700     1.266 -45.66   0
        29    511.8857    955.5959 307.6918841  +6.2735960     873.3763     1557.233     1292.879     90.39051     181.0705     362.5385      1.899     4.35     1203.678     63.96694     113.8431        10     1.075     0.734 -14.52   0
        30    806.9297    953.4265 307.5692643  +6.2843046     877.2834     1555.922     1747.419     90.53526     181.3595     362.8273      1.943     4.72      1199.67     63.96694     125.2073         9     1.135     0.724 -50.44   0
        31    415.9305    953.9530 307.7318413  +6.2710773     683.8203     1225.973     1328.328     90.96809     181.4317     362.8995      1.409     3.60     1204.236     63.96694     112.9438         5     0.981     0.381  59.49   0
        32    907.0402    947.3425 307.5278377  +6.2901408     7908.542     12847.79     12917.01     90.96809      181.576     362.9356      1.731     3.67     1199.208     63.96694     1045.655        38     1.585     1.123 -41.21   0
        33    538.6114    946.8015 307.6810678  +6.2781189      6018.29     12178.57     13560.58     90.53526     181.1428      362.683      2.142     4.74     1202.969     63.96694     618.8936        46     1.754     1.408 -44.57   0
        34    880.7404    943.5085 307.5389039  +6.2908520     10983.76     18847.37     20280.66     90.82404     181.4317     363.0438      1.857     3.87     1199.494     63.96694     1299.932        51     1.750     1.262 -43.38   0
        35   1002.5203    942.9178 307.4882801  +6.2951348     4800.679     7885.026     8291.621     91.11192     181.7922     363.0438      1.735     3.90     1196.554     63.96694        635.7        28     1.484     1.011 -44.22   0
        36    593.4196    944.0423 307.6583693  +6.2810832     1144.755     1943.155     1327.329     90.39051     181.2873     362.7191      1.856     5.79     1202.025     63.96694     153.6459        13     1.239     0.814 -24.74   0
        37    525.3245    942.4556 307.6867400  +6.2794717      3104.59     6087.117      7454.88     90.82404     181.4317     362.8273      2.219     4.84     1202.841     63.96694     333.4626        33     1.577     1.309 -37.13   0
        38    634.6372    941.8605 307.6413028  +6.2833559     1071.945     1739.932     1476.536     90.96809      181.576     362.8634      1.775     6.81     1201.247     63.96694     148.3549        14     1.206     1.077 -29.46   0
        39    789.9902    940.4374 307.5767467  +6.2891077     544.6964     888.8544     784.9769     90.24554     181.2873     362.5385      1.599     4.68     1199.158     63.96694     112.9786         5     1.111     0.560  78.97   0
        40    478.0826    938.8237 307.7065080  +6.2793983     1513.467     3243.889     2272.529     90.82404     181.2151     362.8273      2.078     7.27     1203.014     63.96694     162.0005        25     1.599     1.203 -10.73   0
        41    912.4294    931.0864 307.5261441  +6.2970349     39280.21     65530.92     70768.66     91.11192     181.1428     362.7552      1.826     3.86     1198.629     63.96694     4982.205        78     1.787     1.320 -46.42   0
        42    220.1817    929.7540 307.8140597  +6.2745413     1151.631     2453.105     3123.579     90.39051     181.3595     362.6107      2.383     6.70     1203.172     63.96694     181.5714        18     1.459     1.126  53.59   0
        43    618.5249    928.0431 307.6484698  +6.2885276      700.608     1368.046     887.7228     90.82404      181.576     362.9356      1.865     4.63      1200.77     63.96694     121.7202         5     0.873     0.698  47.25   0
        44    810.4889    924.6879 307.5687532  +6.2962945     2097.556     3812.019     4025.431     90.67976     182.0801     363.0077      1.955     5.14     1198.249     63.96694     270.2933        22     1.604     0.941 -57.11   0
        45    758.5874    922.9152 307.5903969  +6.2953028      5433.46     9941.307     11309.37     90.53526     181.3595     362.7191      2.010     4.19     1198.741     63.96694     655.1204        41     1.753     1.235 -51.40   0
        46    545.0755    922.2800 307.6792087  +6.2884636     702.1844     1222.003     1292.228     91.25552     181.7922     363.0438      1.792     6.32     1201.982     63.96694      109.298         7     1.313     0.855   5.89   0
        47    228.1164    921.4856 307.8110406  +6.2782218     975.7147     1953.641     2057.233     90.67976     181.7202     363.0077      2.003     7.43     1203.169     63.96694     127.0214        13     1.488     1.040  39.74   0
        48     53.3276    920.0358 307.8837716  +6.2729777      2122.88     3958.538     3547.305     90.82404     181.5039     362.8995      1.926     4.42     1200.735     63.96694       261.71        27     1.365     1.283 -38.85   0
        49    946.7152    917.8278 307.5123322  +6.3036492     6272.934      10141.5     10846.94     91.11192     181.2151     362.7552      1.756     3.78     1196.893     63.96694     795.0265        38     1.670     1.086 -47.87   0
        50    253.6794    906.1777 307.8009296  +6.2853988     2847.175     6058.781     6541.162     90.53526     181.1428     362.8634      2.212     5.84     1203.541     63.96694     294.3605        37     1.783     1.401 -39.06   0
        51    641.3882    905.4141 307.6397263  +6.2986359     3456.139     6981.542     7421.248     90.82404     181.1428     362.8273      2.081     5.03     1199.682     63.96694     356.2427        36     1.668     1.326 -56.41   0
        52    780.0203    906.0602 307.5820523  +6.3029774     1213.584      2037.06     2279.598     90.53526     181.3595     362.7912      1.870     6.02     1197.553     63.96694     159.9402        15     1.180     1.068   5.46   0
        53     23.0263    903.0285 307.8969494  +6.2789889     1506.225     2824.504     2393.943     90.39052     181.2873     362.7552      1.953     7.00     1199.858     63.96694      194.298        18     1.387     1.106 -48.48   0
        54    463.6918    903.8401 307.7136760  +6.2933699     944.5246     1602.689     1840.501     91.11192     181.4317     362.9716      1.871     6.08     1202.129     63.96694     142.6987        10     1.048     0.992   4.24   0
        55    872.7996    902.2523 307.5435964  +6.3076311     756.8455     1209.686     768.1252     90.10033     180.9982      362.394      1.727     3.48     1196.739     63.96694     133.7145         5     0.760     0.663  25.05   0
        56    920.6335    909.3821 307.5234633  +6.3062729     1901.167     3039.036     3148.243     90.53526     181.2873     362.7191      1.749     4.11     1196.817     63.96694      273.321        19     1.343     0.919 -41.25   0
        57    565.7794    897.8873 307.6714234  +6.2992291     1137.502     2161.917     2568.914     90.82404     181.2151     362.7552      2.041     6.61     1201.104     63.96694     160.6223        13     1.312     0.936 -48.45   0
        58    997.5358    897.1551 307.4918931  +6.3138739     839.9747     1115.202     1002.629     90.96809     181.4317     362.8995      1.700     6.35     1193.808     63.96694     109.5594         9     1.477     0.766 -56.57   0
        59    605.4895    894.5681 307.6550217  +6.3019219     917.6876     1920.371     1842.344     91.11192     181.2873     362.8995      2.138     5.64     1200.341     63.96694     148.8505        10     1.209     0.742 -84.21   0
        60    285.1754    892.8825 307.7882830  +6.2919423     1002.717     2056.601     2204.138     90.82404     181.2151     362.8273      2.040     7.18     1203.977     63.96694     132.6987        15     1.310     1.103   1.20   0
        61    889.5284    884.6780 307.5372315  +6.3154460     6156.898     10165.49     10946.69     91.25552     181.7922     362.8995      1.820     3.93     1195.101     63.96694     734.8601        37     1.706     1.109 -45.60   0
        62    425.6170    881.9264 307.7302512  +6.3011530     1475.688     3049.656     2570.025     90.39051     181.2873     362.7552      2.029     7.85     1202.508     63.96694     171.2683        23     1.556     1.166 -31.18   0
        63    327.1217    880.5503 307.7712576  +6.2984364      6366.51     13649.71     14838.45     90.96809      181.576     362.8634      2.240     4.98     1203.495     63.96694     650.0468        52     1.863     1.480 -47.02   0
        64    247.2955    879.4881 307.8044893  +6.2962104     4698.773     9867.545     10282.34     90.96809     181.9362     362.9716      2.145     5.01     1202.954     63.96694     459.9757        43     1.731     1.423 -49.17   0
        65    574.7733    874.4817 307.6684743  +6.3091970     776.7943     1448.336     1059.203     90.82404     181.2873     362.8995      1.874     6.03     1200.436     63.96694     94.30994         9     1.150     0.889 -45.95   0
        66    905.2045    869.9008 307.5312099  +6.3220705     861.9342     1805.484     2250.049     90.67976     181.1428     362.5024      1.994     7.51     1193.741     63.96694     102.3568        12     1.318     1.199  71.21   0
        67    972.7579    865.4193 307.5032662  +6.3261624     839.5626     1109.111     1785.794     90.39052     181.2873      362.683      1.574     4.42     1192.109     63.96694     141.5154         7     1.038     0.536 -44.99   0
        68    741.6710    863.1329 307.5994489  +6.3194360     1325.572     2372.914     2645.749     90.96809     181.6481     362.8995      2.152     5.29     1196.024     63.96694     160.8772        16     1.318     0.983 -77.04   0
        69    526.5333    858.8683 307.6890637  +6.3140405     797.4741     1496.189     1137.256     90.96809      181.576     362.9356      2.019     5.21     1200.483     63.96694      124.209         7     1.421     0.541 -69.98   0
        70    973.0109    858.3643 307.5033985  +6.3290851     1151.658     1804.072     2070.664     90.39051     181.2873     362.6469      1.778     3.72     1191.903     63.96694      181.743        11     1.183     0.761 -68.05   0
        71    660.1684    856.3002 307.6335749  +6.3195489     1677.685     3362.963     3449.012     90.96809     181.3595     363.0799      1.994     6.15     1197.423     63.96694     184.1003        25     1.483     1.368 -22.51   0
        72     57.0824    852.6545 307.8844993  +6.3009364     2026.661      4147.38     4819.739     90.96809     181.5039     362.9716      2.231     6.06     1199.526     63.96694     237.9496        29     1.666     1.302 -65.29   0
        73     74.5291    852.1699 307.8772606  +6.3017203     1385.613     2817.327     3262.218     90.82404     181.5039     362.8634      2.097     6.95     1199.896     63.96694     162.5831        23     1.584     1.150 -50.47   0
        74    200.6063    851.4410 307.8248563  +6.3062364     1229.921     2999.754      2459.35     90.24554     181.1428     362.5746      2.357     8.38     1201.801     63.96694     154.6161        22     1.543     1.272  62.09   0
        75    654.8934    845.4248 307.6361360  +6.3238659     4768.152      9612.31     10947.38     91.11192     181.2151     362.7191      2.199     5.00     1196.907     63.96694      508.798        41     1.759     1.342 -46.51   0
        76    792.2637    846.4644 307.5789706  +6.3280026     688.8724     1247.228     1875.907     90.96809     181.5039     362.9356      1.826     5.49      1193.88     63.96694     84.97229         7     1.186     0.717 -36.73   0
        77    337.9138    838.9783 307.7681781  +6.3159690     9815.973     22526.18     26448.85     90.96809     181.2151     362.7552      2.385     5.40     1202.143     63.96694     916.8381        67     2.042     1.688 -61.98   0
        78     15.6135    844.3472 307.9020261  +6.3029801       922.89     1503.051     1842.141     90.24554     181.4317     362.6107      1.902     5.91     1198.695     63.96694     127.6378         9     1.281     0.768 -80.05   0
        79     28.8919    842.7928 307.8965572  +6.3040666     707.5741     1332.868     1384.428     90.53526     181.1428      362.683      2.036     5.58     1198.928     63.96694     110.5531         8     1.182     0.742 -84.97   0
        80    892.6299    841.3102 307.5374028  +6.3334638      2350.23     4186.276     4958.602     91.11192     181.2151     362.8634      1.950     4.42     1192.114     63.96694     338.4862        22     1.437     1.024 -35.08   0
        81     72.8183    840.1126 307.8783816  +6.3066435     833.0891     1847.689     1920.381     90.67976     181.2151     362.7191      2.074     7.13     1199.643     63.96694     108.5951        13     1.321     1.077 -66.03   0
        82    209.2912    838.2740 307.8216913  +6.3119655     691.9671     1168.838     683.9644     90.96809     181.7202     362.9356      1.926     5.13     1201.718     63.96694     98.92944         7     1.081     0.689   0.59   0
        83    101.5465    829.7939 307.8667854  +6.3118668     967.4216     2263.193     2528.045     90.39052     181.2151     362.5746      2.517     7.53     1199.868     63.96694     120.8214        12     1.444     1.099 -63.62   0
        84     84.8460    823.1518 307.8739559  +6.3140519     1583.354     3609.252     4114.352     90.96809     181.3595     362.9356      2.354     7.10     1199.454     63.96694      196.496        27     1.764     1.233 -43.93   0
        85    882.6774    823.1921 307.5421526  +6.3406180     1678.302     2717.895     2878.665     90.53526     180.9258      362.683      1.828     4.35     1191.187     63.96694     197.2805        17     1.303     0.928 -25.99   0
        86    853.5861    822.9611 307.5542594  +6.3397479     1485.261     2885.286     2883.657     90.53526     181.2873     362.5746      1.992     5.23     1191.331     63.96694     220.3131        20     1.590     0.924 -43.59   0
        87    817.0352    822.1921 307.5694868  +6.3388519     2218.733     4079.387     4644.786     90.39051     181.2873     362.6469      2.002     4.42     1191.671     63.96694     295.5073        26     1.402     1.198 -22.49   0
        88    552.9167    813.8934 307.6796121  +6.3334975     207966.4     459021.9     518280.6     90.67976     181.9362     363.0438      2.279     5.05     1197.793     63.96694     21076.28       178     2.131     1.730 -46.89   0
        89    397.3158    816.6682 307.7442300  +6.3271663     4634.472     10602.45     12177.21     91.25552     181.7922     362.9356      2.392     5.54     1199.567     63.96694     437.9015        51     1.917     1.533 -50.36   0
        90    340.4435    815.0105 307.7679380  +6.3259540      7498.51     17046.89     19831.48     90.39051     181.2873     362.5746      2.390     5.35     1201.346     63.96694     704.0448        60     1.968     1.569 -52.24   0
        91    640.9837    816.8094 307.6428874  +6.3352239     697.2303     1269.357     1205.101     90.67976     181.2151     362.7912      1.833     4.10     1195.414     63.96694     104.1521         5     1.012     0.529  32.56   0
        92    658.5760    811.0507 307.6357654  +6.3381879     2264.113     5059.237     5831.131     90.53526     181.5039     362.7912      2.362     5.62     1194.812     63.96694     239.6898        37     1.707     1.465 -30.87   0
        93    891.3035    809.7722 307.5390172  +6.3464480     4202.156     7591.718     8179.174     91.11192     181.2151     362.8273      1.950     4.12     1190.497     63.96694     479.7664        37     1.610     1.267 -37.25   0
        94    633.9172    805.1089 307.6462216  +6.3398221     2256.387     4696.863     5419.143     90.67976     181.7922     362.9716      2.152     5.31     1194.689     63.96694     244.0166        34     1.766     1.239 -50.51   0
        95   1023.4404    804.3371 307.4842433  +6.3530751     2601.641     3200.023     2477.358     82.35604     147.9615     277.3304      1.246     3.23     1190.462     63.96694     572.6973        14     1.263     0.642 -78.83  24
        96    821.7776    804.3462 307.5681162  +6.3463814     1151.353     2218.637     2946.107     90.39052     181.5039      362.683      2.353     6.21     1190.361     63.96694     145.1492        19     1.657     0.941 -21.80   0
        97    625.9581    800.6495 307.6496824  +6.3413994     1439.864     3488.705     4349.563     91.11192     181.5039     362.8634      2.483     8.06     1194.475     63.96694     165.0533        30     1.935     1.216 -62.68   0
        98    910.1248    797.6641 307.5315972  +6.3520742     2679.243      4830.34     4915.879     91.11192     181.5039     362.8634      1.876     4.36     1189.831     63.96694     323.9502        29     1.501     1.201 -56.79   0
        99    368.4152    794.1704 307.7570112  +6.3354958     1467.885     3474.931     4629.607     90.53526     181.2151     362.8273      2.909     9.50      1199.53     63.96694     157.4343        28     1.920     1.310 -30.42   0
       100    504.4826    783.3542 307.7007883  +6.3444996     1994.014     4128.042     5085.747     90.96809     181.5039     362.8995      2.358     6.56      1196.64     63.96694     199.6917        28     1.634     1.343 -66.86   0
       101    239.8171    784.0601 307.8108354  +6.3353795      665.268     1864.737     4715.914     90.53526     181.4317     362.6107      3.322     4.28     1200.895     63.96694     110.6632         6     1.350     0.387  89.62   1
       102    848.8838    782.2525 307.5575875  +6.3564082     959.3259     1472.902      1592.85     90.96809     181.5039     363.0077      1.650     5.58     1189.372     63.96694     116.7032        12     1.205     0.872 -28.27   0
       103    552.0725    779.7508 307.6811176  +6.3475731     3432.629     7968.321     10722.04     90.96809      181.576     362.9356      2.705     8.59      1195.36     63.96694     366.3306        60     2.841     1.583  -9.89   0
       104    111.2745    779.4291 307.8644502  +6.3329963     661.1511     1596.485     1503.822     90.82404     181.5039     362.8634      2.580     5.01      1198.81     63.96694     99.84485         6     1.199     0.593 -23.63   0
       105    886.8990    777.8278 307.5419255  +6.3594978     1040.959     2039.154      1828.29     90.96809     181.2151     362.8634      2.093     5.38     1188.793     63.96694     169.9299        14     1.314     1.009   5.66   0
       106    468.1412    777.5137 307.7161001  +6.3457013     752.3525     1250.262     1079.189     90.96809     181.5039     363.0438      1.661     5.40     1197.019     63.96694     98.37378         8     1.369     0.602 -82.42   0
       107    522.0217    773.5597 307.6938251  +6.3491298     11753.02     26694.45     29964.38     90.53526     181.2873      362.683      2.297     5.30     1195.659     63.96694     1097.441        66     1.965     1.597 -47.14   0
       108    935.4319    771.5734 307.5219505  +6.3636917     3073.036     5509.673      5694.68     90.39052     181.2151      362.683      1.907     4.32     1187.864     63.96694     355.0679        29     1.524     1.132 -39.95   0
       109    314.7051    762.5177 307.7804210  +6.3467786     1900.282     4578.299     5519.162     90.67976     181.8642     363.0438      2.525     7.14     1199.725     63.96694     195.8096        36     1.841     1.508 -52.38   0
       110    780.0674    758.0441 307.5870257  +6.3641230     37880.87     75961.48     84770.23     90.96809     181.4317     362.9356      2.151     4.60     1189.656     63.96694     4205.621        88     1.981     1.517 -42.56   0
       111     14.9704    760.7154 307.9051361  +6.3375041     1395.916     3115.954     3454.681     90.96809     181.2873     362.7552      2.217     6.95     1197.349     63.96694     180.6273        23     1.572     1.251 -33.96   0
       112    237.4087    756.1255 307.8127845  +6.3468382     3030.448     7908.473     11104.18     90.53526     180.9982     362.7191      3.242     6.40     1199.689     63.96694     301.9447        49     1.961     1.632 -60.21   1
       113    905.2913    753.1516 307.5351074  +6.3703017     6764.935     12612.26     13813.22     90.96809     181.3595     363.0799      1.986     4.31     1187.031     63.96694      771.394        42     1.746     1.281 -44.87   2
       114    902.1920    744.6125 307.5366842  +6.3737262     5039.918     9877.541     10935.94     90.53526     181.2873     362.8273      2.052     4.41     1186.613     63.96694     610.0365        44     1.777     1.383 -52.44   2
       115    708.3494    752.6508 307.6170364  +6.3639674      14260.1     29956.69     33818.24     90.96809     181.3595     362.8273      2.223     4.94     1190.792     63.96694     1474.926        64     2.010     1.451 -47.47   3
       116    702.0933    749.1726 307.6197559  +6.3651962     57368.32     121168.5     136280.2     91.11192     181.2151     362.7552      2.240     4.93     1190.778     63.96694     6080.688        99     2.042     1.598 -44.56   3
       117    347.0366    750.2130 307.7673915  +6.3529404     11348.19     27775.78     31751.31     90.39051     181.2873     362.5746      2.419     5.61     1198.169     63.96694     1050.419        74     2.046     1.701 -41.97   0
       118    408.9343    748.0521 307.7417215  +6.3558977     12300.74     29764.23     34124.04     90.96809     181.4317     362.8634      2.408     5.68     1197.181     63.96694     1130.106        74     2.044     1.682 -52.10   0
       119    236.9572    734.6855 307.8136995  +6.3556794     777044.2      2449601      2970700     90.96809     181.3595     362.8995      2.797     5.39     1198.744     63.96694     63334.27       542     2.573     2.230 -55.92   4
       120    873.3406    746.9025 307.5486070  +6.3718228      496.946      807.023     1598.918     90.67976     181.5039     363.0438      2.462     4.80     1187.501     63.96694     87.70569         5     1.226     0.533  39.57   0
       121    642.8254    743.6464 307.6445931  +6.3655079      3863.12      8414.75     9685.165     90.53526      181.576     362.7552      2.292     5.17     1191.627     63.96694     389.9039        44     1.906     1.366 -45.34   0
       122    431.6481    741.9980 307.7324797  +6.3591558     1104.622     2243.742     2038.211     90.24554     181.0705     362.4301      2.009     7.98     1196.662     63.96694     132.8707        19     1.386     1.283  64.96   0
       123    677.8801    733.9025 307.6303423  +6.3706990     1290.532     3028.286     2948.662     90.82404     181.8642     362.9716      2.254     8.76      1190.64     63.96694     159.6497        26     1.598     1.341 -25.38   0
       124    411.8568    730.7066 307.7410933  +6.3631602     29429.64     71515.54     82942.74     90.82404     181.5039     363.1159      2.439     5.62     1196.564     63.96694      2779.45        97     2.121     1.760 -46.30   0
       125    529.5645    729.8217 307.6921674  +6.3674485      3845.71      9235.49     10586.04     90.39052     181.2151     362.6107      2.392     5.96     1192.382     63.96694     394.5507        51     1.970     1.536 -42.73   0
       126    774.7396    726.1092 307.5903191  +6.3771380     7518.114     15780.73     16565.04     90.82404      181.576     362.9716      2.193     4.89     1188.241     63.96694      826.142        53     1.848     1.460 -47.62   0
       127    446.5106    728.3001 307.7267620  +6.3653096     2450.611     5816.364     7532.551     90.96809     181.9362     362.8634      2.632     6.40     1195.635     63.96694     230.2371        35     1.723     1.431 -38.82   2
       128    443.5060    721.8199 307.7282310  +6.3678863     1252.716     3296.153     4674.853     90.82404     181.2873     362.7191      2.833     8.38     1195.321     63.96694     176.3872        23     1.754     1.117 -70.44   3
       129    946.2509    746.7833 307.5182857  +6.3742912     1646.389     2815.463     2735.681     90.39052      181.576     362.5746      1.795     5.07     1185.896     63.96694     179.8474        18     1.197     1.138   2.21   0
       130      5.0549    723.1989 307.9105350  +6.3526690     714.8968     1558.329     1330.761     90.24554     181.2151     332.5493      1.991     5.16     1195.651     63.96694      94.7489         6     1.141     0.660   2.30  16
       131    141.1576    718.6995 307.8540845  +6.3590813     1640.009     3866.153     4670.897     90.96809     181.3595      363.152      2.369     7.17     1196.767     63.96694     186.4738        27     1.595     1.382  86.53   3
       132    125.0879    708.6784 307.8611080  +6.3626833     1135.273     2387.615     3040.816     90.67976     181.7922     363.0438      2.350     7.36     1196.028     63.96694      136.465        17     1.490     1.103  -7.39   3
       133    132.7063    718.4932 307.8576063  +6.3588839     6281.178     15617.88     19476.07     90.96809     182.0801     362.8634      2.632     5.69     1196.646     63.96694     605.5322        67     2.008     1.797 -44.38   3
       134    125.2925    715.4088 307.8607944  +6.3599100     1707.093     4679.638     6866.881     90.53526     181.1428      362.683      3.125     8.84       1196.4     63.96694      172.402        42     1.923     1.652  83.25   3
       135    795.5845    719.4442 307.5818739  +6.3805837     771.7143     1629.946     1680.597     90.39052     181.2873     362.6469      2.086     4.79     1187.545     63.96694       103.48         7     1.274     0.510 -52.04   0
       136    920.1743    714.5156 307.5302189  +6.3867557     4904.691     9021.753     10787.44     91.11192     181.2151     362.7552      2.029     4.51     1184.677     63.96694     535.6814        35     1.657     1.181 -48.81   0
       137    969.2076    714.3284 307.5098302  +6.3884594     1203.041     2215.692     3478.776     90.39052     180.9982     362.7912      3.002     6.84     1184.096     63.96694     150.6525        17     1.475     0.904 -62.28   0
       138    675.4222    712.7535 307.6320789  +6.3793536      1038.86     2190.004     2519.751     90.53526     181.5039     362.7191      2.144     7.25     1189.375     63.96694     112.8159        17     1.414     1.230 -78.99   0
       139    562.5629    711.3615 307.6790670  +6.3761730     1299.361     2750.879     3378.785     90.67976     181.3595     362.7552      2.344     8.13      1190.84     63.96694     143.5854        22     1.629     1.134 -16.17   0
       140    914.2568    706.5911 307.5329472  +6.3898329     2231.969     4379.085     5093.039     90.24554     181.4317     362.6107      2.088     5.23     1184.493     63.96694     258.7087        25     1.635     1.041 -66.82   0
       141    974.5729    706.0045 307.5078789  +6.3920759     1697.437     2780.488     3479.688     90.39051     181.2873     362.7191      1.893     5.00     1183.775     63.96694     212.2542        16     1.306     0.899 -53.58   0
       142    943.7162    706.1484 307.5207087  +6.3909931     2419.397     4556.778      5047.46     90.96809     181.4317     363.0077      2.007     5.45         1184     63.96694     293.2822        29     1.570     1.315 -31.61   0
       143    666.9489    706.5872 307.6358114  +6.3816190     838.3448     1951.977     1788.529     90.24554     181.4317     362.6107      2.248     7.25     1189.158     63.96694     109.2095        11     1.317     1.117 -74.91   0
       144    813.9883    703.8399 307.5747455  +6.3876410     647.3472     1389.447     1026.669     90.24554     181.2873     362.6107      1.969     5.60     1186.119     63.96694     73.42859         6     1.279     0.690   0.03   0
       145    241.0000    701.8799 307.8131308  +6.3693657     748.4288     1605.458     3237.146     90.10033      180.781     362.5746      2.098     4.05     1196.078     63.96694     137.9076         5     1.314     0.356  85.70   3
       146    238.1621    699.9243 307.8143774  +6.3700787     784.7368     1833.273     3836.149     90.82404      181.576     362.9356      4.636     8.41     1195.916     63.96694     111.6593        13     2.077     0.951 -79.87   2
       147    931.5185    697.0304 307.5260894  +6.3943551     753.4818     1481.167     1541.971     90.82404     181.2873     362.8995      2.183     5.29     1183.749     63.96694     104.1952         7     1.144     0.691  18.36   2
       148    958.7379    693.8299 307.5148754  +6.3965800     1777.983     3259.657     3591.045     90.67976     181.5039     362.8634      1.974     4.79     1183.465     63.96694     219.7782        21     1.343     1.125 -54.55   0
       149    905.6675    695.2128 307.5369032  +6.3942483     749.3796     1347.844     1443.224     90.39052     181.2873     362.7912      1.930     4.99     1184.149     63.96694     123.4015         5     0.993     0.711   1.19   0
       150   1000.3506    687.3606 307.4977845  +6.4006322     1393.016     2487.979     2203.215     90.96809     181.5039     362.8273      1.873     5.41     1182.977     63.96694     171.3118        16     1.232     1.039 -26.48   0
       151    801.3675    685.6883 307.5806073  +6.3947201     825.3877     1456.314     1223.136     91.11192     181.2873     362.8995      1.915     5.75     1184.811     63.96694     98.16211         9     1.255     0.742 -34.73   0
       152    888.0654    683.0868 307.5446334  +6.3986733     909.7478     1961.236     2458.624     90.96809     181.7202     362.9356      2.155     6.41     1183.918     63.96694     112.2761        11     1.443     0.799 -36.34   0
       153    526.7875    676.6373 307.6951213  +6.3893256      1783.95       1649.5     1500.616     90.39052     181.2873     362.5746      0.747     1.22     1190.586     63.96694     789.8918         5     0.613     0.366  68.20   0
       154     45.2295    674.0338 307.8954979  +6.3743223      1252.47     3078.943     3778.584     90.39051     181.2151     362.6469      2.599     6.66       1193.6     63.96694      151.696        22     1.662     1.038 -59.81   2
       155    844.2771    674.9017 307.5631230  +6.4006009      1029.07      1726.82     2303.555     90.53526     181.7922     362.8995      1.832     5.59     1183.874     63.96694     119.0768        10     1.089     0.809  57.14   0
       156    656.8553    662.0856 307.6415130  +6.3996663     3698.163     8175.798     8677.505     90.96809     181.5039     363.1159      2.262     5.31      1186.43     63.96694     361.7861        43     1.735     1.493 -58.34   0
       157    605.0000    660.3648 307.6631400  +6.3986517     649.5542     1481.369     1857.573     89.80922     181.2151     362.6469      1.565     3.86     1187.267     63.96694     122.7695         5     1.480     0.289  90.00   2
       158    602.3228    660.9513 307.6642338  +6.3983203     709.4523     1550.623      1817.93     90.82404      181.576     362.8995      2.500     3.59     1187.453     63.96694     110.7719         5     0.880     0.716  43.45   2
       159    120.0647    658.3248 307.8649072  +6.3833149     1896.136     4902.526     6007.756     91.11192     181.5039     362.8634      2.509     7.77     1193.416     63.96694     194.2761        32     1.676     1.438 -69.10   0
       160    993.7297    656.9395 307.5015628  +6.4129795     1842.131     3460.523     3615.887     91.11192     181.5039     362.9356      2.023     5.40     1181.745     63.96694     231.7745        24     1.565     1.068 -51.48   0
       161    630.8915    657.7275 307.6524598  +6.4006027     1143.844     2620.908     2865.225     90.82404     181.7202     362.9356      2.311     8.07     1186.574     63.96694     134.7732        18     1.420     1.358 -31.92   0
       162    773.6490    654.1506 307.5932008  +6.4068271     12873.46     27599.39     30912.56     90.96809     181.3595     362.8273      2.230     4.97     1182.985     63.96694     1331.832        67     1.955     1.532 -45.57   0
       163    903.5183    653.8315 307.5391918  +6.4112713     2654.625      5103.44     5406.924     90.82404     181.3595     362.8634      2.025     4.81     1182.303     63.96694      322.582        31     1.598     1.253 -48.78   0
       164    472.3361    654.8304 307.7185073  +6.3965194      628.853     1651.954     1754.176     90.67976      181.576     362.8273      2.020     5.06     1190.726     63.96694     77.17993         6     1.604     0.452  56.79   0
       165    247.3724    648.0557 307.8123062  +6.3918119     3127.879     8041.033     9047.891     90.53526      181.576      362.683      2.404     6.38     1192.704     63.96694     299.7391        45     1.820     1.606 -52.75   0
       166    654.3140    646.9553 307.6430812  +6.4058319     3905.916     9000.026     9400.125     90.96809     181.3595     362.8634      2.281     5.43     1185.331     63.96694     370.3436        48     1.839     1.535 -39.33   0
       167    914.4099    639.8698 307.5351318  +6.4174001     866.2805     1673.823     1810.597     90.39051     181.2873     362.7191      2.194     6.34      1181.54     63.96694     134.2346        13     1.503     1.079 -38.38   0
       168    726.0790    635.4589 307.6136187  +6.4129675     2285.472      5024.27      5970.18     91.11192     181.5039     362.8273      2.331     5.47     1182.862     63.96694     250.5403        33     1.593     1.383 -46.47   0
       169    681.5115    635.3200 307.6321614  +6.4115429     769.3071     1520.694       1714.1     90.67976     181.7922     363.0077      2.396     4.38     1183.997     63.96694     92.35681         7     1.397     0.391 -10.93   0
       170    992.1856    631.8008 307.5030516  +6.4233129      6950.44     13105.62     13348.55     90.53526     181.1428     362.6469      1.961     4.25     1180.501     63.96694     770.8459        42     1.674     1.296 -44.77   0
       171    930.6566    632.2676 307.5286299  +6.4210795     1756.059     3441.343     3315.903     91.11192     181.4317     362.8634      2.015     5.08     1181.023     63.96694     234.2606        22     1.418     1.145 -57.80   0
       172     12.8104    631.9306 307.9104124  +6.3906285     1014.889     2344.048     3358.513     90.39051     181.2873     362.7191      2.821     7.12      1192.71     63.96694     139.2726        11     1.555     0.914  54.72   2
       173     69.7942    627.2643 307.8868706  +6.3944633     13204.65     34128.18     39898.17     90.24554     181.2151     362.6469      2.503     5.83     1192.607     63.96694     1352.403        78     2.049     1.792 -49.05   0
       174    531.0208    627.0967 307.6950363  +6.4099310     943.3763     2391.293     3389.538     90.82404     181.2873      362.683      2.915     8.35      1187.65     63.96694     115.5144        15     1.644     1.184  23.02   0
       175    919.5365    624.3704 307.5335216  +6.4239729     763.2222     1427.648     1580.605     90.67976     181.5039     362.8273      1.918     4.91     1180.753     63.96694     99.92346         8     1.310     0.521  57.70   0
       176    715.5283    619.2672 307.6185540  +6.4193053      1976.15     4839.192     5336.447     90.96809     181.6481     362.8995      2.367     6.89     1182.336     63.96694     209.9307        34     1.691     1.447 -36.02   0
       177    737.6483    617.3589 307.6094174  +6.4208289     2437.882     5550.299     6033.557     90.96809     181.4317     362.7912      2.282     6.09     1181.868     63.96694     272.2753        34     1.776     1.284 -28.94   0
       178    569.0651    615.3655 307.6796084  +6.4160440     1732.962     4292.125     5180.875     90.82404     181.5039     362.8995      2.584     7.36     1185.258     63.96694     173.7932        32     1.682     1.380 -30.53   0
       179    230.3236    614.3112 307.8205420  +6.4051814     978.9532     2309.943     2670.848     90.96809     181.8642     362.9716      2.360     7.94     1191.959     63.96694     121.0453        13     1.450     1.217  20.93   0
       180   1010.4338    613.2851 307.4960843  +6.4315666     3914.427     7065.047     7267.999     90.96809     181.3595     362.8634      1.945     4.33      1179.36     63.96694     498.5812        33     1.582     1.178 -54.88   0
       181    975.8660    612.1115 307.5105031  +6.4309054     5973.991     11447.11     12503.51     90.96809     181.7202     362.8634      2.068     4.49     1179.662     63.96694     625.2443        43     1.718     1.327 -45.72   0
       182    134.5010    606.1052 307.8606763  +6.4053681     12114.41     31575.45     36181.25     90.96809     182.0801     362.7191      2.544     6.01     1192.168     63.96694     1212.783        77     2.059     1.799 -51.68   0
       183    421.4046    606.6879 307.7413218  +6.4147083     1475.822     3718.593     4539.457     90.39052     181.1428     362.5385      2.578     8.86     1189.037     63.96694     170.9143        26     1.610     1.363 -14.54   0
       184    970.6907    595.1596 307.5132269  +6.4377365     5009.815     10138.65     11314.58     90.96809     181.5039     362.9356      2.130     4.55     1178.458     63.96694     560.9303        44     1.655     1.494 -54.75   0
       185   1023.5671    591.1492 307.4913663  +6.4411461     16595.92     23171.55     24393.64     80.58819     146.1809      274.912      1.348     3.49     1177.655     63.96694     4135.149        32     1.714     0.687 -86.07  24
       186    564.3502    590.7230 307.6824030  +6.4260664     24646.47     62803.74     73105.53     90.82404      181.576     362.8995      2.525     5.94     1183.656     63.96694     2344.653        94     2.167     1.787 -47.33   0
       187     16.1400    595.3033 307.9102729  +6.4058694     653.4995     1256.539     1163.919     90.67976     181.5039     363.0077      1.781     4.40     1191.932     63.96694     77.79919         7     1.376     0.400  26.02   0
       188    172.2766    587.2740 307.8456035  +6.4144098     1553.441     3579.589     4484.318     91.25552     181.7922     362.9356      2.550     7.91       1190.6     63.96694     175.7706        27     1.679     1.414  70.42   0
       189     65.4669    581.4918 307.8902259  +6.4132257      721.887     1248.427     1904.391     90.82404     181.6481     362.9356      2.384     6.07      1191.19     63.96694     89.38831         9     1.368     0.757  58.64   0
       190    461.6579    574.5785 307.7256654  +6.4293141     30028.56      82023.6     98092.09     90.53526     181.4317      362.683      2.632     6.21      1185.32     63.96694     2669.247       107     2.226     1.904 -46.40   0
       191      5.9596    576.6569 307.9151413  +6.4132308     837.4138     1880.198      1591.67     90.96809      181.576     343.8162      2.072     7.80     1191.638     63.96694     121.6478        13     1.546     1.100 -77.40  16
       192    137.6178    569.6411 307.8606182  +6.4205346     803.2269     1929.583     2132.923     90.39052     181.2873     362.6469      2.651     5.20     1189.808     63.96694     137.6544         9     1.067     0.716  56.29   2
       193    305.7621    562.6294 307.7909166  +6.4290494     810.9832     1943.478      2571.23     90.53526     181.2151     362.7552      2.988     6.31     1185.951     63.96694     117.8004         8     1.170     0.957  19.77   2
       194    309.0000    562.9356 307.7895594  +6.4290310     691.5048     1745.037     2697.389     90.10033     181.0705     362.5746      1.679     3.70     1185.874     63.96694     109.6755         5     1.366     0.289  90.00   2
       195    733.5233    558.0768 307.6131347  +6.4451806     2850.643     6804.732     7556.669     91.25552     181.7922     363.0077      2.424     6.09     1179.571     63.96694     295.1731        43     1.846     1.512 -33.74   0
       196    787.1702    553.1547 307.5909846  +6.4489967     8100.367     18404.49     21692.92     90.53526     181.5039     362.7552      2.365     5.30     1178.557     63.96694      849.972        59     2.056     1.519 -46.95   0
       197    612.4910    551.3892 307.6637077  +6.4439173     1352.155     2335.744     2586.416     90.67976     181.1428      362.683      1.960     6.91     1179.753     63.96694     143.7991        16     1.431     0.944  89.14   3
       198    609.6753    552.0023 307.6648583  +6.4435703     1104.101     2410.465     2639.478     90.39051     180.9258     362.7552      2.449     6.89     1179.812     63.96694     158.2487        14     1.800     0.768  88.76   3
       199    528.5065    553.4882 307.6985723  +6.4402537     723.2283     1469.255     1829.817     90.96809     182.0081     362.9716      2.626     5.24     1181.456     63.96694     96.67651         7     1.447     0.536 -39.81   0
       200   1004.3917    553.5035 307.5006106  +6.4560617     748.4274     1387.657       998.49     90.67976     181.0705      362.683      1.898     3.84     1175.005     63.96694     110.0919         6     1.040     0.407 -17.69   0
       201    928.6721    547.1199 307.5323246  +6.4561876     854.0822     1675.141     1972.913     91.25552     181.7922     362.9356      2.167     5.81     1174.873     63.96694     109.5743         8     1.282     0.742  50.84   0
       202    863.1576    536.5959 307.5599331  +6.4583607     1579.909     3691.515     4199.069     90.24554     181.1428     362.5746      2.288     7.44     1176.766     63.96694     188.6188        27     1.627     1.295 -20.28   0
       203    821.7248    533.8845 307.5772604  +6.4581049      1504.76     3282.099     4089.335     91.11192     181.8642     362.9716      2.397     5.65     1177.123     63.96694     180.0206        25     1.507     1.232 -62.22   0
       204    250.0896    529.1042 307.8152112  +6.4410386     3545.516     10181.02     11869.09     90.96809     181.9362     362.8995      2.648     7.03     1184.346     63.96694     383.0029        58     2.047     1.781 -56.71   0
       205    802.4462    525.0949 307.5855767  +6.4610955     91394.81       210672     241656.3     90.82404     181.4317     363.0438      2.381     5.42     1176.859     63.96694     8807.366       162     2.387     1.774 -37.80   0
       206    184.3604    523.7450 307.8427339  +6.4410558      27405.2     76191.63     92045.37     90.96809      181.576     362.8995      2.674     6.34     1185.547     63.96694     2713.277       106     2.260     1.920 -52.22   0
       207    108.3789    520.1628 307.8744608  +6.4399946     3014.872     8087.313     9818.247     90.53526     181.2151     362.6107      2.653     6.75     1187.654     63.96694     339.6405        53     2.011     1.728 -47.16   0
       208    973.2421    516.2982 307.5148219  +6.4703982     1026.652     1803.961     2063.853     90.96809     181.3595      363.152      2.234     5.48     1172.663     63.96694     125.4817        11     1.158     0.733 -76.84   0
       209    839.0733    512.4223 307.5707674  +6.4675469     2682.617     5845.475     6580.518     90.53526     181.2873     362.8273      2.277     5.45     1175.618     63.96694     276.3604        39     1.769     1.405 -58.68   0
       210    357.7006    510.7659 307.7710700  +6.4522066     7603.374     21654.45        26201     90.96809     181.3595     363.0799      2.705     6.61     1181.068     63.96694     736.5981        75     2.191     1.860 -55.97   0
       211    160.5162    509.8090 307.8531254  +6.4460152     1122.462     2915.284     4482.364     90.53526     181.1428     362.7191      3.236     7.13     1185.194     63.96694     193.4172        19     1.716     1.343 -68.47   0
       212    524.1213    505.8358 307.7020087  +6.4597920     3097.548     8441.443     10054.19     90.82404      181.576     362.8995      2.622     6.85     1179.854     63.96694     329.5836        53     1.958     1.790 -49.56   0
       213    792.9819    505.5807 307.5901724  +6.4688421     3245.407      7480.52     8500.752     90.67976     181.2873     362.8273      2.317     5.66      1175.83     63.96694     346.7894        44     1.878     1.464 -39.05   0
       214    266.2972    495.3445 307.8096146  +6.4555252     38782.53     111246.3     135582.7     90.82404     181.5039     363.1159      2.707     6.58     1181.582     63.96694     3855.049       125     2.305     1.988 -51.77   0
       215     42.8822    497.7144 307.9024676  +6.4470754     2542.234     6512.335     7918.346     90.67976     181.7922     363.0077      2.628     6.77      1187.63     63.96694     273.5255        47     2.031     1.573 -57.55   0
       216    570.1641    498.1747 307.6831145  +6.4644902     969.8026     2161.703     3414.285     90.53526     181.2873     362.6107      2.323     5.50     1178.562     63.96694     160.7158        10     1.524     0.560 -82.80   3
       217    567.2035    498.4234 307.6843377  +6.4642889     1073.352      2089.95     3240.965     90.53526     181.1428     362.7191      2.893     7.01     1178.651     63.96694      125.847        13     1.479     0.932 -67.20   2
       218    810.2711    497.5868 307.5832497  +6.4727187     900.8351     1894.297     1200.919     90.39052     181.2151     362.7552      1.970     5.90     1175.183     63.96694     93.09937        11     1.279     0.766  65.20   0
       219    789.2589    487.4081 307.5923345  +6.4762254     9124.793     21267.57     24112.74     90.24554     181.3595     362.6107      2.370     5.56     1174.709     63.96694     944.0908        65     1.954     1.652 -50.72   0
       220    171.0062    498.9676 307.8491300  +6.4508442     2886.186     8469.421     10453.72     90.24554     181.2873      362.683      2.772     7.11     1184.265     63.96694     333.1694        54     2.064     1.742 -50.83   0
       221    492.9759    485.9983 307.7156363  +6.4669488     19198.26     54041.28      68170.3     90.53526     181.1428     362.6469      2.775     6.32     1179.573     63.96694     1752.167       106     2.290     2.019 -38.15   0
       222    964.7581    488.6541 307.5192826  +6.4815364     995.5768      2126.19     1988.051     90.82404      181.576     362.9356      2.170     6.72     1171.317     63.96694     140.4337        14     1.558     0.941 -43.38   0
       223    652.8272    480.8561 307.6493122  +6.4743957     1612.257     4203.483     4620.537     90.53526      181.576     362.7191      2.503     8.25     1176.352     63.96694     183.0565        34     1.763     1.537 -42.63   0
       224    206.7008    481.9446 307.8348600  +6.4590691      854.202     2168.637     3071.389     90.67976     181.5039     363.2241      2.923     5.74     1182.728     63.96694     143.0623         8     1.316     0.705  85.52   2
       225    392.3489    476.6278 307.7578136  +6.4674643     765.7147     1917.833     2871.789     90.53526     181.6481     362.7912      3.146     5.92      1178.91     63.96694     132.2009         7     1.278     0.898 -18.33   2
       226    323.6948    475.1065 307.7864246  +6.4658016     1745.367     3318.427     3751.666     90.96809      182.152     362.8273      1.957     7.84     1179.034     63.96694     188.9569        22     1.830     0.940 -68.12   3
       227    320.8175    474.9059 307.7876283  +6.4657885      1508.56     3461.253     4184.482     90.82404     181.2873     362.7552      2.399     7.89     1179.037     63.96694     183.8879        22     2.054     0.847 -78.79   3
       228    137.4139    473.7497 307.8639599  +6.4601376     11671.34     32944.47     39077.71     90.24554     181.5039     362.5746      2.639     6.45     1183.911     63.96694     1236.368        82     2.175     1.846 -55.66   0
       229    502.9733    473.7229 307.7118929  +6.4723526     991.1962     2430.058     2911.633     90.82404     181.4317     362.8634      2.489     8.95     1178.522     63.96694     122.1628        19     1.566     1.428  -4.24   0
       230    864.9240    472.8213 307.5613489  +6.4847640     865.5113      1743.33     2168.871     90.53526     181.2873     362.8273      2.259     5.30     1172.915     63.96694     158.5675         7     1.226     0.652 -59.78   0
       231    103.8589    472.4629 307.8779616  +6.4595467     1331.275     3095.365     4016.024     91.11192     181.4317     362.9356      2.821     7.36      1185.34     63.96694     147.6675        16     1.277     1.205  -8.55   2
       232    962.7273    467.8419 307.5208286  +6.4900664     3443.445     7176.453     7964.532     90.82404      181.576     362.9356      2.207     5.10      1170.15     63.96694     379.1938        38     1.738     1.344 -55.86   0
       233      2.6611    458.0676 307.9205463  +6.4621054     13040.44     25788.27     28495.84     90.96809     164.9504     297.0712      2.103     6.13     1185.853     63.96694     1279.379        49     2.002     1.269 -79.47  24
       234    535.3573    459.7733 307.6988931  +6.4791939      704.364     1297.179     1224.839     90.53526     181.5039     362.7552      2.027     4.25     1176.685     63.96694     91.49561         6     0.751     0.685  28.32   0
       235    434.3143    454.7481 307.7410974  +6.4779020     18755.18     53348.12     64469.23     90.96809     181.4317     363.0077      2.693     6.49     1176.852     63.96694     1815.602        97     2.237     1.944 -50.51   0
       236    642.3290    454.3091 307.6545767  +6.4850126     5980.275     15707.43     17558.23     90.82404     181.7202     362.8995      2.510     6.26     1174.565     63.96694     567.2552        61     2.061     1.681 -49.67   0
       237    199.6140    452.4345 307.8388096  +6.4710220     8691.876     25286.88     30520.61     90.53526     181.2151     362.7552      2.737     6.48     1180.985     63.96694     810.3695        78     2.095     1.983 -49.32   0
       238    564.1580    450.9580 307.6872101  +6.4837946     1190.555     3518.702     4094.245     90.67976     181.5039     362.7552      2.617     9.74     1175.244     63.96694     162.1586        30     1.785     1.484 -49.34   0
       239    975.8421    451.8437 307.5159115  +6.4971101     747.5956      1549.68     2220.445     90.67976     181.5039     362.7191      2.261     3.90     1168.648     63.96694     138.0869         5     0.809     0.540 -50.00   0
       240    937.9245    448.0444 307.5318143  +6.4974219      3169.96      6401.45     6791.604     90.82404      181.576     362.9356      2.099     4.64     1169.859     63.96694      355.407        36     1.554     1.378 -46.14   0
       241    612.4892    447.0179 307.6672370  +6.4870314     2585.972     4814.779       6001.9     90.67976     181.2151     362.7912      2.104     6.57     1174.252     63.96694     278.2924        21     1.689     0.895 -68.05   3
       242    610.0000    445.9972 307.6683070  +6.4873702      2520.21     5185.579     6717.309     90.10033     180.9258     362.5746      2.357     6.13     1174.193     63.96694     325.9999        26     1.968     0.973 -70.93   3
       243    960.4066    440.2986 307.5227222  +6.5013674     2263.201     4599.288     4463.578     90.67976     181.0705     362.6469      2.114     5.49      1168.52     63.96694     248.0663        33     1.682     1.387 -43.69   0
       244    523.3501    438.0190 307.7046243  +6.4877802     3349.231     9307.084      11331.2     90.39051      181.576     362.7191      2.677     6.78     1174.314     63.96694     312.0477        54     2.039     1.706 -54.23   0
       245    369.5412    438.1868 307.7686042  +6.4825825     1116.033     3143.828     3674.091     90.24554     181.4317     362.5746      2.559     8.98      1175.99     63.96694     163.5781        29     1.738     1.603 -32.87   0
       246    879.5707    433.8206 307.5565708  +6.5013611     1859.276     4144.941      5399.69     90.39052     181.2873     362.7912      2.692     6.17     1169.993     63.96694     228.4384        31     1.676     1.404 -57.75   0
       247    973.1187    429.9846 307.5177810  +6.5060496     3518.463     3406.812     3471.217     90.53526     181.2151     362.7191      0.493     2.28      1167.47     63.96694     2366.358         6     0.428     0.367 -38.13   0
       248    886.9901    428.2201 307.5536729  +6.5039209     1271.618     2943.472     3898.132     90.53526     181.1428     362.7552      2.548     7.23     1169.458     63.96694     179.5637        18     1.398     1.177  84.46   0
       249    925.9384    427.3446 307.5374986  +6.5055751     826.7559      1600.95      1626.53     91.11192     181.5039     362.8995      1.963     5.60     1168.728     63.96694     112.6648         6     1.143     0.774  80.40   0
       250    711.2695    424.0911 307.6269172  +6.4997885      1562.87     3657.142     3842.326     90.96809     181.6481     362.8995      2.305     6.30     1172.231     63.96694     162.3907        27     1.452     1.335 -24.57   0
       251    382.3594    422.2956 307.7638103  +6.4895745     1724.978     4944.063     5941.631     90.96809     181.4317     363.0799      2.713     8.30     1174.589     63.96694     219.3032        39     1.811     1.628 -53.53   0
       252     73.7532    423.3679 307.8921533  +6.4788188     941.1324     2282.851     3045.795     90.53526     181.5039     362.7912      2.844     7.97     1183.124     63.96694     108.4451        16     1.526     1.165 -78.51   0
       253    609.8103    418.9789 307.6692995  +6.4985247     4620.128     12483.99     14910.53     90.53526     181.1428     362.7191      2.617     6.40      1172.31     63.96694     428.4926        64     2.110     1.766 -53.73   0
       254    772.5915    415.1769 307.6017065  +6.5055094     8689.639     21468.03     26072.71     90.53526     181.2151      362.683      2.544     5.70     1170.639     63.96694      807.425        76     2.226     1.692 -46.41   0
       255    294.1931    416.1491 307.8006965  +6.4891704     1076.427     2527.322     3742.992     90.39051     181.2873     362.4663      2.989     9.61     1175.262     63.96694     135.1438        20     2.155     1.195 -39.19   2
       256    376.2746    412.6509 307.7666685  +6.4933555     819.3239     1728.739     2225.988     90.96809      181.576     362.9356      2.174     6.68     1173.925     63.96694     111.3844        10     1.713     0.732 -72.66   0
       257    957.6743    409.9955 307.5248799  +6.5137947     1356.938     2925.007     3020.715     90.53526     180.9258     362.7552      2.166     6.23     1166.615     63.96694     157.7305        20     1.320     1.165  53.34   0
       258    110.3040    407.5561 307.8774859  +6.4865733     2044.088     5330.025     6469.539     90.96809     181.4317     363.0438      2.551     7.49     1181.565     63.96694     224.7566        43     1.936     1.640 -56.07   0
       259    748.3216    406.1278 307.6121091  +6.5084408     1185.072     2649.885     3504.261     91.25552     181.7922     362.8634      2.584     7.66     1170.582     63.96694     140.1024        21     1.527     1.321  -1.36   0
       260   1011.5275    404.8991 307.5026464  +6.5176858     2941.807     6201.473     7525.858     90.67976     181.6481     362.8995      2.397     4.94     1164.512     63.96694     310.9678        37     1.651     1.383 -48.04   0
       261    269.8400    404.6291 307.8112183  +6.4931157     751.5009     1751.932      2913.33     90.53526     181.2151     362.7552      2.601     5.32     1175.386     63.96694     113.2053         8     1.457     0.549 -53.91   0
       262    345.8791    402.2731 307.7796652  +6.4966279     1373.224     3913.373     4712.734     91.25552     181.7922     362.8995      2.670     8.24     1173.398     63.96694     164.0265        32     1.723     1.520 -21.01   0
       263    703.8625    399.8499 307.6308176  +6.5095559      658.391     1761.635     2411.798     90.96809     181.4317     362.9716      3.212     6.25     1170.449     63.96694     119.4625         7     1.151     0.953  20.62   2
       264    466.8684    392.4712 307.7296635  +6.5047128     567.0401     1285.419     1971.556     90.96809     181.6481     362.8634      2.730     4.94     1170.505     63.96694     99.71985         6     1.081     0.657 -48.17   0
       265    828.2141    390.2496 307.5794067  +6.5176545     897.3381      1993.62     2428.951     90.24554     181.4317     362.5746      2.423     7.84      1167.54     63.96694     94.86035        16     1.480     1.160 -76.79   0
       266    710.8842    387.0830 307.6283276  +6.5150632     7365.947     19125.88      22435.9     90.67976     181.7922     362.9716      2.519     6.05      1169.33     63.96694     683.5529        67     2.112     1.718 -48.32   0
       267    813.7757    389.3461 307.5854441  +6.5175481     1165.628     2572.535     3240.862     90.39052     181.5039      362.683      2.464     7.93     1167.611     63.96694     166.9674        16     1.750     1.004 -25.36   0
       268    632.0290    383.8571 307.6612433  +6.5137725     1048.384     2615.334     3604.409     90.53526      181.576     362.7912      2.923     8.57     1169.384     63.96694     117.0591        16     1.674     1.224  -8.83   2
       269    604.3708    378.2081 307.6729411  +6.5151853     7187.079      20632.7     29751.85     90.53526     181.2873     362.6469      3.127     7.29     1168.899     63.96694     761.1052       101     2.608     2.116  24.47   0
       270    936.0157    376.9300 307.5350053  +6.5267353     2514.637     5235.925     5798.177     90.39052     181.4317     362.7912      2.115     5.06     1165.089     63.96694     257.4224        31     1.497     1.359 -58.21   0
       271    375.4331    373.1435 307.7683575  +6.5096470     12363.05     35482.27     43717.43     90.82404     181.5039     362.8995      2.739     6.55     1170.514     63.96694     1196.214        93     2.260     1.951 -46.09   0
       272    123.2724    373.1702 307.8732594  +6.5012108     1052.479      2688.76     4022.454     90.82404     181.5039     362.8634      3.088     9.29      1180.09     63.96694     132.2811        21     1.757     1.651 -82.55   2
       273    904.8097    367.2789 307.5483140  +6.5296865     3043.841     6568.334     7275.808     90.53526     181.0705     362.7191      2.264     5.23     1165.021     63.96694     322.8569        40     1.811     1.393 -48.27   0
       274     56.4660    368.3204 307.9012161  +6.5009784     718.2172     1706.958     1989.191     91.11192     181.6481     362.8634      2.483     5.64     1182.216     63.96694     116.3242        10     1.449     0.619 -67.73   0
       275    233.0034    363.8229 307.8279274  +6.5087409     5974.061     17272.34     20996.64     90.53526     181.1428     362.7191      2.682     6.79     1173.901     63.96694     652.5867        74     2.200     1.879 -50.67   0
       276    133.2290    352.5690 307.8698173  +6.5100536     2208.428     6065.438     7059.108     90.39052     181.2151     362.6107      2.613     7.28     1179.312     63.96694     266.0804        44     1.894     1.715 -65.06   0
       277    956.0540    355.4776 307.5273913  +6.5362618     734.5902     1491.355     1936.516     91.11192     181.5039     362.8995      1.984     5.49     1162.666     63.96694     93.66528         8     1.346     0.632 -29.62   0
       278    155.7710    348.2747 307.8605854  +6.5125814     1201.229      3085.81      3394.42     90.82404     181.5039     362.8634      2.502     8.59     1178.379     63.96694      151.032        22     1.491     1.381  60.84   0
       279    378.7615    341.8220 307.7680344  +6.5226962     890.3226     2613.198     3151.244     90.53526     181.2151     362.6469      2.781     7.90     1168.131     63.96694     122.5476        14     1.675     1.119  26.39   2
       280    966.2982    341.6641 307.5235946  +6.5423079     692.4055     1373.829     1560.968     90.96809      181.576     362.9356      1.835     3.96     1161.549     63.96694     106.2152         6     1.050     0.449  84.63   0
       281    432.5279    336.6026 307.7458425  +6.5266458     3036.594     9026.845     10965.78     90.39052     181.0705     362.7191      2.720     7.06     1166.645     63.96694     339.9176        58     2.147     1.761 -54.83   0
       282     29.2460    337.8256 307.9135767  +6.5126633     1503.986     4233.024     5075.834     90.53526      181.576     362.7552      2.648     8.92      1182.75     63.96694     163.7705        31     1.973     1.390 -49.69   0
       283    773.0038    333.7168 307.6042851  +6.5391732     6779.974     16691.65     19899.67     90.39051     181.0705     362.5746      2.482     5.66     1164.518     63.96694     657.6492        65     2.056     1.712 -35.45   2
       284    764.4502    335.0042 307.6078004  +6.5383571     1033.003     2351.663     3252.851     90.24554     181.2873     362.4663      2.893     6.64     1164.752     63.96694     135.9392        14     1.602     0.771  45.99   3
       285    338.3998    331.4292 307.7851786  +6.5256421     531.2414      1383.65     1585.618     90.10033     181.2873      362.683      2.744     4.70     1168.531     63.96694     88.67554         6     1.384     0.452 -50.03   0
       286   1016.8752    328.5005 307.5029945  +6.5494227     2514.338     5073.673     6168.733     90.39051     181.6481     361.7069      2.299     4.75     1158.645     63.96694     269.1577        33     1.565     1.346 -48.28  16
       287    453.4078    321.3397 307.7376725  +6.5336469     981.4786     2656.509      3627.31     90.24554     181.2873     362.6469      2.886     8.51     1165.056     63.96694     154.5826        20     1.783     1.314 -30.37   0
       288    480.6790    320.3283 307.7263607  +6.5349738     1425.423     3713.612      4272.42     91.25552     181.7922     362.8634      2.589     9.74     1164.223     63.96694     157.5648        30     1.840     1.437 -38.04   0
       289    838.3818    316.5329 307.5776636  +6.5484437     18882.71      44424.6     52127.54     90.53526     181.4317     362.7912      2.448     5.40     1162.834     63.96694      1753.07        90     2.108     1.760 -56.03   0
       290    608.8811    309.4463 307.6733900  +6.5437398     1049.147     2432.763     2721.283     90.96809     181.5039     362.8995      2.630     7.55     1163.618     63.96694     133.7494        17     1.875     0.850  86.95   2
       291    611.5429    308.5590 307.6723125  +6.5441949     1183.711     2542.656     3224.366     90.96809     181.5039     362.9356      2.481     6.38     1163.649     63.96694     142.2037        15     1.268     1.186 -86.34   3
       292    694.8580    302.6106 307.6378493  +6.5494245     38410.98     101255.6       120600     90.24554     181.3595     362.5746      2.563     6.00     1163.867     63.96694     3496.808       114     2.221     1.879 -47.10   0
       293     94.8686    298.5509 307.8876118  +6.5310831     2918.926      7924.69     8999.198     90.96809     181.4317     362.8995      2.555     6.30     1178.907     63.96694     334.7006        55     2.017     1.737 -62.93   0
       294    557.6340    299.5268 307.6950473  +6.5461308     1182.235     3044.612     3620.814     90.82404     181.4317     362.8995      2.596     9.53     1162.891     63.96694     147.6222        20     1.770     1.432   2.72   0
       295    540.6584    295.5531 307.7022447  +6.5472068     3275.576      9055.93     10864.34     90.96809     181.5039     363.0438      2.642     6.74      1162.61     63.96694      303.224        53     1.988     1.739 -60.82   0
       296    270.3680    293.5749 307.8147666  +6.5390068     1111.115     2969.143     3810.535     90.39052     181.2873     362.7191      2.674     9.31     1169.658     63.96694     124.5752        25     1.923     1.257 -32.30   2
       297    403.6172    290.8404 307.7594212  +6.5445848     10895.71     32715.69     40839.19     90.53526     181.2873      362.683      2.787     6.72      1164.52     63.96694      1081.77        91     2.276     1.960 -51.19   0
       298    492.4825    281.2501 307.7227730  +6.5515097      3713.06     10845.02     13737.43     90.96809     181.5039     362.9356      2.844     7.59     1161.344     63.96694     413.8838        67     2.228     1.892 -41.57   0
       299    761.9522    279.7321 307.6107061  +6.5611062     1560.141     4095.905     4743.859     90.96809     181.4317     362.8995      2.541     7.82     1161.978     63.96694     179.8538        34     1.800     1.506 -31.01   0
       300    382.6398    265.4486 307.7690096  +6.5543735     3023.918     9277.312     11137.49     90.82404     181.5039     362.7912      2.770     7.15     1164.351     63.96694      333.321        64     2.211     1.860 -48.96   0
       301    239.7568    267.0218 307.8284034  +6.5489522      924.483     2030.729     2438.701     90.39051     181.3595      362.683      2.542     5.39     1170.098     63.96694     139.8562         9     1.241     0.661 -48.60   2
       302    750.3283    261.1012 307.6161718  +6.5684159     27442.83     69270.88      81071.9     90.67976     181.7202     362.8995      2.506     5.76     1160.884     63.96694     2499.687        99     2.173     1.798 -46.04   0
       303    424.2581    260.3224 307.7518675  +6.5578796     763.7965     2041.172     3038.874     91.11192     181.5039     362.8273      3.122     6.64     1162.726     63.96694     118.3528        11     1.484     0.996 -72.66   2
       304    985.5892    258.5706 307.5183679  +6.5772727     1185.977     2270.366     2431.274     90.39052     181.2873     362.7191      2.023     7.63     1156.177     63.96694     150.1506        19     1.560     1.131 -57.64   0
       305    925.8002    257.2726 307.5432894  +6.5758255     1492.395     3062.145     3610.035     90.10033     180.9258     362.7191      2.272     6.11     1157.749     63.96694      162.947        18     1.403     1.075 -47.75   0
       306    410.0436    256.9514 307.7578958  +6.5587979     769.5022     1907.665     2224.439     90.96809     181.4317     362.8273      1.854     4.13     1163.287     63.96694      114.762         7     1.384     0.352 -61.55   2
       307    829.8522    250.8138 307.5834303  +6.5753081     660.1566     1572.141     1543.595     90.24554     181.4317     362.6107      2.364     5.81     1159.658     63.96694      97.9624         7     1.241     0.767 -68.94   0
       308    438.8906    249.5233 307.7461452  +6.5628284     600.3235     1353.329     1551.659     90.82404     181.7922     362.9356      2.343     8.00     1161.262     63.96694      95.8075        10     1.599     1.119 -40.27   0
       309    185.3297    248.1827 307.8516875  +6.5549147     1076.413     2922.278     3783.791     90.39051     181.3595     362.7912      2.785     8.54     1173.245     63.96694     140.9143        24     1.964     1.404 -45.12   0
       310    749.0649    245.7445 307.6172161  +6.5747175     3007.681     7499.069     9216.231     91.11192     181.4317     362.8995      2.596     6.28     1159.854     63.96694     283.0829        50     2.013     1.552 -51.67   0
       311    764.3530    243.3144 307.6109370  +6.5762296     1158.366     3146.923     3832.807     90.96809     181.4317     362.8995      2.775     7.16     1159.562     63.96694     149.5292        17     1.497     0.961 -55.79   2
       312    354.9298    238.6028 307.7814488  +6.5645380     1134.297     2706.221      3567.03     90.39051     181.0705      362.683      2.601     8.35     1164.372     63.96694     139.4492        20     1.783     1.191  47.31   0
       313   1003.3323    234.3533 307.5118010  +6.5878650     3814.406     7844.667     8595.722     90.96809     181.4317     362.8995      2.180     5.03     1154.005     63.96694     418.6107        34     1.611     1.320 -64.18   0
       314    481.9681    235.7797 307.7286874  +6.5699419     979.8275     2480.507     3097.887     90.39051     181.2873     362.7552      2.531     9.21     1156.739     63.96694     126.4443        15     2.087     1.135 -89.73   2
       315    244.3763    230.2163 307.8277308  +6.5643098     2546.779     7270.333     9224.572     90.67976     181.3595     362.7912      2.760     6.67     1169.805     63.96694      290.929        54     2.071     1.721 -48.68   0
       316    376.4999    220.5496 307.7730862  +6.5727152     571.2245     1483.683       1607.1     90.96809     181.5039     363.0799      2.600     5.35     1163.203     63.96694      92.0636         6     1.708     0.473 -84.37   0
       317    965.2271    219.4653 307.5281585  +6.5927513     675.8094     1458.358     1450.137     90.53526     181.4317     362.7912      2.171     6.81     1153.676     63.96694     95.72937         8     1.407     0.924  21.05   0
       318    148.5201    217.7635 307.8680358  +6.5662488     740.0734     1807.129     2461.048     90.82404      181.576     362.8995      2.962     7.81      1175.28     63.96694     112.7625        11     1.519     1.125 -26.63   0
       319    557.7416    212.6190 307.6979434  +6.5820342     955.9684     2488.629     2619.183     90.53526     181.3595      362.683      2.451     8.88     1155.222     63.96694     140.0854        19     2.117     1.040 -23.19   0
       320    721.2463    209.7785 307.6300062  +6.5886495     2514.609     6573.634     8116.614     90.53526     181.5039     362.7191      2.682     6.31     1157.459     63.96694     264.2936        47     1.854     1.707 -70.91   0
       321    901.2850    211.2614 307.5550417  +6.5940185     978.2251     2158.885     2785.786     91.11192     181.6481     362.9356      2.530     5.48     1155.451     63.96694     128.0111        13     1.511     0.977  -2.58   0
       322    661.9823    209.8781 307.6546624  +6.5866369     1092.054     2627.413     3499.508     90.39052     181.2151     362.8273      2.621     7.21     1156.584     63.96694     148.7137        18     1.689     1.065   9.44   0
       323    753.5954    194.1951 307.6170722  +6.5961623     903.3555     2356.148     2739.849     90.24554     181.0705     362.7552      2.588     9.35     1156.883     63.96694     134.7191        18     1.732     1.409 -76.33   0
       324    222.4896    196.1622 307.8379932  +6.5776450     984.4322     2322.186     3075.673     90.96809     181.4317     362.9356      2.781     6.99     1172.114     63.96694     164.3141        13     1.509     0.971 -63.41   2
       325    863.1389    194.1259 307.5714927  +6.5998305     1007.542     2133.534     2461.816     91.25552     181.5039     362.8995      2.296     7.77     1156.313     63.96694     122.8451        14     1.424     1.185 -81.15   0
       326    454.7948    185.2185 307.7417063  +6.5899215     9652.521     28788.69     36497.98     90.53526     181.0705      362.683      2.823     6.68     1156.628     63.96694     1047.973        97     2.466     1.929 -43.97   0
       327    780.6346    184.1775 307.6061593  +6.6011992     6865.721     17088.63      20609.5     90.39051     181.2151     362.6469      2.530     5.74       1156.4     63.96694     659.4718        69     2.084     1.780 -32.80   0
       328    143.1629    179.2848 307.8715722  +6.5819638     1137.621     3052.988     3478.291     90.96809     181.5039     362.8634      2.620    10.04     1175.548     63.96694     157.3429        26     1.788     1.573  85.16   0
       329    917.2562    174.1063 307.5496489  +6.6098969     941.1409     1920.239     2775.049     90.82404     181.5039     363.1159      2.397     6.50     1152.657     63.96694     108.1053        11     1.148     1.035 -64.11   0
       330    578.7696    171.1142 307.6905982  +6.5998793     2219.864     5944.276      6935.19     90.96809     181.2873     362.7552      2.556     7.54     1154.964     63.96694     211.7223        43     1.906     1.616 -41.56   0
       331    542.0120    172.0008 307.7058631  +6.5982887     866.7901     2345.902     2565.685     90.53526     181.1428      362.683      2.667     7.04     1154.927     63.96694      109.496        12     1.500     0.927 -49.14   2
       332    885.5972    167.2812 307.5630530  +6.6116654      6556.54     14765.63     16821.57     90.24554     180.9982     362.6107      2.311     5.11     1153.592     63.96694     646.4548        58     1.907     1.600 -61.09   0
       333    384.4505    169.3360 307.7715143  +6.5941355      678.322     1516.714     1715.373     90.96809     181.4317     362.9356      2.556     5.17     1160.753     63.96694     101.2227         7     0.892     0.848  29.40   0
       334    939.7207    167.5295 307.5405228  +6.6133591     1883.222     3835.591     4137.012     91.25552     181.7922     362.8634      2.161     5.12     1151.553     63.96694     223.9467        23     1.360     1.225 -18.10   0
       335    683.9840    165.4323 307.6470099  +6.6057287     1357.219     3597.719     4390.436     90.53526     181.2151     362.7552      2.656     9.92     1155.436     63.96694     153.2891        30     1.973     1.390 -75.03   0
       336     12.1335    164.3783 307.9265964  +6.5837345     12099.34     32942.94     39624.55     90.53526     181.5039     362.8273      2.628     6.36     1181.359     63.96694     1326.456        82     2.224     1.804 -54.21  16
       337    972.3052    164.9950 307.5270491  +6.6154871     6294.384      13221.4        14482     90.67976     181.1428     362.6107      2.193     4.81     1150.543     63.96694     607.1956        52     1.860     1.494 -61.11   0
       338    492.3265    160.6367 307.7269221  +6.6013270     979.1179     2442.226     2453.563     90.82404      181.576     362.9356      2.451     9.05     1154.935     63.96694     112.8613        21     1.631     1.402 -66.72   0
       339    824.3375    156.7622 307.5888994  +6.6139762     1021.743     2199.262      1972.06     90.96809      181.576     362.8995      2.096     7.45     1154.633     63.96694     125.6456        15     1.601     0.971  -6.26   0
       340    504.5247    155.8933 307.7220070  +6.6036930     1103.214     2817.085     3232.268     90.82404     181.6481     362.8995      2.732     8.61     1154.885     63.96694     125.1151        18     1.598     1.297  55.14   0
       341    339.0100    152.9201 307.7909784  +6.5993996     3133.289     9283.195      13229.6     90.53526     181.1428     362.7552      3.102     8.12     1165.585     63.96694     320.8687        72     2.589     1.838 -65.99   0
       342    876.7158    155.7535 307.5671377  +6.6161324     1066.215     2727.977     3668.931     90.96809     181.5039     362.9356      2.704     8.94     1153.308     63.96694     130.3596        21     1.592     1.401 -53.08   0
       343    735.9064    153.2795 307.6258149  +6.6124757     20553.69     51752.41     61317.21     90.67976     181.7202     362.9716      2.512     5.71     1154.895     63.96694     1928.024        95     2.161     1.828 -49.95   0
       344    969.6364    151.9000 307.5286010  +6.6208079     1849.496     4169.727     4497.291     90.96809     181.3595     363.0799      2.284     5.55     1149.979     63.96694     253.1453        33     1.710     1.323 -53.42   0
       345   1007.6502    150.7035 307.5128226  +6.6225628     1079.438     2466.641     2216.525     90.82404     181.4317     363.0799      2.311     6.81      1149.05     63.96694      162.358        14     1.624     0.802 -84.36   0
       346    903.7354    150.3381 307.5560769  +6.6192664     4604.534     10237.88     11434.19     90.96809     181.5039     362.9356      2.244     5.28      1151.86     63.96694     480.7107        49     1.818     1.535 -45.40   0
       347    447.8752    150.8402 307.7457503  +6.6038916     2100.758     4343.398     5378.399     90.82404     181.5039     362.9356      2.419     8.38      1155.82     63.96694     230.5245        28     1.840     1.460 -25.39   3
       348    448.0771    148.0000 307.7457624  +6.6050715     1556.942     3490.958     4325.348     90.10033      180.781     362.5746      2.388     7.45      1155.82     63.96694     228.1997        17     1.860     0.836   5.32   3
       349    104.7746    141.2582 307.8888371  +6.5963866     2211.855     6112.793      7042.63     90.53526     181.5039     362.7191      2.583     6.97     1176.803     63.96694      259.517        44     1.873     1.665 -58.62   0
       350    275.0785    137.8141 307.8180925  +6.6035042     14591.38     43149.95     53569.22     90.53526     181.2151      362.683      2.759     6.85      1171.32     63.96694     1649.045        95     2.298     1.950 -51.24   0
       351    250.4657    138.9198 307.8282963  +6.6022250     2923.286     8432.101     9667.618     91.25552     181.6481     362.8634      2.710     6.88     1172.279     63.96694     321.5997        56     2.140     1.700 -57.83   0
       352    399.1559    133.2236 307.7666196  +6.6095432     21855.62     63208.67     77845.59     90.39051     181.4317     362.7191      2.742     6.63     1158.926     63.96694     2257.133       105     2.317     1.955 -46.82   0
       353    156.3049    135.4940 307.8675920  +6.6004918     1741.848     3412.755     4896.321     90.96809     182.2238     362.8273      2.647     7.58     1174.861     63.96694     250.7491        28     2.211     1.091 -60.91   3
       354    153.6627    133.0319 307.8687751  +6.6014204     1203.682     2008.603     2659.913     90.67976      181.576     362.8634      2.315     7.21     1174.928     63.96694      154.741        17     1.732     0.841 -64.42   3
       355    303.9710    130.9472 307.8063035  +6.6073059     8255.716     22731.46      31540.5     90.67976     181.6481     362.7912      3.063     7.02     1169.475     63.96694     878.2736       108     3.009     2.034  -9.89   0
       356    738.3150    129.2078 307.6256259  +6.6224994      17467.8     43430.66     51158.02     90.53526     181.1428     362.7191      2.503     5.71     1153.763     63.96694     1643.474        86     2.115     1.784 -48.45   0
       357    786.6166    131.0053 307.6054656  +6.6233625     770.7126     1610.035     2213.967     90.53526     181.1428     362.7191      2.611     4.97     1153.813     63.96694     97.97742         8     0.964     0.725   9.58   0
       358     55.4735    126.8536 307.9098403  +6.6006861     4446.826      12135.5     14567.57     90.82404     181.5039     362.8995      2.662     6.24     1179.118     63.96694     485.9814        60     2.046     1.743 -51.34   0
       359     89.6977    125.0624 307.8956610  +6.6025718     706.8423     1421.246       1499.6     90.67976     181.6481     362.9716      2.176     4.39     1176.934     63.96694     113.9321         5     1.111     0.493  24.75   0
       360    997.6190    109.9169 307.5183714  +6.6390786     1493.525      3022.27     3459.438     90.53526     181.1428     362.8634      2.180     6.51      1147.97     63.96694     158.8474        20     1.413     1.224 -82.91   0
       361    274.0098    104.1586 307.8196795  +6.6173705        13424     38933.54     48385.65     90.24554     181.2873     362.6107      2.744     6.54     1171.988     63.96694     1534.173        92     2.286     1.915 -49.15   0
       362    590.2642    106.5782 307.6879988  +6.6269205     969.2527     2300.401     3242.186     90.53526     181.5039     362.7552      2.589     5.75     1154.068     63.96694     117.6951        11     1.248     0.746 -45.85   2
       363     19.3151    102.7748 307.9257044  +6.6094209     2307.191     5922.894     7042.629     91.11192     181.2151     362.7552      2.604     6.97     1181.494     63.96694     265.0295        46     2.035     1.665 -80.84   0
       364    705.6024    100.3309 307.6402144  +6.6333399     4063.347     10331.41     11989.97     90.24554     181.0705      362.683      2.488     6.12     1152.979     63.96694     399.3724        56     2.094     1.605 -47.10   0
       365    116.5211     97.9354 307.8854223  +6.6146747     2458.828     6528.589     8137.646     91.25552      181.576     362.8634      2.715     7.45     1175.276     63.96694     293.4016        48     2.072     1.697 -52.74   0
       366    455.5569     95.4760 307.7444296  +6.6270172      635.239     1801.278     2107.543     90.82404      181.576     362.9356      2.744     9.72     1155.668     63.96694     87.85266        13     2.286     1.153  11.92   0
       367    351.3587     92.7379 307.7878812  +6.6246714     1484.072     4211.318     5472.926     90.96809     181.5039     362.9716      2.949    10.08     1166.081     63.96694     170.4182        38     1.968     1.716 -52.69   0
       368    387.2073     93.6240 307.7729340  +6.6255020     1764.127      5359.92     6940.574     90.39052     181.2873     362.7191      2.947     8.26     1161.077     63.96694     205.1293        45     1.922     1.757 -84.91   0
       369    998.0340     86.5675 307.5189856  +6.6487377     1201.903     2297.885      2978.51     90.39051     181.2151     362.6107      2.141     6.01     1146.284     63.96694     127.9458        13     1.098     0.950  31.14   0
       370    203.3565     81.8109 307.8498377  +6.6242399     2622.589     7033.114     8065.872     90.39051     181.2873     362.5746      2.599     6.56      1174.48     63.96694       370.15        48     1.910     1.713 -42.12   0
       371     86.6477     81.8105 307.8984008  +6.6203353      1093.14      2799.06     3533.572     90.39051     181.3595     362.5385      2.606     9.05     1176.201     63.96694     119.4135        23     1.690     1.354 -62.56   0
       372    665.1331     80.1280 307.6577381  +6.6403389     3130.223     8321.479     9671.298     90.96809     181.6481     362.9356      2.573     6.64     1152.826     63.96694     292.2985        49     1.970     1.613 -43.33   0
       373    617.4952     77.5278 307.6776500  +6.6398273     4889.712      12277.9     14660.38     90.82404      181.576     362.8995      2.587     6.09     1153.641     63.96694     508.9633        51     1.908     1.650 -39.26   3
       374    620.8285     69.0562 307.6765494  +6.6434377      26063.9      68187.2     82817.58     90.53526      181.576     362.7912      2.599     6.01     1153.439     63.96694     2627.509       108     2.284     1.881 -49.71   3
       375    344.6162     73.5541 307.7913376  +6.6323705     1872.692     5448.827     7348.905     90.39052     181.3595     362.6469      2.875     8.13     1167.015     63.96694     203.8662        44     2.084     1.554 -56.78   0
       376    526.6956     74.1876 307.7155479  +6.6381825     675.8998     1575.289     1890.091     90.67976     181.2151     362.6469      2.188     3.97     1154.231     63.96694     93.15662         6     1.244     0.363 -29.17   0
       377    525.0783     71.7926 307.7163020  +6.6391179     606.8917      1518.36      2123.37     90.53526     180.9258     362.6469      2.645     4.35     1154.269     63.96694     99.02832         5     1.021     0.528 -34.23   0
       378    300.9563     63.3432 307.8098519  +6.6351302     1887.474     4295.352      5683.86     90.82404     181.5039     362.8995      2.534     8.36     1171.705     63.96694     206.4744        35     2.047     1.440 -20.77   2
       379    299.0101     60.6784 307.8107522  +6.6361659     876.2443     1587.808     1976.088     90.53526     181.1428     362.7191      1.575     3.37     1171.985     63.96694     141.2042         5     0.822     0.399  23.79   3
       380    670.9549     56.9875 307.6560978  +6.6500914      716.702     1524.878     1362.886     90.39052     181.2873     362.6107      2.320     5.28     1151.635     63.96694     90.74744         7     1.056     0.746  -0.94   0
       381    276.7942   1012.4840 307.7877145  +6.2422581     1070.036     1985.033     1976.214     90.39052     181.1428     362.6469      2.014     6.44     1205.711     63.96694     140.6461        14     1.269     1.118 -59.74   0
       382    685.3078     53.0869 307.6502568  +6.6521802     1717.436     4191.879     4524.336     90.96809     182.0081     363.0077      2.380     7.21     1151.164     63.96694     179.3994        34     1.788     1.443 -36.68   0
       383    428.1229     44.7690 307.7575640  +6.6470477     1897.044     4074.147     4994.661     90.82404      181.576     362.8995      2.309     8.20     1159.302     63.96694     208.4404        30     2.148     1.218 -49.91   2
       384    425.2206     42.8166 307.7588379  +6.6477574     1207.896     1914.621     2511.655     90.67976     181.2873     362.7912      1.846     5.42     1159.656     63.96694     162.6721        13     1.482     0.679 -62.72   3
       385    899.2916     39.1118 307.5616781  +6.6650646      2221.76     5054.179     6068.649     90.96809     182.0081     363.0438      2.453     5.43     1145.267     63.96694     250.8997        36     1.634     1.453 -68.39   0
       386    881.5563     40.0263 307.5690280  +6.6640981     1549.476     3116.656     3454.663     90.53526      181.576     362.7912      2.061     6.49      1145.66     63.96694     167.8558        20     1.275     1.271  14.64   0
       387    591.8079     38.8865 307.6896469  +6.6549337     762.0403     1715.694      1958.45     90.53526     181.1428      362.683      2.258     7.41     1153.645     63.96694     99.05164        13     2.048     0.751 -47.72   0
       388    390.7401     36.4753 307.7734015  +6.6492262     906.4363     2245.391     2928.935     91.25552     181.5039     362.8634      2.715     8.40     1163.265     63.96694     117.0829        15     1.868     1.056 -22.33   0
       389    138.4609     33.1530 307.8784950  +6.6421679     1476.896       3820.8     4955.067     90.82404     181.4317     362.9716      2.627     8.16     1175.022     63.96694     183.7639        30     1.617     1.477 -28.01   0
       390     20.3122     31.0019 307.9277318  +6.6391006     6283.207     16410.34     20608.67     90.10033     181.0705     362.5746      2.665     6.08     1182.285     63.96694      751.442        67     2.177     1.692 -52.77   0
       391    821.8945     25.0115 307.5943638  +6.6683188     3631.464     8135.327     9629.327     90.67976     181.1428     362.6469      2.327     5.23     1145.475     63.96694     399.9044        47     1.825     1.527 -43.91   0
       392    766.8637     25.5703 307.6172468  +6.6662591     1887.907     4614.971      5168.53     90.67976     181.5039     362.8273      2.404     6.76     1147.557     63.96694     211.9242        34     1.659     1.528 -85.47   0
       393    530.4172     24.9064 307.7156678  +6.6586632     574.2664     1178.008     1658.349     90.67976     181.2873     362.7552      2.398     4.38     1154.224     63.96694     104.8119         5     1.150     0.475  82.68   0
       394    699.8987   1010.0866 307.6118609  +6.2573428     3711.439     6566.279       7190.5     90.96809     182.0081     362.9716      1.922     4.43     1205.553     63.96694     428.3711        32     1.616     1.139 -43.15   0
       395      1.9044   1009.4007 307.9021173  +6.2343433     8136.379     11640.74     11815.22      85.7825     153.2646     283.3093      1.523     3.88     1199.996     63.96694     1092.431        27     1.514     0.898 -87.64  24
       396    609.4659   1008.4604 307.6495203  +6.2550070     1405.249     2210.187     2122.062     90.96809     181.4317     362.8995      1.717     5.72     1205.072     63.96694     186.5898        16     1.432     0.831 -32.32   0
       397    230.0318   1007.1336 307.8073399  +6.2429068      967.817     1743.129      1140.92     90.82404      181.576     362.8273      1.739     5.72     1205.892     63.96694     132.5171        10     1.519     0.608 -64.63   0
       398    794.8475    999.0031 307.5727519  +6.2650762     12061.17     20587.52      21745.4     90.24554     181.2151     362.4301      1.803     3.92     1202.365     63.96694      1444.66        47     1.685     1.171 -47.17   0
       399     65.6417    999.7969 307.8759422  +6.2404430     6054.158     11175.34     12127.13     90.24554     181.1428     362.5746      1.972     4.34     1202.307     63.96694     614.0276        37     1.572     1.275 -59.23   0
