#   1 NUMBER                 Running object number                                     
#   2 X_IMAGE                Object position along x                                    [pixel]
#   3 Y_IMAGE                Object position along y                                    [pixel]
#   4 ALPHA_J2000            Right ascension of barycenter (J2000)                      [deg]
#   5 DELTA_J2000            Declination of barycenter (J2000)                          [deg]
#   6 FLUX_APER              Flux vector within fixed circular aperture(s)              [count]
#   9 FLUXERR_APER           RMS error vector for aperture flux(es)                     [count]
#  12 FLUX_RADIUS            Fraction-of-light radii                                    [pixel]
#  13 FWHM_IMAGE             FWHM assuming a gaussian core                              [pixel]
#  14 BACKGROUND             Background at centroid position                            [count]
#  15 THRESHOLD              Detection threshold above background                       [count]
#  16 FLUX_MAX               Peak flux above background                                 [count]
#  17 ISOAREA_IMAGE          Isophotal area above Analysis threshold                    [pixel**2]
#  18 A_IMAGE                Profile RMS along major axis                               [pixel]
#  19 B_IMAGE                Profile RMS along minor axis                               [pixel]
#  20 THETA_IMAGE            Position angle (CCW/x)                                     [deg]
#  21 FLAGS                  Extraction flags                                          
         1    755.5339     25.0416 307.6276112  +6.7122731     1765.447      3861.63     5799.675     94.89323     189.2602     378.6333      2.700     9.68     1253.678     66.72701     208.9158        31     2.272     1.150  53.50   3
         2    758.1425     22.4998 307.6266122  +6.7134092     1445.185     3707.085     6434.055     94.59245     189.3355     378.8214      3.526     9.24     1253.534     66.72701      193.554        25     2.189     1.088  51.07   3
         3    245.9062     18.4703 307.8401862  +6.6980636     3077.478     7232.889     10113.76     94.89323     189.4107      378.558      2.815    11.93     1286.457     66.72701     339.0017        53     3.025     1.444  29.67  19
         4     18.8632     17.1910 307.9348276  +6.6910231      4991.43      20019.3     29111.98     94.29072     189.1096     378.3322      3.315     8.79     1289.808     66.72701     685.4392        96     2.534     2.328  47.68   0
         5    242.7822     21.5566 307.8413805  +6.6966850     2945.291      6637.87     8345.748     94.29073     189.1849     378.2568      2.396     7.52     1286.419     66.72701     340.2065        31     2.249     0.947  30.58   3
         6    492.6564      6.3242 307.7377957  +6.7112850     1712.372     3343.255     4143.022     94.89323     189.2602     362.6415      1.969     5.83     1263.413     66.72701     194.6095        14     1.397     0.718  55.23  19
         7    493.1222     10.4257 307.7374593  +6.7096066     2360.634     4729.048     6329.069     94.59245     189.2602     378.5204      2.271     6.99     1263.213     66.72701     281.2726        32     2.161     0.993  43.80  19
         8    496.6434      7.9269 307.7360788  +6.7107555     2260.586     5049.492     6853.652     94.74296     189.4107     376.3687      2.534     8.00     1263.026     66.72701     277.7302        30     2.013     1.055  66.73  19
         9    200.0413      1.5002 307.8598865  +6.7035442     1614.399     2141.606     2412.896     85.07629     153.4199     288.3101      1.426     5.40     1286.027     66.72701      233.823        11     1.305     0.630  31.10  27
        10    201.2653      6.4977 307.8592026  +6.7015211     2646.338       6325.9     7397.567     94.89323     189.4107     364.6007      2.507     9.26     1286.104     66.72701     296.8546        41     2.383     1.269  27.92  19
        11    204.4483      3.4281 307.8579832  +6.7028948     2796.681     5232.024     5766.815     94.44171     181.7328     322.9036      1.920     6.16     1286.044     66.72701     305.5419        22     1.623     0.918  52.66  19
        12    804.3384      5.8840 307.6079379  +6.7218008     719.0416     1787.926     2645.479     95.04325     189.3355     357.8559      1.861     4.19     1251.646     66.72701       120.83         6     1.682     0.298  -4.04  16
        13    339.9588      2.3701 307.8015578  +6.7078426     904.6384     1920.185     3189.764     93.98802     167.7066     304.4624      3.945     5.64     1282.628     66.72701     134.7288        11     1.486     0.603   9.26  24
        14    662.9088    969.2545 307.6335230  +6.3192487     1294.994     3086.872     4362.608     94.74296     189.1849     378.7086      2.804     8.23     1315.033     66.72701     181.1169        27     1.978     1.343  35.76   0
        15    923.0969   1022.1570 307.5233633  +6.3060073     1361.654     2534.668     2243.889     94.89323     174.5342     313.3187      1.910     6.02     1314.945     66.72701     168.6942        20     1.472     1.038  25.38  24
        16     59.4343    965.8911 307.8848946  +6.3005871     1349.255     3508.634     4525.899     95.04325     189.1849      378.558      2.709     7.57     1313.246     66.72701     200.3049        26     1.851     1.450  75.88   0
        17    204.5451    964.4584 307.8245299  +6.3060111     904.5116     1981.183      2323.24     95.04326     189.4107     378.5957      2.365     6.12     1315.469     66.72701     130.3877        12     1.528     0.689  35.38   2
        18     75.5228    966.9611 307.8781592  +6.3006813     649.8138     1216.553     1612.801     94.74296     189.4107      378.558      2.232     4.10     1313.397     66.72701     99.95215         5     1.111     0.433  26.61   0
        19    940.1634    965.6015 307.5182084  +6.3299289     708.3073     1051.714     1321.674      93.8363     189.1096     378.2945      1.804     4.99     1311.365     66.72701     122.0403         6     1.115     0.633  85.39   0
        20     77.4968    964.2862 307.8774305  +6.3018517     917.8921     1681.654     2512.281     94.89323     189.7865     378.5957      2.724     5.19     1313.378     66.72701     140.9955        10     1.291     0.589  42.34   0
        21    657.0834    958.6252 307.6363161  +6.3234456      3311.84     9132.906     11009.16     94.89323     189.0342     378.5204      2.657     6.51     1314.557     66.72701     374.9609        58     1.980     1.878  42.25   0
        22    894.8526    953.2141 307.5375022  +6.3335479      1512.09     3370.299     3689.337      94.1395     189.2602     378.2568      2.351     6.44     1311.117     66.72701      211.119        20     1.640     1.035  54.02   2
        23     17.3486    957.2320 307.9027173  +6.3027603      713.754     1465.356     2268.445     94.74296     189.4107     378.4828      2.461     5.07     1312.866     66.72701     120.8137         6     1.164     0.625 -68.68   0
        24    340.3910    952.1973 307.7683969  +6.3155923     6223.941      19510.9     25206.38      94.1395     188.9588     378.3322      2.898     6.89     1316.522     66.72701     778.6753        83     2.268     2.002  40.55   0
        25     76.3035    952.7906 307.8783271  +6.3065594     475.9523     1441.857     1692.812     94.59245     188.8834     378.3322      2.153     4.30     1313.272     66.72701     92.46436         6     1.726     0.305  51.06   0
        26    212.7777    951.0277 307.8215690  +6.3118317     516.1776     1373.611     1525.617     94.29072     189.1096     378.4828      2.531     3.82     1315.371     66.72701     99.59473         5     1.262     0.332  25.84   0
        27    104.6824    941.0959 307.8669187  +6.3123346     693.0064     1621.901     2209.457     94.74296     189.7864     378.6709      2.705     8.02     1313.473     66.72701     119.5658         9     1.808     0.994   4.48   0
        28    884.9686    936.0330 307.5422107  +6.3403171      979.935     2185.072     2707.776     94.29072     189.0342     378.2568      2.543     5.80      1310.51     66.72701      128.905        12     1.209     0.901 -42.19   0
        29    856.6564    935.3024 307.5540247  +6.3396829     909.2855     1974.981     2159.617     94.74296     189.3355     378.8214      2.197     6.02      1311.01     66.72701     101.8496        12     1.408     0.723  69.46   0
        30    819.0149    934.9946 307.5697087  +6.3385652     1460.715     3766.453      4531.54      94.4417     188.9588     378.3698      2.603     8.21     1311.393     66.72701     168.7095        26     1.592     1.394 -12.08   0
        31     87.4804    936.2569 307.8742489  +6.3137599     1214.512     2794.431     2852.386     95.04325     189.3355      378.558      2.161     8.18     1313.181     66.72701     143.8452        18     1.756     1.065 -10.15   0
        32    555.3226    927.1564 307.6797754  +6.3330693     133991.3     405040.2     506415.5     94.74296     189.3355     378.5957      2.817     6.83     1314.496     66.72701     14757.14       187     2.385     2.124  43.31   0
        33    398.1817    931.5892 307.7450501  +6.3260233     1991.215     3658.443     4880.161     94.44171     188.9588     378.4074      2.169     7.74     1316.429     66.72701     236.0079        22     1.994     0.840  50.96   3
        34    400.1833    928.8155 307.7443130  +6.3272353     3114.614     7070.231     8952.937     94.59245     188.9588     378.4828      2.528     7.50     1316.414     66.72701     346.4796        38     2.309     1.219  43.34   3
        35    341.4849    929.9694 307.7687126  +6.3248086     3319.131     6454.336     8577.611     94.89323     189.1096     378.4074      2.212     5.44     1316.232     66.72701     379.5814        22     1.769     0.864  48.19   3
        36    343.6455    927.3046 307.7679055  +6.3259809     5300.192     11843.37     15620.31     94.89323     189.2602     378.7086      2.606     7.06     1316.195     66.72701     569.4155        52     2.417     1.297  39.08   3
        37    661.2136    924.0704 307.6357917  +6.3378536      1466.74      4203.64     4736.442     94.29072     189.1096     378.4074      2.598     8.72     1312.703     66.72701      184.131        33     1.913     1.583  25.76   0
        38    893.3332    922.9633 307.5391789  +6.3459914      2860.92     7220.016     8482.087     94.74296     189.2602     378.6333      2.466     5.99     1309.608     66.72701      318.528        46     1.793     1.688  68.52   0
        39    634.5754    919.7849 307.6470316  +6.3387409     1118.806     2205.028     3317.591     94.59245     189.1096     378.4828      3.242     7.05     1312.848     66.72701      141.642        19     1.645     0.894  54.49   3
        40    636.8443    917.1176 307.6461791  +6.3399177     1286.802     2379.765     3758.799     94.89323     189.3355     378.5204      2.988     7.72      1312.72     66.72701     195.6075        18     2.019     0.826  34.73   3
        41    824.6251    916.4680 307.5680125  +6.3464023     893.6226     2058.915     2760.023     94.44171     189.1849     378.4451      2.519     5.90      1310.11     66.72701     114.0632         8     1.248     0.785  39.54   0
        42    629.2524    914.3502 307.6494360  +6.3408090     954.1923     2893.217     5049.634     95.04325     189.1849      378.558      3.758     9.82     1312.719     66.72701     128.4761        18     2.003     1.342 -38.56   0
        43    912.3016    910.7579 307.5317019  +6.3516591     1587.839     4110.195     4120.527     94.89323     189.1849     378.8214      2.524     7.95     1308.481     66.72701     183.4447        31     1.721     1.520  40.54   0
        44    370.9620    906.4603 307.7572550  +6.3354971     1096.305      3036.68     4306.676     94.89323     189.4107      378.558      2.996     7.44     1315.939     66.72701     172.9764        22     1.887     1.492  37.17   0
        45    505.0603    898.1957 307.7017065  +6.3433627     899.9033     1815.983     2457.886     94.13949     189.1849     378.2945      2.176     5.10     1314.941     66.72701     116.1495         8     1.234     0.597  68.07   2
        46    508.3799    896.0328 307.7003992  +6.3443661     1268.332     2743.259     3490.911     94.29072     189.1096     378.3322      2.448     6.84     1314.798     66.72701     172.8531        16     1.706     0.769  46.76   2
        47    553.8006    893.0889 307.6815888  +6.3470886     2279.871      7533.58     10442.82     93.98802     188.7325     378.1815      3.143     7.76     1313.472     66.72701     267.5752        61     2.202     1.894  30.08   0
        48    470.2117    892.2729 307.7164220  +6.3446523     721.6929     1822.097     2366.383     94.29072     188.8834     378.3322      2.800     5.20     1315.461     66.72701     97.56958         7     1.088     0.703 -58.51   0
        49    524.4981    886.8471 307.6940061  +6.3486945     7213.374     22649.37     29177.07     94.89323     189.2602     378.7838      2.897     7.13     1314.073     66.72701     836.4709        84     2.287     2.026  44.77   0
        50    938.0233    884.8027 307.5218869  +6.3632286     1928.552     5029.376     5417.589      94.4417     188.9588     378.3322      2.443     7.22     1306.548     66.72701     205.1799        38     1.797     1.564  41.53   0
        51    315.9008    877.5857 307.7811829  +6.3455921      910.104     1552.248     2401.796     94.74296     189.0342     378.2191      2.012     5.26     1315.492     66.72701     110.3817        10     1.113     0.701  35.00   3
        52    317.7873    874.7557 307.7804956  +6.3468236     1075.982     2417.481     3630.353     94.29072     189.1096     378.2568      2.882     8.37     1315.459     66.72701     187.0432        20     2.230     0.877  28.35   2
        53    782.4352    871.2131 307.5871435  +6.3636971     23966.99     68513.13     82549.97     94.29073     189.1096     378.3698      2.692     6.44     1307.476     66.72701     2501.565       106     2.222     1.963  43.50   0
        54     19.2688    874.7394 307.9047890  +6.3368920     968.4435     2166.804     3084.074     95.04325     189.2602      378.558      3.099     5.43       1312.8     66.72701     124.3492         7     1.016     0.819  63.75   2
        55    238.3051    871.6454 307.8136979  +6.3454649     1310.282     2407.524     3886.835     94.74296     189.2602     378.7086      2.234     5.36     1314.982     66.72701     175.2755        11     1.403     0.579  41.29   3
        56    240.5440    868.5650 307.8128727  +6.3468115     2156.467     5764.954     9480.537     94.74296     189.3355     378.5957      3.883     9.32     1314.978     66.72701     225.6837        52     2.535     1.630  50.51   3
        57    705.6500    863.0181 307.6194003  +6.3645399      31210.8     103300.5     157921.1     94.29072     189.4107     378.2945      3.402    10.10     1308.781     66.72701      3704.26       181     3.639     2.078  30.54   0
        58    907.5326    866.1952 307.5352255  +6.3699062     4234.925      11004.4     13426.41     94.29073     188.9588     378.3322      2.610     6.07     1305.939     66.72701     463.2662        56     1.972     1.735  50.38   3
        59    904.4941    857.4273 307.5367934  +6.3734269     3552.383     8806.812     10042.72     95.04326     189.0342     378.3698      2.461     5.90     1305.425     66.72701     384.6299        49     1.901     1.662  24.26   3
        60    347.9902    865.4909 307.7682413  +6.3516538     5217.234     9930.167     11393.07     94.59245     188.9588     378.2568      2.011     6.13      1315.49     66.72701     579.1874        27     1.988     0.858  37.78   3
        61    350.4029    862.5682 307.7673381  +6.3529410     8165.544     18746.46     23951.79     93.98802     189.1096     378.2945      2.540     7.59     1315.378     66.72701     889.8896        62     2.557     1.382  34.39   3
        62    409.7743    863.0016 307.7426018  +6.3547345     5960.399     12109.61     14285.51      94.4417     188.9588     378.2945      2.149     5.96     1314.731     66.72701     658.6124        30     1.879     1.001  41.77   3
        63    412.0775    860.1194 307.7417427  +6.3560013     8569.572     18810.62     23969.74     95.19305     189.6362     378.7462      2.476     7.22     1314.528     66.72701     909.9198        60     2.616     1.309  37.18   3
        64    947.9273    859.7195 307.5186282  +6.3739153     1230.839     2984.586     3442.615     95.19305     189.6362     378.5957      2.480     8.25     1304.781     66.72701     154.2067        18     1.598     1.192  67.66   0
        65    237.9688    849.9827 307.8145904  +6.3544001     584387.9      1189588      1340344      94.4417     189.1096     378.4074      2.169     8.20     1314.509     66.72701     63898.43       130     2.193     1.254  44.90   7
        66    240.3731    847.0830 307.8136901  +6.3556776     718691.1      1790354      2316600     94.74296     189.0342     378.4828      2.715    10.57     1314.432     66.72701     63650.27       382     3.014     1.663  39.34   7
        67    643.9736    858.4915 307.6452390  +6.3643665     2047.747      3980.01     5744.506     95.04325     189.0342     378.3698      2.294     6.50     1310.246     66.72701     226.6637        17     1.642     0.837  41.02   3
        68    646.3268    856.1482 307.6443403  +6.3654122     2529.594     5545.219     7103.632     94.89323     189.4107     378.5957      2.409     8.13     1310.048     66.72701      285.973        35     2.212     1.129  31.56   3
        69    412.5828    845.7778 307.7420297  +6.3619410     13692.18     24867.87     28354.67     94.59245     189.1849     378.4828      1.976     5.86     1313.676     66.72701     1507.137        35     1.881     1.021  47.11   3
        70    415.0964    842.9158 307.7410822  +6.3632066     20106.02     46915.93     59774.08     94.89323     189.7864     378.6333      2.596     7.39     1313.475     66.72701     2138.136        84     2.691     1.497  38.32   3
        71    288.5521    848.9685 307.7935637  +6.3565014     1340.842     1289.474     1656.704     94.59245     189.3355     378.4451      0.871     2.83     1314.702     66.72701     433.0255         5     0.772     0.387 -62.10   0
        72    682.3621    846.6890 307.6296623  +6.3705126      972.535     2196.327     2737.936     94.89323     189.2602     378.5957      2.491     4.84     1308.309     66.72701     142.7133        10     1.129     0.661  70.22   2
        73    531.8555    843.0032 307.6924612  +6.3670459     2219.261     7669.332     10219.47      94.1395     189.1096     378.1815      3.049     8.90     1311.794     66.72701     260.9391        59     2.229     1.934  51.41   0
        74    448.2633    840.9998 307.7273382  +6.3650992      1689.45     5354.249      9074.72     93.98802     189.0342     378.2191      3.854     9.96     1313.061     66.72701     246.9097        53     2.446     1.799  56.88   2
        75    776.8936    839.3119 307.5905535  +6.3766890     4851.462     14153.06     17556.63     94.89323     189.8615     378.6333      2.761     6.89     1305.735     66.72701     514.2661        65     2.080     1.888  42.06   0
        76    144.4318    831.2358 307.8541887  +6.3590288     1282.464     3166.813     4437.929     94.44171     189.0342     378.2568      2.869     9.49      1311.65     66.72701     148.7527        27     2.114     1.388  46.80   3
        77    135.9671    830.9247 307.8577240  +6.3588753     4770.467     10918.33        16472     94.74296     189.3355     378.4828      3.986    14.21      1311.47     66.72701     521.6466        83     4.725     1.507  24.43   3
        78    133.0275    833.2021 307.8588689  +6.3578369     2854.633     6724.612     9890.137     94.29072     189.0342     378.3322      3.088     8.64     1311.525     66.72701      313.197        32     2.585     0.984  36.07   3
        79    922.6228    827.5272 307.5302762  +6.3863749     3223.139     8249.242     9282.354     94.44171     189.1096     378.5204      2.504     6.20     1303.634     66.72701     353.9177        52     1.913     1.754  51.52   2
        80    916.7291    819.8246 307.5329963  +6.3893614     1496.145     3940.146     4773.665      94.4417     189.1849     378.4828      2.652     8.45     1303.198     66.72701     190.6516        32     2.056     1.335  29.81   3
        81    970.6263    828.9256 307.5102381  +6.3873831      770.248     1706.667     2665.497      94.4417     189.2602     378.5204      2.639     5.86     1302.471     66.72701     139.6371         8     1.398     0.872  25.98   0
        82    564.7441    824.0709 307.6794220  +6.3759558     887.5118     2305.186     2797.873     94.89323     189.2602     378.5204      2.739     9.06     1310.015     66.72701     138.8606        17     1.999     1.146  -4.52   0
        83    977.6506    818.3224 307.5076788  +6.3919943     1022.728     2757.379     3197.095     94.89323     189.4107     378.5204      2.724     9.16     1301.814     66.72701      128.525        17     1.928     1.214  39.28   2
        84    946.0776    819.0439 307.5208018  +6.3906535     1488.122     4049.633     4294.991     94.74296     189.3355      378.558      2.575     8.88     1302.633     66.72701       151.27        30     1.675     1.519  32.39   0
        85    960.3221    809.3481 307.5152044  +6.3951284     708.7712     1298.817     1706.458     94.89323     189.4107      378.558      1.538     3.46     1301.805     66.72701     129.2118         5     0.731     0.472  78.17   3
        86    961.3812    805.9911 307.5148792  +6.3965499     1239.222     2572.938     2879.781     94.59245     188.9588     378.3322      2.131     7.72     1301.639     66.72701     136.8109        18     1.443     1.155  23.48   2
        87   1003.3735    799.9076 307.4976020  +6.4004491     888.2463     2216.834     2757.359     95.04325     189.0342     378.3698      2.673     7.42     1300.627     66.72701      127.073        12     1.509     1.020   4.27   0
        88    890.8069    795.7673 307.5446214  +6.3984405     701.1011      1547.48     2417.133     94.13949     189.1849     378.3322      3.093     4.38     1302.071     66.72701     86.51331         5     0.755     0.722 -45.44   0
        89     47.6896    786.4937 307.8960268  +6.3742831     996.9601     2632.166     3494.154     94.89323     189.9365     378.6333      2.895     8.71     1307.639     66.72701     147.8026        18     2.054     1.031  47.68   0
        90    845.7358    787.2980 307.5636829  +6.4004482     685.5032     1450.225     1576.123     94.89323     189.4107     378.5957      2.006     5.25     1302.039     66.72701     103.4095         5     1.208     0.644 -68.54   0
        91    659.2179    775.2908 307.6417699  +6.3992334     1995.151     7085.417     9789.457     94.59245     189.0342     378.4451      3.119    10.16     1303.695     66.72701     247.2068        57     2.287     1.863  41.46   0
        92    123.4890    770.7986 307.8650107  +6.3832908      1544.92     3825.709     5543.361     93.98802      188.808     378.2945      2.959     9.56     1308.375     66.72701     220.2538        34     2.146     1.680  46.85   2
        93    995.6892    772.2547 307.5017557  +6.4116162     670.7948     986.1641     1179.343     94.89323     189.1849     378.7086      1.777     3.19     1299.441     66.72701       150.71         5     0.925     0.381   5.19   3
        94    995.9053    769.3823 307.5017648  +6.4128097     1343.611     2503.592     2838.571     94.74296     189.1096     378.3698      2.087     6.75     1299.301     66.72701     169.7527        15     1.536     0.895  33.94   2
        95    775.9384    767.3895 307.5934369  +6.4063615     7574.135     23842.83     30618.75     94.13949     189.1096     378.2945      2.903     7.12     1301.236     66.72701     772.6785        84     2.254     2.024  46.25   0
        96    633.0707    770.1063 307.6528377  +6.4005082     746.5581     2057.975     2955.974     94.89323     189.4107      378.558      2.904     5.64     1304.505     66.72701     112.2925         8     1.221     0.734 -19.55   2
        97    905.6347    766.8841 307.5394436  +6.4108594     1624.011     4502.053     5050.087     94.89323     189.2602     378.5204      2.558     7.63     1300.437     66.72701     194.7383        34     1.792     1.539  76.69   0
        98    249.6047    761.3388 307.8128245  +6.3913960     1885.753     6809.292     8987.936      94.1395     189.1096     378.2945      3.096     9.16     1310.333     66.72701     272.1641        56     2.087     2.025  -3.56   0
        99    655.3010    761.6684 307.6438723  +6.4047296     2420.136     5229.628     6829.906     94.89323     189.4859      378.558      2.349     6.89     1303.028     66.72701      276.373        23     1.806     0.919  33.88   3
       100    657.6178    759.0059 307.6429997  +6.4059060     2439.728     5544.024     7286.804      94.4417     188.8834     378.3698      2.464     8.95     1302.708     66.72701     261.2997        35     2.300     1.137  28.98   3
       101    727.3486    748.6419 307.6143196  +6.4124959     1286.567     4087.697     5356.104     94.89323     189.3355      378.558      3.020    10.22     1300.246     66.72701     165.0946        31     1.849     1.575  62.65   2
       102    994.3658    744.8779 307.5032510  +6.4228794     4387.672     11391.71     13462.77     94.74296     189.3355     378.5204      2.582     6.11     1298.211     66.72701     431.4631        56     1.923     1.736  61.55   0
       103    932.7997    745.5337 307.5288677  +6.4205750     1171.987      3123.32     3592.759     93.98802     188.7325     378.2568      2.566     8.31     1299.177     66.72701     138.3251        22     1.742     1.290 -78.33   0
       104     70.8379    742.5674 307.8879167  +6.3931954     6304.526     14382.11     16502.46      94.4417     189.0342     378.2945      2.363     7.47     1307.407     66.72701     639.1677        36     2.247     1.027  41.28   3
       105     73.0143    739.5959 307.8871138  +6.3944951     9533.816     21738.43     27522.84      94.4417     188.9588     378.4074      2.530     7.58     1307.369     66.72701     1172.915        57     2.582     1.238  42.38   3
       106     14.3991    744.0632 307.9113657  +6.3906961     895.3947     2028.969     3146.868     93.98802     189.1096     378.2568      2.339     5.00     1307.326     66.72701     147.9397         9     1.265     0.560  22.20   0
       107    531.5398    741.1589 307.6961207  +6.4090968     683.4487     1716.896     2200.129     94.89323     189.3355     378.6709      2.633     6.76     1303.827     66.72701     99.83606         9     1.574     0.814 -80.83   0
       108    718.1055    732.0686 307.6187420  +6.4190346     1369.867     4055.262     5463.096     94.74296     189.4859     378.5957      2.970    10.46     1299.406     66.72701     153.0035        31     1.927     1.583 -83.99   0
       109    738.8149    732.3983 307.6101062  +6.4195842      1386.56     2593.389     3066.581     94.44171     188.9588     378.2945      1.885     5.05      1298.96     66.72701     185.5392        14     1.204     0.816  72.90   3
       110    739.9243    728.4963 307.6097792  +6.4212324     1361.701     3285.365     4707.484      94.4417     189.4859     378.6333      2.637     9.00     1298.828     66.72701     173.2322        24     2.033     1.113  29.42   2
       111    569.4818    730.8364 307.6806779  +6.4146184     669.1696     1405.854     1863.626     94.89323     189.3355     378.5204      1.697     4.28     1302.813     66.72701     119.5426         5     1.515     0.344  62.69   2
       112    572.4791    728.0248 307.6795270  +6.4158790      1292.55     3249.133     4231.624     94.59245     189.1849      378.558      2.834     8.09     1302.649     66.72701      164.801        24     1.858     1.352  34.62   2
       113   1012.5397    726.2958 307.4963232  +6.4311539     2523.347     6212.067     6968.543     94.59245     189.3355     378.6709      2.430     6.69     1297.007     66.72701     272.9231        35     1.618     1.577  87.26   0
       114    978.1060    725.2427 307.5106998  +6.4304519     3833.549        10280     12223.47     94.89323     189.2602     378.7086      2.583     6.45     1297.375     66.72701     380.5649        57     1.958     1.802  37.15   0
       115    135.3581    721.4952 307.8617830  +6.4040476      5776.67     12327.06     14698.59     94.89323     189.2602     378.7086      2.283     7.36     1306.481     66.72701     634.0129        38     2.267     1.025  39.43   3
       116    137.9880    718.3692 307.8607966  +6.4054262     8587.552     19649.92     24916.18     94.29072     189.0342     378.4451      2.554     7.64     1306.326     66.72701     1010.335        56     2.649     1.295  37.00   3
       117    425.4429    719.3657 307.7410585  +6.4145754     1018.274     2723.188     4475.688     94.59245     189.3355     378.3322      3.100     8.34     1306.441     66.72701     164.9436        12     1.901     1.023  52.38   2
       118    973.0391    708.2106 307.5133975  +6.4373189     3071.206     8730.531     10695.18     94.13949     189.1096     378.2568      2.697     6.86     1296.427     66.72701     308.9266        56     2.085     1.732  51.51   0
       119    565.0131    705.9758 307.6833999  +6.4247376     12610.19      23799.6     26439.59     94.59245     189.1096     378.4828      2.087     6.57     1301.591     66.72701     1529.627        42     2.148     0.988  39.00   3
       120    567.5207    702.6982 307.6824691  +6.4261744     16039.56     38818.66     49938.82     94.74296     189.7865     378.5957      2.677     7.95     1301.401     66.72701      2006.73        78     2.706     1.411  37.31   3
       121    172.7281    701.4226 307.8469194  +6.4135818     641.1691     2019.915     3014.367     94.44171     189.1096      378.558      3.041     9.63      1305.58     66.72701     125.8644         9     2.373     1.090 -77.23   2
       122    176.8400    700.4645 307.8452404  +6.4141144     909.3434     1755.965      2938.07     94.89323     189.2602     378.6709      2.588     5.57      1305.56     66.72701     123.8748        10     1.312     0.665  54.23   2
       123   1023.7938    702.5940 307.4924536  +6.4413145     1485.264     2637.675     3465.251     79.89428     147.9355     282.1661      1.985     5.31     1295.778     66.72701     385.2682        13     1.993     0.404  89.21  24
       124    462.6570    689.9752 307.7265802  +6.4279493     15189.16     31064.93     35289.55      94.4417     189.3355     378.3322      2.204     6.87     1303.164     66.72701     1794.682        48     2.289     1.034  34.04   3
       125    464.8330    686.4628 307.7257958  +6.4294721     20153.08     50138.41     64716.82     94.59245     189.4107     378.5204      2.687     8.40     1302.905     66.72701     2158.813        82     2.737     1.433  32.06   3
       126      9.5718    689.7434 307.9152672  +6.4129679     745.8453     1679.266     2438.758     94.44171     189.4107     378.4451      2.289     2.94     1304.795     66.72701      118.176         5     0.706     0.479  76.17   0
       127    140.6378    682.5846 307.8609376  +6.4202929     646.1329     1428.016     2522.905     94.59245     189.1096     378.2568      2.699     4.20     1304.505     66.72701     94.23999         5     1.053     0.478  87.03   0
       128    308.2563    678.8176 307.7912665  +6.4274271     751.2322      2015.94     2707.493     94.29072     189.2602     378.2568      2.967     3.10     1304.477     66.72701     111.2795         5     0.818     0.638 -50.92   0
       129    734.2797    672.9243 307.6140515  +6.4439968      1315.48     2441.771     3577.548     95.19305     189.6362     378.7086      1.881     5.03     1297.078     66.72701     224.1959        10     1.493     0.478  50.08   3
       130    736.1445    669.6101 307.6133894  +6.4454273     1850.044     4581.398     6601.998      94.1395     189.2602     378.1815      3.004    10.47     1296.846     66.72701     204.5518        44     2.418     1.725  54.19   2
       131    789.4069    666.3458 307.5913201  +6.4485385     4705.128     15784.41     19759.92     94.29073     189.0342     378.2191      2.917     7.76     1295.795     66.72701     536.4009        75     2.254     2.035  46.81   0
       132    612.8248    663.7177 307.6649517  +6.4437754     996.3726     2808.042     3555.025     94.59245     189.0342     378.5204      2.895     8.96      1297.99     66.72701     137.1398        17     1.762     1.271 -58.33   0
       133    865.7074    648.5063 307.5601592  +6.4584301     1020.654     2976.875     3832.437     94.89323     189.9365      378.558      2.919     8.81     1292.661     66.72701     156.6986        15     1.615     1.446   9.69   2
       134    823.2112    649.2167 307.5778334  +6.4567313     792.6004     1404.923     2779.945     94.59245     188.9588     378.4451      2.338     4.97     1293.827     66.72701     135.8899         6     1.179     0.593  60.50   0
       135    823.8868    645.6770 307.5776743  +6.4582155     842.7505     2071.514     2768.437     94.89323     189.7113     378.7086      2.949     6.08     1293.587     66.72701      134.832         9     1.773     0.586  17.21   0
       136    250.9203    644.6088 307.8163319  +6.4396477     2041.969     4120.181     5609.697      94.4417     188.8834     378.3698      2.158     7.35     1302.676     66.72701     205.3071        28     1.972     1.030  32.51   3
       137    253.4437    641.2965 307.8153961  +6.4410996     2581.656     6011.265     7216.054     94.89323     189.2602     378.7462      2.508     8.79     1302.456     66.72701      266.452        40     2.519     1.142  31.37   3
       138    804.7883    638.2809 307.5858841  +6.4606383     51654.45     178786.8     236261.8      94.4417     189.0342     378.3698      3.027     7.70     1293.555     66.72701     5628.774       169     2.513     2.359   9.72   0
       139    185.2349    639.1570 307.8438758  +6.4397129     13902.86     30178.61     35251.29     94.59245     189.3355     378.3698      2.321     7.23     1302.748     66.72701     1418.285        48     2.347     1.078  38.61   3
       140    187.7539    635.9659 307.8429377  +6.4411147     17745.63     44591.51     59119.87      94.4417     189.2602     378.4451      2.757     9.00     1302.634     66.72701     2059.881        81     2.841     1.390  37.15   3
       141    109.0391    635.8628 307.8757216  +6.4385354     1314.054     2686.198     4398.404     94.89323     189.2602     378.6333      2.448     7.84     1302.405     66.72701     149.4152        22     1.949     0.882  29.95   3
       142    111.5197    632.3349 307.8748113  +6.4400750     2153.211     5574.156      7454.27     95.19305     189.4107     378.5204      2.799     9.10     1302.257     66.72701     240.8834        41     2.400     1.245  31.50   2
       143    358.5571    626.1066 307.7721486  +6.4508684     4399.604     9534.993     10571.68     94.89323     189.3355     378.7086      2.285     7.34      1300.18     66.72701     438.4929        39     2.274     1.080  35.52   3
       144    361.3420    622.9910 307.7710969  +6.4522477     5209.483     13347.67     17186.76     94.13949     189.2602     378.2191      2.711     8.62      1299.93     66.72701     571.4352        58     2.706     1.323  33.85   3
       145    840.2145    627.1703 307.5715135  +6.4663989      1540.99     2971.558     4201.625      94.4417     189.0342     378.4828      2.401     9.83     1291.778     66.72701     184.3013        26     2.465     1.092  66.94   2
       146    842.3425    624.3361 307.5707252  +6.4676398     1413.945     2868.444     3558.328     95.04325     189.2602     378.5957      2.269     6.90     1291.505     66.72701     156.2942        16     1.488     0.897  22.76   3
       147    524.5822    620.8863 307.7031856  +6.4585379     1458.517     2867.401     3920.405      94.4417     189.0342     378.4451      2.344     8.72     1297.723     66.72701     188.7612        26     2.224     0.955  49.21   3
       148    528.8475    618.2710 307.7014999  +6.4597595     1514.925     3044.923     4336.175     94.89323     189.2602      378.558      2.279     9.52     1297.468     66.72701     194.2385        25     2.440     1.036  77.80   3
       149    525.5332    617.0137 307.7029237  +6.4601688     1381.696     2477.109     3340.131     94.29072     189.1096     378.4828      2.047     5.69     1297.454     66.72701     204.9152        15     1.655     0.676  47.51   3
       150    794.3200    620.8420 307.5908467  +6.4674942     1698.504     2968.627     3734.561     94.89323     189.3355     378.5204      1.942     7.71     1292.547     66.72701      205.645        20     1.893     0.878  23.58   3
       151    795.3632    617.1461 307.5905399  +6.4690552     1787.118     4256.048     5285.619     94.74296     189.3355     378.5957      2.430     9.78     1292.256     66.72701     180.4113        33     2.341     1.140  24.73   3
       152    172.5929    614.8292 307.8499864  +6.4493389     1588.829     3866.495     5723.967     94.29072     189.1096     378.3322      2.897    10.52     1301.838     66.72701     185.5966        34     2.510     1.229  10.48   3
       153    174.2820    610.7688 307.8494242  +6.4510720     2194.428     4834.765     7709.079     94.74296     189.1096      378.558      2.873     9.06     1301.687     66.72701     230.5327        39     2.526     1.143  20.06   3
       154    267.2678    610.9153 307.8106945  +6.4541065     20625.58     45881.41     52678.27     95.19305     189.6362     378.5957      2.369     7.14     1300.618     66.72701     2275.394        54     2.358     1.147  36.14   3
       155    269.5662    607.3366 307.8098616  +6.4556609     26630.83     67442.12     88157.73     94.74296     189.4107     378.5204      2.760     8.69     1300.239     66.72701     3061.988        88     2.857     1.402  35.86   3
       156     45.3296    611.0658 307.9031159  +6.4466525     1408.648     5250.639     7279.882     94.89323     189.4107      378.558      3.137    10.82     1299.999     66.72701     178.8586        47     2.208     1.891  52.64   0
       157    570.0636    611.2374 307.6845780  +6.4640317     774.4264     2547.929     3352.861     94.89323     189.3355     378.5957      3.144     8.61     1295.658     66.72701      119.922        15     1.975     1.048 -75.17   2
       158    790.0377    602.5097 307.5932639  +6.4749238     4226.144     8101.647      9714.69     95.04325     189.2602     378.5957      2.176     5.83     1291.355     66.72701     572.6163        30     2.138     0.892  35.45   3
       159    791.8747    599.2587 307.5926111  +6.4763272     5191.731     13696.65     17471.56     95.04325     189.3355     378.5204      2.699     8.17     1291.089     66.72701     504.3759        55     2.473     1.409  29.57   3
       160    493.8837    601.1547 307.7166547  +6.4656681     10962.63     25275.11     30803.73     94.89323     189.3355      378.558      2.463     6.96     1296.553     66.72701     1093.907        46     2.217     1.184  37.00   3
       161    496.3784    597.9197 307.7157278  +6.4670870     12698.03     31795.93      43482.4      94.4417     188.9588     378.5204      2.800     8.40     1296.202     66.72701     1242.302        76     2.919     1.432  33.89   3
       162    656.9609    595.2255 307.6489411  +6.4735254     888.9995     2566.794     4279.809      94.4417     189.1096     378.3322      3.257     7.73     1292.408     66.72701     118.5258        14     1.831     0.912 -83.89   2
       163    653.6548    592.4822 307.6504130  +6.4745488     942.7362     2125.054     3481.438     94.89323     189.3355     378.5957      2.835     5.93     1292.183     66.72701      129.016        10     1.315     0.753 -86.36   2
       164    205.4853    595.5549 307.8369582  +6.4583941     583.9484     1447.902      2227.41     94.89323     189.2602      378.558      3.334     5.37     1300.223     66.72701     85.37817         5     1.048     0.777  79.71   2
       165    209.1444    594.2280 307.8354805  +6.4590638     788.9603     1556.359     2389.483      94.4417     189.4107     378.3698      2.181     5.37     1299.989     66.72701     121.4535         7     1.137     0.714  40.17   2
       166    138.5425    589.2578 307.8650562  +6.4587654     5926.821     12579.49     14779.22     94.89323     189.3355     378.5957      2.269     7.17     1300.017     66.72701     627.4379        41     2.310     1.087  37.48   3
       167    140.9425    585.9830 307.8641706  +6.4601977     8083.738     19881.93      25936.2     94.29072     189.2602     378.2568      2.646     8.68     1299.769     66.72701     890.9844        59     2.707     1.277  36.26   3
       168    324.9814    587.8317 307.7874604  +6.4655593     1055.149     3614.666     4698.182      94.4417     189.1096     378.4074      3.174    11.89     1297.715     66.72701     151.1359        31     2.093     1.879  37.34   0
       169    869.5910    587.3624 307.5606536  +6.4838112      605.961     1439.765      2081.74     93.98802     189.0342     378.2568      2.627     4.81     1288.629     66.72701     93.68091         5     1.275     0.515  44.49   0
       170    104.6158    586.7895 307.8792711  +6.4586543     677.5703     2303.755     3282.249     94.59245     189.0342     378.4074      3.022     7.45     1300.312     66.72701     95.11511         9     2.012     0.773 -86.16   2
       171    963.6965    582.8026 307.5216157  +6.4888045     1646.044     3027.099     3847.076      94.4417     188.9588     378.1815      2.304     7.08      1287.35     66.72701     265.8835        24     2.150     0.906  26.86   3
       172    964.8693    579.4459 307.5212430  +6.4902296     1888.124     3766.745     4911.606     94.89323     189.2602      378.558      2.158     8.51     1287.035     66.72701     225.6716        25     2.079     0.973  27.29   3
       173      4.4483    571.7453 307.9215101  +6.4615275     7134.407     26626.86     35426.29     94.89323     189.3355     338.9627      3.092     8.56     1298.817     66.72701      1037.76        85     2.513     2.061  70.76  24
       174    435.0122    570.0419 307.7422524  +6.4765628     10119.53     21786.01     25335.46      94.1395     189.1096     378.2191      2.306     7.26     1295.378     66.72701      1098.56        45     2.353     1.078  37.31   3
       175    437.6219    566.6257 307.7412840  +6.4780604     12055.94     31418.65     42722.57     94.29073     189.1096     378.4828      2.839     9.02     1294.995     66.72701      1287.61        78     2.864     1.462  33.93   3
       176    642.8705    569.5781 307.6556974  +6.4836507     3168.169       6126.4     8105.925      94.4417     189.1849      378.558      2.222     6.57     1290.513     66.72701     384.2029        27     2.012     0.869  38.29   3
       177    645.3509    566.1951 307.6547814  +6.4851301     3619.937      9170.61     12608.17      94.1395     189.1096     378.1438      2.758     8.87      1290.17     66.72701     366.9739        51     2.545     1.389  39.59   3
       178    200.1265    567.8723 307.8401523  +6.4696481     4507.532     9763.941     13442.94     95.19305     189.4859     378.5957      2.553     7.96     1297.301     66.72701     526.1447        42     2.383     1.103  44.84   3
       179    202.8122    564.5706 307.8391486  +6.4711011     6220.326     15880.39     22968.65     94.29073     189.0342     378.4451      3.001     9.02     1296.941     66.72701     727.5525        69     2.985     1.320  40.10   3
       180    566.5454    564.5180 307.6876617  +6.4832099     842.1489     3283.748     4387.235     94.89323     189.3355     378.6333      3.190    11.47     1291.741     66.72701      126.818        30     2.002     1.831  47.87   0
       181    939.1667    562.3766 307.5325376  +6.4964301     1701.138     3434.636     4064.023     94.29072     189.1096     378.3322      2.038     7.08     1286.121     66.72701     187.0769        23     1.829     1.016  20.21   3
       182    940.1130    559.7525 307.5322340  +6.4975452     1807.134     4343.844     5022.963     94.89323     189.1849     378.5957      2.421     8.43     1285.969     66.72701     198.6992        26     2.248     0.884  27.69   3
       183    615.9142    559.7814 307.6672638  +6.4868032     1985.456     4444.373     7243.598      94.4417     189.0342     378.4451      3.285    11.75     1290.086     66.72701      301.431        39     2.680     1.435 -41.58   2
       184    612.1951    558.1755 307.6688684  +6.4873431     1765.109     4430.434     6615.843     94.29072     189.0342     378.3698      2.957     9.09     1289.994     66.72701       205.37        25     1.900     1.213 -47.84   3
       185    962.6163    553.0635 307.5230919  +6.5010512     1290.449     3773.915     4726.022     94.29072     189.2602     378.3698      2.674     9.38     1285.078     66.72701     150.1813        26     1.787     1.375 -74.89   2
       186    523.2560    552.8151 307.7060970  +6.4866069     1761.138     3582.521     5071.157      94.1395     189.2602     378.1815      2.487     8.53     1291.256     66.72701     228.5272        23     2.237     0.908  43.81   3
       187    526.7625    549.7204 307.7047438  +6.4880014     2043.735      5735.41     8285.295     94.74296     189.4107      378.558      3.141     9.84      1290.94     66.72701     229.3229        49     2.604     1.523  42.62   3
       188    371.2030    554.2750 307.7693750  +6.4809543     703.9549     1532.751     2864.279     94.29072     188.7325     378.4451      2.996     5.39     1295.125     66.72701     92.60083         7     1.227     0.668   6.79   0
       189    881.2143    548.7666 307.5571454  +6.5001357     1172.641     2302.064     3533.443      94.4417     189.0342     378.4451      2.869     4.91     1286.508     66.72701     155.2867        12     1.194     0.888  46.75   3
       190    883.5961    545.7971 307.5562559  +6.5014408     1070.176      2513.76     4319.726      94.1395      188.808     378.3322      2.683     6.80     1286.281     66.72701     145.0862        14     1.729     0.751  38.77   2
       191    887.9466    542.6812 307.5545515  +6.5028715     762.4279     1528.375     3550.854     94.89323     189.3355     378.6333      3.506     4.56     1285.939     66.72701     106.4539         6     0.899     0.658  34.82   1
       192     73.9512    539.2128 307.8936975  +6.4772804     507.4379     1357.942     1976.367      94.1395     189.2602     378.2191      3.552     5.05      1298.34     66.72701     89.31287         5     1.174     0.615 -80.04   2
       193     78.2049    536.4438 307.8920223  +6.4785658     727.4104     1363.444     2402.854      94.1395     188.9588     378.1815      2.829     5.01     1298.062     66.72701     102.1704         6     1.153     0.616 -25.75   2
       194    385.2281    534.5872 307.7642170  +6.4895513     1014.357     3069.493     5741.369     94.29073     189.1096     378.4451      4.453    12.34     1293.307     66.72701      137.632        31     2.471     1.715  44.31   2
       195    713.0057    535.3631 307.6276699  +6.5001051     935.8915     2446.948     3669.472      93.8363     189.0342     378.2945      3.107     7.49     1287.305     66.72701     120.3882        16     1.672     0.938  31.87   0
       196    610.3712    534.0021 307.6704652  +6.4972661     2626.604     6291.659     8673.818     94.29072     189.0342     378.3322      2.588     7.20     1288.706     66.72701     325.5316        40     2.225     1.236  35.83   3
       197    613.2587    530.6981 307.6693769  +6.4987264     2805.248     6612.968     9058.845     94.59245     189.2602     378.7086      2.717     9.28     1288.537     66.72701      315.306        41     2.590     1.152  33.04   3
       198    773.1869    530.5226 307.6027710  +6.5040968     4729.095     8990.923      10938.2     94.44171     188.9588     378.3322      2.188     6.48     1286.742     66.72701     547.0458        35     2.120     1.003  34.17   3
       199    775.1033    527.0056 307.6020944  +6.5056128     5163.112     12831.91     17690.79     94.59245     188.9588     378.2945      2.703     8.10     1286.437     66.72701     516.7128        53     2.516     1.326  31.75   3
       200    293.6722    531.8026 307.8024459  +6.4876573     552.7324     1481.026      2421.43     94.29072     188.8834     378.3698      1.557     3.47     1292.819     66.72701     108.4187         5     1.235     0.282 -34.79   1
       201    297.1084    528.4554 307.8011310  +6.4891540     666.5082     1633.791      2302.42     94.74296     189.1849     378.7086      2.903     5.75      1292.35     66.72701     101.2863         8     1.373     0.679  50.76   0
       202    958.6152    524.2726 307.5257521  +6.5128098     796.7499     1507.815     1852.535     94.29073     189.1849     378.4451      2.515     4.13     1282.572     66.72701     112.2828         6     0.903     0.539  51.41   0
       203    113.4534    520.1180 307.8779104  +6.4864828     1445.046     3863.986     5653.078     94.89323     189.3355     378.6333      2.932     9.54     1295.723     66.72701     192.2842        31     2.434     1.381  46.03   2
       204    109.8040    522.6646 307.8793417  +6.4853095     864.1334     2001.496     3122.467     93.98802     188.9588     378.2945      2.764     5.22     1296.111     66.72701     132.2526         8     1.463     0.526  31.75   3
       205    748.7619    521.3548 307.6132614  +6.5070745     808.2568      1586.74     2371.923     94.59245     189.2602     378.4451      2.373     5.45     1286.231     66.72701     122.3136         8     1.411     0.593  39.32   0
       206   1012.3717    519.2318 307.5035349  +6.5166671     1582.635     3129.627     4194.835     94.29073     189.0342     378.3322      2.111     5.95     1281.259     66.72701     230.1099        20     1.788     0.834  38.28  19
       207   1013.6657    516.0367 307.5031062  +6.5180294     1413.773     3102.932     4178.744     94.74296     189.2602     378.6333      2.572     8.80     1280.974     66.72701     177.2633        24     2.598     0.832  35.61  18
       208    751.9741    519.0623 307.6120027  +6.5081277     831.5064     1779.015     2005.928      94.4417     189.2602     378.4451      2.328     5.62     1286.069     66.72701     97.74573        10     1.270     0.701  26.18   0
       209    348.6863    514.0468 307.7801495  +6.4968197     859.7675     2502.376     4131.042     94.89323     189.1849      378.558      3.280     9.16     1290.757     66.72701     126.8647        14     2.258     1.037 -19.95   2
       210    711.8854    502.3873 307.6292773  +6.5136869     4164.548      8045.41     9160.385      94.4417     189.1849     378.3698      2.085     6.33     1285.252     66.72701      446.209        30     2.031     0.940  35.91   3
       211    713.4901    498.9044 307.6287295  +6.5151785     4203.523     11153.09     15520.26     94.89323     189.7864      378.558      2.867     9.36     1285.059     66.72701     428.2379        54     2.796     1.336  30.13   3
       212    636.5989    496.2475 307.6608483  +6.5137281     770.7935     1640.145     2387.585      94.1395     188.8834     378.0307      2.113     5.89     1286.425     66.72701     98.37939         8     1.424     0.686 -88.50   0
       213    605.0096    493.5354 307.6740998  +6.5138010     3986.452     8458.175      11080.1     94.29072     189.1096     378.3698      2.532     7.73     1287.413     66.72701     461.6403        30     2.390     0.865  33.02   3
       214    607.5325    490.2351 307.6731633  +6.5152476     5070.278     13079.47     19752.89     94.74296     189.4107     378.6709      3.132     9.38     1287.266     66.72701     493.0691        82     3.233     1.644  38.86   3
       215    938.3918    490.4063 307.5353448  +6.5261285     1371.215     4294.176     5340.917      94.1395     189.1096     378.3698      2.782    10.14     1279.594     66.72701     179.3396        40     2.034     1.743  84.25   0
       216    631.9813    493.4616 307.6628681  +6.5147256     642.0934     1278.927     2598.335      94.4417     189.2602     378.4074      2.639     4.23     1286.481     66.72701     90.72253         5     0.773     0.660 -86.44   1
       217    376.1240    488.5504 307.7696067  +6.5082614     6950.894      15334.2     19300.54     94.74296     189.4107      378.558      2.447     7.59     1287.734     66.72701     746.3414        46     2.435     1.105  34.72   3
       218    378.8738    485.2683 307.7685753  +6.5097083      7929.98     21087.14     28820.65     95.04325     189.4859     378.5204      2.856     9.41     1287.249     66.72701     839.1101        65     2.870     1.343  33.44   3
       219    124.4739    489.3260 307.8743919  +6.4995665     665.7324     1646.844     3140.987     95.19305     189.6362     378.6709      3.446     6.31     1292.649     66.72701     99.25244         7     1.548     0.724 -88.60   0
       220    892.0852    485.9353 307.5547875  +6.5264445     744.7778     1464.887     2633.818     95.04325     189.5611     378.5957      2.641     5.06     1280.298     66.72701     103.5708         8     1.120     0.646 -62.28   0
       221    906.7657    480.4633 307.5488615  +6.5291898     1805.843     5349.845     7277.605     94.74296     189.4107      378.558      2.974     8.02     1279.333     66.72701     199.2345        47     1.968     1.823 -71.50   0
       222    233.9073    479.5179 307.8291544  +6.5072616     3338.263     7461.759      8190.76     94.59245     189.7113     378.6709      2.324     8.13     1288.557     66.72701     367.2526        36     2.201     1.135  32.65   3
       223    236.6372    475.9843 307.8281402  +6.5088117     3973.353     10055.88     14274.49      94.4417     189.1096     378.2568      2.837     9.41     1288.188     66.72701     479.6129        58     2.847     1.347  35.64   3
       224    136.9463    464.9559 307.8700451  +6.5100464     1625.608     4230.918     7319.416     94.89323     189.3355      378.558      3.585    12.98     1291.174     66.72701     206.9613        38     2.366     1.982  14.73   2
       225    434.1806    452.3056 307.7466830  +6.5251592     1740.903     4178.573      5658.26     94.74296     189.1096     378.3322      2.527     8.81     1283.703     66.72701     205.6884        31     2.101     1.122  31.22   3
       226    437.4831    449.3892 307.7454086  +6.5264733     1944.396       3479.2      3793.25     94.44171     189.0342     378.3698      1.911     5.24     1283.385     66.72701      221.967        20     1.436     0.944  75.84   3
       227    433.5186    447.7545 307.7471166  +6.5270167     1682.888     3682.867     4202.213     94.89323     189.3355     378.5204      2.174     6.48     1283.273     66.72701     187.6853        19     1.393     1.028 -11.94   3
       228     32.0987    451.3311 307.9141882  +6.5121780     1044.594     3154.673     5349.009     94.89323     189.4859     378.5957      3.532    11.67     1293.946     66.72701     134.1353        27     2.067     1.834  42.61   0
       229    773.6155    448.6445 307.6054236  +6.5379266     3734.463     8191.834     12393.79     94.29073     189.1096     378.2945      2.935     8.88     1280.279     66.72701     461.7979        50     2.770     1.279  22.66   3
       230    775.6700    445.1730 307.6046878  +6.5394283     3653.077     8921.284     11688.94      94.4417     189.1849     378.4828      2.547    10.03     1279.908     66.72701     412.4575        42     2.574     1.095  32.19   3
       231   1017.6966    441.8546 307.5039862  +6.5488000     1519.298     3698.753     4903.284     94.74296     189.3355     372.2578      2.957     8.68     1273.303     66.72701     181.7228        25     1.828     1.332 -82.54  18
       232    481.6512    435.9637 307.7274770  +6.5334846     749.5153      1804.53     3520.547     94.74296     189.3355     378.4828      2.691     5.64     1282.024     66.72701     105.8068         7     1.528     0.586  39.17   0
       233    840.5208    428.7017 307.5782438  +6.5483769     10523.15     28719.17     38254.02     94.74296     189.7865     378.5957      2.854     8.66     1277.806     66.72701     961.5581        76     2.679     1.601  30.73   3
       234    839.2257    431.8091 307.5786758  +6.5470507     8880.731      15921.3     18896.63      94.4417     189.1096     378.4074      1.980     5.64     1278.039     66.72701     1099.625        33     2.039     0.921  37.57   3
       235    695.9550    418.1624 307.6388273  +6.5479439     20976.21     44203.38     51487.13     94.59245     189.3355     378.4451      2.278     6.39     1278.029     66.72701     2414.957        52     2.317     1.073  31.34   3
       236    697.6788    414.3767 307.6382403  +6.5495645        21416     59699.15     78024.76     94.44171     189.1096     378.5204      2.817     9.14     1277.641     66.72701     2133.936        84     2.776     1.434  29.48   3
       237    610.2510    420.7893 307.6744361  +6.5440185     723.4994      1814.23      2435.67      94.1395     189.1849     378.2191      1.971     3.90     1279.053     66.72701     111.7708         5     1.252     0.348  77.58   0
       238    557.8220    415.1219 307.6964715  +6.5446202     721.7751     1620.218     2802.559      94.4417     189.0342      378.558      2.481     5.64     1279.166     66.72701     106.0094         6     1.323     0.678  42.61   0
       239     99.0197    412.7132 307.8876598  +6.5303576     1717.489     5098.732     8439.531     94.59245     189.0342     378.4451      3.446    14.53      1290.82     66.72701     230.7681        53     2.852     2.059 -12.05   2
       240     96.0263    409.0000 307.8890358  +6.5317913     1245.231     2282.411     2847.566     94.29072     188.8834     378.2945      2.215     4.41     1290.808     66.72701     185.5941        12     1.329     0.673  -5.06   3
       241    541.2925    411.0075 307.7034993  +6.5457710     1798.491     4114.019     5107.518      94.4417     188.9588     378.3322      2.351     7.73     1278.961     66.72701     211.3672        28     2.111     1.049  38.46   3
       242    545.2613    409.2564 307.7019068  +6.5466258     1574.745      2850.45     4116.522     95.04325     189.3355     378.5957      2.439     7.00     1278.712     66.72701     205.8324        18     1.922     0.714  20.41   3
       243    543.4255    406.5539 307.7027652  +6.5476810     1542.418     3749.735     4740.956     94.44171     189.4107     378.4074      2.552     7.79     1278.505     66.72701     209.1998        22     2.381     0.712  14.23   3
       244    404.5136    406.6386 307.7606248  +6.5430335     6410.756      13839.5     16660.09     94.89323     189.2602      378.558      2.357     7.04     1279.474     66.72701     686.2128        42     2.360     1.022  35.21   3
       245    406.8681    402.9143 307.7597733  +6.5446498     6855.402     19471.98     26831.23     95.19305     189.6362     378.5957      2.964     9.52     1279.176     66.72701     743.6787        74     2.864     1.544  35.83   3
       246    272.0133    409.2302 307.8157255  +6.5375574     737.8849     1799.519     2751.082     94.29072     189.1096     378.4828      3.223     4.93       1282.6     66.72701     102.3297         5     0.890     0.774   9.78   1
       247    274.2960    405.7850 307.8148944  +6.5390561     738.1498     1720.548     2859.577     94.59245     189.0342     378.2945      2.612     5.88     1282.353     66.72701     111.0201         8     1.549     0.629  46.01   0
       248    493.7367    397.1168 307.7237900  +6.5499293     2154.379      4228.73     6099.343     95.04325     189.4107     378.5204      2.218     6.57     1277.872     66.72701     242.0602        26     1.972     0.881  30.07   3
       249    495.9805    393.4944 307.7229810  +6.5514998     2222.057     6505.703     9200.251     94.74296     189.1096     378.3322      2.978    10.11     1277.451     66.72701     282.7772        49     2.622     1.410  30.09   3
       250    766.6985    392.9988 307.6102293  +6.5606792      904.243     2390.896     5114.188     94.29072     188.8834     378.2191      4.310     6.88     1275.573     66.72701     127.4236        13     1.320     1.006 -78.42   0
       251    383.2384    380.9550 307.7703783  +6.5529334     1921.798     4103.341     4914.158     94.59245     189.2602     378.4451      2.292     9.36     1278.035     66.72701     225.0667        31     2.118     1.153  32.94   3
       252    387.4388    378.3290 307.7687198  +6.5541575     2019.126     3911.919     5397.624     94.74296     189.3355     378.6333      2.158     5.21     1277.776     66.72701     238.7936        21     1.573     1.033  79.79   3
       253    384.2599    376.4723 307.7701084  +6.5548187      1811.58     3994.244     5048.128     95.04325     189.3355     378.5957      2.345     5.49     1277.679     66.72701     208.4342        19     1.285     1.071   6.87   3
       254    750.8473    376.2482 307.6174117  +6.5670724     14711.14     31365.72     39180.68     94.89323     189.1849     378.5957      2.448     7.92     1274.113     66.72701     1696.377        56     2.640     1.169  30.34   3
       255    751.6492    372.3282 307.6172133  +6.5687178     14337.21     39162.33     55863.97     94.89323     189.3355     378.5957      3.114    12.29     1273.786     66.72701      1460.54        65     3.112     1.350  24.37   3
       256    427.3325    374.1960 307.7522456  +6.5571900     638.1289     1324.762     2432.459      94.1395     188.9588     378.2945      2.046     3.98       1276.9     66.72701     87.19543         6     1.349     0.336  75.38   0
       257    927.1241    370.9312 307.5441636  +6.5750996     866.6683     2054.673     3133.253     95.04325     189.4859      378.558      2.831     6.64     1271.967     66.72701     131.0746        11     1.858     0.665  80.34   2
       258    749.3956    355.9862 307.6187174  +6.5753924     1141.605     2053.099     2856.574      94.4417     189.0342     378.4074      2.230     8.04     1272.419     66.72701     149.5479        16     2.423     0.745   5.67   3
       259    749.2144    361.3783 307.6186064  +6.5731595     1419.623     2693.906     3674.733     94.59245     189.1096     378.4828      2.030     7.14     1272.839     66.72701     196.2993        17     1.841     0.776  10.34   3
       260    749.9710    358.6666 307.6183849  +6.5743045      1287.17     3003.121     5005.699     94.59245     189.3355     378.5204      3.163     9.25     1272.682     66.72701     161.5693        25     2.877     0.830  11.15   3
       261    765.9935    358.6789 307.6117100  +6.5748299     818.6412     1615.702     2813.058      94.4417     188.7325     378.2945      2.052     4.32     1272.847     66.72701     109.5541         7     1.196     0.444  54.99   0
       262   1005.4620    347.5587 307.5123363  +6.5873405     2207.114     7032.267     8508.589     94.89323     189.3355     378.6333      2.825     7.97     1265.905     66.72701     245.6956        56     2.120     1.808  76.39   0
       263    245.1278    346.4421 307.8291065  +6.5625930     1367.838     3387.723     4922.326     94.74296     189.3355     378.5957      2.803     8.82     1280.514     66.72701     197.1842        24     2.329     0.933  58.20   3
       264    248.7069    343.8020 307.8277074  +6.5638024     1589.833     3955.573     6275.944     94.29072     188.9588     378.2191      2.897     7.89     1280.241     66.72701     189.9897        22     1.768     1.111  71.39   3
       265    244.9851    340.9851 307.8293557  +6.5648419     1245.833     2533.228     3465.096     94.59245     188.9588     378.4828      2.454     5.85     1280.345     66.72701     143.8302        11     1.502     0.642  49.93   3
       266    486.1583    346.6213 307.7286980  +6.5705318     730.7444     1474.358     2528.018      94.4417     189.1096     378.3698      1.896     3.58     1273.117     66.72701     136.8787         5     1.190     0.310  80.35   0
       267    560.6734    329.5031 307.6982509  +6.5800746     562.8124     1430.561     2614.625     94.44171     189.5611      378.558      3.341     4.55     1269.766     66.72701     104.7881         5     1.175     0.501  33.68   2
       268    721.4684    324.5567 307.6314386  +6.5874478     1310.473     2599.081     3839.146     94.89323     189.2602     378.6709      2.341     7.19     1269.491     66.72701     179.9772        16     1.715     0.846  43.83   3
       269    723.1470    321.0822 307.6308596  +6.5889383     1397.214      3624.45     5237.471     94.89323     189.3355     378.6333      3.039    11.11     1269.129     66.72701     182.2115        34     2.760     1.246  40.22   2
       270    663.1774    324.8977 307.6557098  +6.5853756     535.5803     1531.256     2789.509     94.89323     189.0342     378.3698      3.368     5.49     1269.415     66.72701     99.84204         5     1.493     0.568  68.32   0
       271    901.2819    323.2258 307.5565768  +6.5939477     604.1676     1845.228     2847.777     94.74296     189.0342      378.558      3.008     8.56     1268.492     66.72701     110.6041         9     1.671     1.225 -24.32   0
       272    455.5209    300.9926 307.7430433  +6.5883585     5689.911     12032.04     14417.15      94.4417     188.7325     378.2945      2.337     7.62     1270.335     66.72701     638.2352        40     2.356     1.075  27.82   3
       273    458.1976    296.9941 307.7420670  +6.5900987     5674.945     16568.73      24401.3      94.1395     188.9588     378.3698      3.082     9.95     1269.946     66.72701     644.4806        72     2.795     1.615  28.77   3
       274    781.5013    299.4964 307.6072966  +6.5997854     4052.378     8052.816     9449.236     94.89323     189.9365     378.3698      2.231     6.76     1267.214     66.72701     425.6796        37     2.213     1.029  35.81   3
       275    783.2047    296.0301 307.6067069  +6.6012733      3619.66     10450.22     14308.78     94.29072     189.1096     378.2945      2.977    10.07     1266.919     66.72701     379.7531        55     2.625     1.399  34.31   3
       276    579.6285    286.4152 307.6918478  +6.5984984     1411.984      2772.22     5086.875     94.44171     189.0342     378.4451      3.828     7.45     1264.955     66.72701     168.9939        17     1.785     0.870  51.39   3
       277    583.0139    283.5250 307.6905377  +6.5998043     1269.741     3589.973     6038.952     94.29072     189.0342     378.3322      3.684    11.35     1264.851     66.72701     168.1818        33     2.465     1.457  35.12   2
       278    887.8541    280.6139 307.5636429  +6.6111023     3383.316     11884.35     15832.59      94.1395     189.2602     378.2568      3.003     8.05     1265.285     66.72701     461.6923        72     2.344     1.985  62.70   0
       279     13.4763    280.4894 307.9278961  +6.5821098     6435.936     13620.88     15695.28     94.89323     189.6362     378.6333      2.301     7.15     1295.206     66.72701     666.2961        40     2.260     1.064  29.55  19
       280     16.1369    277.0606 307.9269072  +6.5836145     7847.667     18702.26     25378.31     94.89323     189.3355     378.5957      2.810     9.47     1295.245     66.72701     892.6957        66     2.967     1.434  32.27  19
       281    974.4308    278.3283 307.5276534  +6.6149077     3391.006     11288.87     14190.89     94.74296     189.3355     378.5204      2.888     7.86     1263.014     66.72701     449.9448        70     2.203     2.011  41.26   0
       282    684.8839    280.7356 307.6481961  +6.6043336     1055.398     2287.432     4045.915     95.04325     189.4859     378.6333      3.377     4.53      1265.73     66.72701     161.1827        10     1.126     0.754   7.80   2
       283    827.7015    271.7972 307.5890075  +6.6127540      647.574     1946.773     2905.863     94.59245     189.0342     378.1815      3.220     6.73     1265.057     66.72701     91.32556         6     1.362     0.934 -80.99   0
       284    942.5424    279.7547 307.5408891  +6.6132650       979.51     2755.037     4083.714     94.89323     189.3355     378.6333      3.242     8.96     1264.114     66.72701     136.7823        16     1.833     1.222  43.79   2
       285    343.1505    266.7602 307.7910427  +6.5987614     2011.787     5609.286     8906.937     94.89323     189.3355     378.4828      3.231    11.37     1273.969     66.72701     204.6737        57     2.762     1.756 -55.63   2
       286    338.6379    265.1815 307.7929774  +6.5992633     1459.005     2985.111     4742.788      94.4417     189.1849     378.2568      3.020     7.76     1274.034     66.72701     234.0099        20     2.131     0.790 -60.89   3
       287    738.0095    266.6511 307.6265515  +6.6119103     9668.583     40018.38      58500.8     94.29072     189.1849     378.2191      3.331     9.06      1264.74     66.72701     1294.262       113     2.597     2.347  52.27   0
       288    509.4788    270.1158 307.7216364  +6.6029019      723.528     1624.309     2559.647     94.89323     189.7113     378.7086      2.124     4.88     1265.462     66.72701     126.2959         5     1.351     0.499  89.19   0
       289    971.8756    263.6163 307.5292258  +6.6208993     896.3465     2733.089     4211.426     94.29072     189.0342     378.4451      3.177     8.91     1262.555     66.72701     129.4988        14     2.263     0.980  29.67   2
       290    907.9367    262.6538 307.5558968  +6.6191838     2030.292     3750.066     4532.525     94.89322     189.2602     378.5204      2.137     7.26     1263.805     66.72701     229.6692        21     1.641     0.901  50.00   3
       291    904.8370    265.2380 307.5570989  +6.6180141      2478.47     5069.775     6485.675     94.59245     189.1849     378.4074      2.212     6.54     1263.978     66.72701     283.9696        27     1.893     1.006  34.63   3
       292    904.5282    261.5257 307.5573558  +6.6195370     1730.459     2668.413     3563.228     95.19305     189.4859     378.5957      1.548     4.21     1263.783     66.72701      245.938         9     0.997     0.675  80.29   3
       293    449.1441    265.7971 307.7469210  +6.6026819      1234.53      2966.51     4648.595     94.13949     189.1096     378.1815      2.759     7.65     1267.662     66.72701     174.8667        20     1.620     1.050 -15.39   3
       294    451.1754    261.4815 307.7462245  +6.6045317     1278.765     3227.892     5466.607     94.59245     189.0342     378.5204      3.515     8.29     1267.133     66.72701     162.7247        24     2.102     0.913  36.81   2
       295   1009.1447    265.1849 307.5136449  +6.6214825     646.5527     1469.259     1981.326     94.13949     189.3355     378.2191      2.168     3.95       1261.7     66.72701     105.3175         6     1.417     0.315  65.46   0
       296    105.9841    257.2959 307.8901689  +6.5947734     1099.286     2707.245     4404.741     94.59245     189.1096     378.3698      3.377     8.65     1289.432     66.72701     146.0886        15     2.170     0.964  33.70   3
       297    108.6687    253.5050 307.8891825  +6.5964284      1478.51     3369.902     5391.262     94.74296     189.4859     378.5957      3.498     9.81     1289.222     66.72701     169.8796        27     2.334     1.151  39.11   2
       298    276.2351    253.8362 307.8193673  +6.6018727     8068.811     17771.53     22749.63     94.59245     189.0342     378.2568      2.578     9.41     1276.953     66.72701     911.3568        55     2.799     1.210  46.36   3
       299    279.8970    250.5509 307.8179560  +6.6033513     9161.651     21415.98      29689.7     94.74296     189.2602     378.7462      2.812    12.49     1276.742     66.72701     1003.464        65     3.142     1.382  38.61   3
       300    251.3602    254.9182 307.8296920  +6.6005980     1603.825     3419.842     4519.462     94.89323     189.4107     378.4828      2.414     8.51     1278.275     66.72701     176.9467        24     2.127     0.951  25.52   3
       301    255.2082    251.7883 307.8281979  +6.6020186      1918.84     4444.857     5323.374      94.4417     189.1096     378.4828      2.389     7.42     1278.063     66.72701     231.2662        25     1.890     0.981  72.53   3
       302    251.1852    249.6626 307.8299477  +6.6027626     1457.538     2791.531     3418.718     94.29072     189.1849     378.3322      1.959     3.72     1278.275     66.72701     184.7928        13     1.046     0.935  72.32   3
       303    399.8612    248.8106 307.7680412  +6.6080596     12295.36     27588.91     32779.62     94.13949     189.1849     378.2568      2.397     7.64     1269.259     66.72701     1325.799        52     2.416     1.174  35.59   3
       304    402.7275    245.2883 307.7669694  +6.6096095     12645.38     36272.51     50816.66     94.89323     189.6362     378.5957      3.011    10.34     1268.803     66.72701      1331.54        80     3.033     1.447  35.31   3
       305    159.7963    247.5566 307.8680913  +6.6005889     1256.592      2250.74     3125.485      94.1395     188.8834     378.1438      2.102     6.47     1284.057     66.72701     164.5127        14     1.409     0.834  61.11   3
       306    156.5125    246.7493 307.8694874  +6.6008128     969.1567     2849.591     4122.427     94.89323     189.1849     378.7086      3.257    11.77     1284.374     66.72701     118.1923        26     2.991     1.290 -87.99   2
       307    303.7506    246.4619 307.8081611  +6.6058337     4523.141     10271.22     11488.83     94.89323     189.2602     378.6333      2.403     8.13     1275.297     66.72701     508.2875        40     2.319     1.149  37.60   3
       308    307.2339    243.4408 307.8068150  +6.6071972     4838.153     13259.06     21104.64     94.59245     189.3355     378.3322      3.269    10.45     1275.046     66.72701     536.1949        70     3.087     1.468  33.16   3
       309    739.3036    244.5459 307.6267773  +6.6210825     9511.672     19907.63      23258.1     94.74296     189.3355      378.859      2.285     6.40      1263.25     66.72701     1088.172        41     2.194     1.050  34.30   3
       310    741.3175    241.1223 307.6260567  +6.6225631     8759.178     23671.43     31566.26     95.04325     189.6362     378.7086      2.803     9.19     1262.978     66.72701     895.7496        68     2.759     1.383  32.89   3
       311     56.9411    242.7531 307.9111050  +6.5991438     2299.543      4841.23     5894.836     94.89323     189.3355     378.7086      2.303     7.76     1294.368     66.72701     285.0909        31     2.084     1.098  36.02   3
       312     59.5727    239.5475 307.9101204  +6.6005553     2734.317      6522.29     9630.756     94.44171     189.4859     378.4828      3.033    10.50     1294.273     66.72701     305.4092        48     2.931     1.262  37.95   3
       313    999.8057    221.8325 307.5190319  +6.6390786     833.7252     2476.675     3580.972     94.13949     189.1096     378.3322      3.125     6.63     1260.881     66.72701     137.4525        11     1.898     0.649  36.87   2
       314    275.1899    220.0220 307.8209780  +6.6158025     7424.723     16492.19     19831.77      94.4417     189.0342     378.3698      2.398     7.48     1277.177     66.72701     857.6956        46     2.334     1.125  28.99   3
       315    277.7171    216.4236 307.8200503  +6.6173727     8131.973     22431.49      30669.4     94.74296     189.0342     378.4828      2.919    10.52     1277.137     66.72701     939.2422        71     2.990     1.450  32.32   3
       316     21.4213    218.9279 307.9267314  +6.6077979     1290.986     3081.393     5017.842      94.4417     189.1849     378.5204      2.761     8.39     1298.946     66.72701     155.4152        19     1.916     1.026  38.55   3
       317     23.5119    215.6371 307.9259752  +6.6092267     1535.457     3472.081     5961.387     94.89323     189.1849      378.558      3.238    12.12     1298.651     66.72701     177.2865        34     2.604     1.638  46.78   3
       318    706.8579    215.7107 307.6412925  +6.6319165     2280.067     5372.442     7035.077     94.74296     189.2602     378.7086      2.568     7.24     1261.713     66.72701     266.8342        33     2.075     1.107  30.59   3
       319    710.3226    214.6237 307.6398867  +6.6324802     1544.297      2560.84     3347.865     94.44171     189.1849     378.5204      1.761     4.40     1261.656     66.72701      226.948        12     1.309     0.733  30.14   3
       320    708.1738    211.6733 307.6408841  +6.6336275     1977.831     4717.242     6552.101      94.4417     189.1849     378.4828      2.535     8.86     1261.543     66.72701     214.2777        28     2.126     1.032  14.18   3
       321    117.2313    213.6568 307.8870028  +6.6131701      1190.49     2694.544     3831.024     94.74296     189.3355     378.4451      2.610     6.61     1289.438     66.72701     159.4308        16     1.532     0.801  29.39   3
       322    120.4652    210.5187 307.8857648  +6.6145738     1481.905     3586.925     5144.238     95.19305     189.5611      378.558      3.249     9.98     1289.218     66.72701     179.2468        31     2.466     1.127  35.65   2
       323    389.4241    205.5900 307.7738898  +6.6255621     1088.079      3477.28     6878.615     94.44171     189.1096     378.4074      3.997     9.50     1267.716     66.72701     134.7665        21     1.789     1.407 -25.75   2
       324    352.3145    208.4760 307.7892495  +6.6231364     728.8152     1877.988     3404.025     95.04325     189.7114     378.6333      2.892     4.14     1270.809     66.72701     123.6332         5     0.961     0.510  39.98   0
       325    356.3490    204.9941 307.7876896  +6.6247085     865.4537     2075.336     3342.711     94.29072     189.1096     378.1438      2.996     6.24     1270.463     66.72701      129.895         9     1.419     0.772 -82.13   2
       326    204.7400    197.7297 307.8511020  +6.6226633     1496.618     3037.445     4273.222     95.04325     189.3355     378.5957      2.408     6.98     1282.915     66.72701     176.4795        17     2.047     0.667  31.62   3
       327    207.4746    193.9937 307.8500928  +6.6242972     1518.968     4177.549     6131.911      94.4417      188.808     378.3698      3.107    12.46     1283.053     66.72701     174.7761        41     2.520     1.716  26.40   3
       328    665.7151    195.4111 307.6591363  +6.6389367     1682.466     3096.209     4244.312     94.44171     189.0342     378.3698      2.081     7.74      1260.84     66.72701     251.3584        22     1.936     0.866  38.80   3
       329    669.8624    193.9503 307.6574590  +6.6396774     1509.668     3105.771      4049.49     94.89323     189.2602     378.6333      2.357     7.15     1260.865     66.72701       183.75        19     1.550     0.982 -85.99   3
       330    666.7632    190.7320 307.6588617  +6.6409038     1494.981     3304.003     4500.994     94.74296     189.3355     378.6709      2.474     8.61     1260.673     66.72701     178.8528        23     1.692     1.252  -5.37   3
       331    618.0912    192.9135 307.6790640  +6.6383892     2711.317     6922.915     10646.34     94.59245     189.8615     378.7086      3.338    12.11     1259.877     66.72701     320.4221        53     2.443     2.130  53.91   3
       332    621.8089    184.5378 307.6778053  +6.6419716     14822.55     33338.17     43114.78      94.1395     189.1096     378.3322      2.595     6.37     1259.471     66.72701     1642.879        64     2.292     1.573  43.23   3
       333    624.1096    181.1528 307.6769640  +6.6434459     12901.63     37669.23     52075.76     94.89323     189.1849     378.7086      2.977    10.52     1259.275     66.72701       1259.7        81     2.943     1.514  31.46   3
       334    349.0793    187.4287 307.7913284  +6.6317209     1004.324      2825.54     5250.848     94.74296     189.2602     378.5204      3.393     7.08     1271.122     66.72701     116.8451        15     1.822     0.772 -87.80   0
       335    345.7947    184.4339 307.7928008  +6.6328485     831.9885     2265.726     5297.731     93.98802     189.1096     378.2945      4.970     7.09     1271.434     66.72701     120.6688        10     1.430     0.986 -52.66   0
       336    303.8625    175.6840 307.8105741  +6.6350672     928.6163     2528.998     3818.223     95.04325     189.4107     378.5204      2.995    10.94     1275.899     66.72701     138.9808        22     2.622     1.273  44.85   2
       337    300.7116    178.2425 307.8117978  +6.6339058     899.6962     2062.603     2865.119     94.89323     189.1849     378.5957      2.387     6.05     1276.176     66.72701     133.7084        12     1.504     0.685  57.24   3
       338    686.3877    167.9966 307.6514728  +6.6509437     836.9295     2318.665     3585.424      94.4417     188.9588     378.4074      3.085     7.61     1259.755     66.72701     108.1569        13     1.966     0.823  84.24   0
       339      2.4328    159.9581 307.9366967  +6.6315169     529602.2      1042769      1206976     94.59245     168.9762     305.6301      2.200     9.01     1300.639     66.72701      60831.7       193     2.509     1.365  89.73  28
       340    689.9952    164.9734 307.6500745  +6.6523118     710.5533      1542.95     2980.928     94.29072     189.1096     378.3698      2.143     4.13     1259.624     66.72701     98.60876         7     1.450     0.335  62.23   0
       341    426.7921    158.3495 307.7599619  +6.6463134       1070.2     2854.467      5280.09     94.29073     189.1849     378.1815      3.366    10.64     1262.122     66.72701     152.7065        20     2.299     1.372  74.44   2
       342    900.5810    154.8211 307.5626870  +6.6634751     1225.197     1971.794      2232.93     94.59245     189.2602     378.4451      1.858     5.33     1257.017     66.72701     158.9163        13     1.202     0.782  38.67   3
       343    901.7557    151.6227 307.5623081  +6.6648348     1156.716     3201.085     4319.864     94.29073     189.1849     378.3322      2.729     9.54     1256.802     66.72701     154.7407        24     2.131     1.193  27.81   3
       344    882.4185    153.4424 307.5703020  +6.6634439     668.2885     1494.284      2141.88     94.29073     189.1096     378.2945      2.526     4.94     1257.201     66.72701     82.35278         5     1.154     0.598  57.40   0
       345    592.0132    151.3143 307.6913703  +6.6547043     599.3657     1732.364     3033.465      94.4417     189.1096     378.4074      2.487     5.41     1257.606     66.72701     108.9183         8     2.177     0.379  74.32   0
       346    142.1996    144.7848 307.8789986  +6.6424445     864.0493     2134.014     4438.219      94.4417     188.9588     378.2568      3.730     5.68     1289.664     66.72701     118.8909         9     1.284     0.707  79.47   2
       347     21.9669    147.0164 307.9290099  +6.6375133     3160.743     7563.409        10776      94.4417     189.0342     378.4074      2.859     9.50     1298.156     66.72701     362.1737        41     2.609     1.207  43.63   3
       348     24.8036    144.0280 307.9279323  +6.6388420     3842.431     8303.237     11802.58     94.29072     189.0342     378.3698      2.724    10.79     1297.751     66.72701     406.3075        46     2.905     1.185  41.15   3
       349    768.1646    140.7725 307.6183437  +6.6648958     975.0818     2693.781     4778.116      94.4417     189.0342     378.2945      3.864     8.30     1258.237     66.72701     142.0219        15     1.833     1.051  29.42   2
       350    823.8985    138.2769 307.5952086  +6.6677713     1683.234     6615.865     9088.256      94.4417     189.6362      378.558      3.136     9.99     1257.401     66.72701      230.098        56     2.242     1.969  42.54   0
       351     65.1125    135.4609 307.9114381  +6.6437248     964.1412     2046.802     3165.002     95.04325     189.5611     378.5957      2.906     6.87     1293.907     66.72701     111.9651        12     1.610     0.821  45.16   0
       352      7.5678    131.2761 307.9355571  +6.6435330      907.582     2114.683     3521.827     94.74296     189.3355     373.9762      3.020     6.44     1298.595     66.72701     125.0321        12     1.599     0.728  86.76  16
       353     89.4756    123.1333 307.9017176  +6.6496282     2429.264     5509.837     7009.021     95.04325     189.4107     378.5204      2.538     9.62     1291.546     66.72701     261.2926        37     2.546     1.117  50.24   3
       354     92.9885    119.8964 307.9003669  +6.6510821     2705.381     6247.846     8396.881     94.59245     189.0342     378.3322      2.949    11.88     1291.146     66.72701      286.619        48     2.992     1.314  39.57   3
       355    631.7711    114.3252 307.6760873  +6.6712988     5155.514        11571     14498.44     94.74296     189.3355     378.5204      2.528     9.18     1257.341     66.72701     611.3566        49     2.564     1.314  56.70   3
       356    635.2487    111.4839 307.6747368  +6.6725876     4686.561     11730.99     15101.47     94.89323     189.3355     378.5957      2.755    11.05      1257.27     66.72701      458.771        48     2.836     1.199  46.06   3
       357    531.0204    109.4796 307.7182326  +6.6699575     1255.363     3175.721     5198.995      94.4417     188.9588      378.558      3.155     9.46     1257.785     66.72701     175.8931        26     2.124     1.174  52.86   2
       358    535.0184    107.0498 307.7166511  +6.6710937     1267.412     2809.612     4974.647     94.29072     189.4107     378.3322      3.043     7.74      1257.64     66.72701     166.0421        21     1.877     0.893  65.24   3
       359    257.4643    101.8298 307.8324717  +6.6640232     1775.757     3888.942     6843.616     94.59245     189.4859     378.4828      4.548     6.51     1284.902     66.72701     217.5751        22     1.389     1.277 -86.93   3
       360    258.0033    107.0139 307.8320669  +6.6619002      2388.32     5886.617     10353.43      94.4417     188.9588     378.4074      6.146     7.38      1284.49     66.72701      300.017        38     2.225     1.219  16.57   3
       361    437.5306    106.4481 307.7572895  +6.6681046     5927.433     13608.46     17360.04     94.89323     189.2602     378.5957      2.682    11.17     1261.632     66.72701     608.6155        56     2.986     1.361  51.62   3
       362    441.0259    103.2574 307.7559440  +6.6695384     5884.257     14211.49     18771.91      94.4417     189.3355     378.3698      2.692    11.34     1261.467     66.72701      650.105        53     2.796     1.280  41.93   3
       363    619.6243    104.7131 307.6814813  +6.6748657     1116.088     3073.966     4962.931     94.89323     189.1096     378.4074      3.504     9.00     1257.233     66.72701     148.7394        19     1.810     1.250  -1.38   2
       364    915.6530    105.3337 307.5581171  +6.6844114     646.7358     1735.699     2123.906     94.89323     189.2602     378.4828      2.285     5.78     1253.263     66.72701     99.13342         8     1.617     0.583  41.86   0
       365    245.5477     98.9591 307.8375363  +6.6648119     659.9224     2390.417     6173.765     94.89323     189.4107      378.558      5.964     8.63     1285.883     66.72701     100.9146         8     2.040     1.020 -30.11   2
       366    261.4333    103.8078 307.8307493  +6.6633384     2439.036      5664.29     7805.436     94.29073     189.1096     378.3322      2.742     6.27     1284.476     66.72701     241.9818        30     1.733     1.205  69.95   3
       367     23.2339    106.1314 307.9299068  +6.6544397     620.9092     1456.386     2227.446     94.74296     189.3355     378.6333      3.345     5.14     1296.171     66.72701     96.18042         6     1.051     0.712 -86.81   0
       368    175.5272     89.1877 307.8670487  +6.6665151     2681.524     6227.025     7545.609     94.29073     188.8834     378.3322      2.374     7.29     1288.121     66.72701     322.3185        34     2.188     1.025  38.55   3
       369    178.8924     86.0903 307.8657545  +6.6679064     3010.165     6845.247     8454.887     94.89323     189.9365     378.5957      2.422     6.79     1288.003     66.72701     327.5375        36     2.044     1.152  69.56   3
       370    174.6185     83.9389 307.8676100  +6.6686525     2145.537     3732.311     5136.722      94.4417     189.2602     378.3698      1.918     4.77     1288.016     66.72701     271.0422        19     1.275     1.055 -75.92   3
       371    519.5643     86.9650 307.7237866  +6.6788753     847.3976     1693.201     2495.312     94.59245     189.0342     378.2568      1.934     4.92     1258.403     66.72701     138.5006         9     1.504     0.456  44.03   0
       372    921.7319     84.1599 307.5563159  +6.6933570     1561.202     4453.482     6254.802     94.74296     189.2602     378.6709      2.921    10.52     1251.819     66.72701     173.7911        41     2.124     1.672  54.02   0
       373    523.6693     85.0998 307.7221410  +6.6797819     859.8928     1583.061     2727.722     94.89323     189.4859      378.558      2.554     5.49     1258.332     66.72701     104.4556         9     1.317     0.645  88.28   0
       374    985.0059     79.5169 307.5301116  +6.6973655     890.0542     2271.126     3001.784      94.4417     188.8834     378.2945      2.807     6.66      1249.76     66.72701      109.655        11     1.594     0.782  77.24   2
       375    708.6124     76.8372 307.6453692  +6.6893279     1770.711     2866.434     3868.747     94.29072     189.1096     378.2191      2.008     4.75     1255.784     66.72701     204.7518        14     1.104     0.987  88.32   3
       376    705.3160     79.0164 307.6466673  +6.6883187     2024.106     3794.293     4624.385      94.4417     188.9588     378.4451      2.068     6.70     1255.859     66.72701     271.4716        21     2.014     0.784  34.17   3
       377    705.8468     74.5905 307.6465993  +6.6901641     1963.356     4867.438     6642.312     94.29072     189.2602     378.1438      2.613     8.23     1255.743     66.72701     210.7267        33     2.036     1.262   4.57   3
       378    629.0904     75.7442 307.6785409  +6.6871434     1055.096       2539.9     4796.023     94.74296     189.1849     378.7086      3.767     5.12     1256.675     66.72701      143.282        15     1.300     1.043 -71.89   2
       379    425.7366     75.0894 307.7632920  +6.6806632     1630.122     3408.259     5174.014     94.74296     189.4859     378.5957      2.914     7.20     1264.401     66.72701      167.906        26     1.689     1.145  23.17   3
       380    429.8553     72.1784 307.7616770  +6.6820022     1725.707      3135.04     3461.885     94.29072     189.3355     378.3322      1.907     6.80     1264.393     66.72701     215.9581        22     1.632     1.039  78.59   3
       381     26.5619     74.3699 307.9296272  +6.6676672     2138.183     4118.068     5441.681     94.44171     189.0342     378.4074      2.336     7.20     1293.723     66.72701     245.0586        20     1.792     0.810  26.15   3
       382     29.5715     71.4217 307.9284761  +6.6689851     2658.345     6453.218     9874.231      94.1395     189.1096     378.4451      3.107    10.56       1293.3     66.72701     275.5668        54     2.732     1.773  41.61   2
       383    624.3505     75.2993 307.6805312  +6.6871700     863.9105     2552.178     3886.884     94.89323     189.3355     378.7838      2.587     3.85     1256.744     66.72701     108.5453         5     1.182     0.360 -12.59   3
       384    424.9400     70.2826 307.7637907  +6.6826218     1361.905     3232.634     5245.223     95.04325     189.4107     378.5957      3.475     7.03     1264.957     66.72701     169.9192        19     1.388     1.204   0.16   3
       385    321.8560     69.4331 307.8067699  +6.6795451      3474.34     8064.619     10536.17     94.74296     189.3355      378.558      2.666     7.77     1280.344     66.72701     382.3281        43     2.317     1.230  40.05   3
       386    324.8707     66.2258 307.8056253  +6.6809699     3551.585     8563.724     12123.05      94.4417     189.1849     378.4828      2.823    10.87     1280.163     66.72701     403.5474        46     2.801     1.236  38.23   3
       387     99.0657     68.3440 307.8996303  +6.6725743     935.1951     2173.884     3778.219     95.04325     189.2602      378.558      3.048     7.28     1288.716     66.72701     137.8424        13     1.832     0.809 -55.92   0
       388    388.5370     66.8575 307.7790770  +6.6828263     747.2302     2004.586     3788.294     95.04325     189.2602     378.5957      3.750     4.72      1270.61     66.72701     102.2714         6     0.952     0.665 -11.97   0
       389    640.2836     57.8920 307.6744957  +6.6948872     2536.457     4887.833     6328.918     94.59245     189.7113     378.7086      2.178     6.10      1256.14     66.72701     327.3594        27     2.042     0.864  43.55   3
       390    643.3708     55.3376 307.6732978  +6.6960445      2575.91     7873.349     14123.62     94.59245     189.3355     378.4828      3.815    13.04     1256.015     66.72701     272.8992        64     3.355     1.410  33.68   3
       391    648.8610     62.6725 307.6707562  +6.6931974     3084.708     6538.898     7752.455     95.04325     189.3355     378.5957      2.305     7.00     1256.055     66.72701     351.0214        29     1.997     0.940  40.59   3
       392    652.1376     60.0018 307.6694834  +6.6944089      2899.38     7584.772     11671.04      94.1395     189.1096     378.2191      3.766    15.32     1255.927     66.72701      295.702        65     4.309     1.514  72.37   3
       393    814.3019     61.8434 307.6018505  +6.6990200     710.4565     1566.196     2437.236     94.89323     189.2602     378.8214      3.174     6.20      1253.43     66.72701     104.7542         8     1.227     0.881  55.72   0
       394    249.9270     60.8573 307.8370368  +6.6806928     1684.975     3882.304      5391.99     94.89323     189.3355     378.5204      2.785     7.93     1286.078     66.72701     182.1494        24     2.009     0.876   5.98   3
       395    251.9674     56.7988 307.8363278  +6.6824368     2080.647      5673.11     10012.17     93.98802     189.1096     378.2568      3.725    10.91     1286.057     66.72701     219.7194        45     2.627     1.384  32.28   2
       396    414.1613     55.9007 307.7687811  +6.6882030     2183.642     5033.806     7057.656     94.89323     189.1849     378.8214      2.717    10.54     1267.491     66.72701      249.798        33     2.723     1.137  47.42   3
       397    410.7469     58.6011 307.7701099  +6.6869744      2190.23     4881.929     6840.328      94.1395     188.8834     378.0307      2.812     9.66     1267.683     66.72701     225.7461        34     2.504     1.121  45.89   3
       398    410.0000     53.9704 307.7705819  +6.6888619     1603.599     2607.422     3692.655     93.98802     189.0342     378.2945      1.696     5.50     1268.346     66.72701     215.6064        11     1.246     0.685  82.41   3
       399    673.8575     53.6053 307.6606550  +6.6977706     5537.956     16660.16     30126.11     94.29072     189.1849     378.2191      3.782     9.27     1255.314     66.72701     671.8209       117     2.946     2.455 -34.82   0
       400     61.9538     50.3632 307.9157185  +6.6787620     851.8868     1781.755     3524.411     94.59245     189.3355     378.4451      4.717    11.88     1289.845     66.72701     138.7483        15     2.146     1.832  46.59   2
       401     58.6885     47.6634 307.9171730  +6.6797680     909.1523     2216.288     3070.934     94.74296     189.5611     378.5957      2.781     4.45     1289.891     66.72701     119.7684         7     0.901     0.679 -80.29   3
       402     56.0292     52.0105 307.9181295  +6.6778840     704.8262       1667.9     2969.167     94.29072     189.1096     378.3698      2.657     3.25     1290.332     66.72701     101.1592         5     0.638     0.590  -0.30   1
       403    147.8653     48.7561 307.8799808  +6.6822904     1439.434     3642.472     5465.991     94.89323     189.2602      378.558      3.228     9.82     1287.379     66.72701     181.3357        27     2.187     1.228  39.22   2
       404    151.3885     46.3864 307.8785954  +6.6833864      1528.18     3315.364     4586.228     94.74296     188.9588     378.4828      2.759     8.98     1287.266     66.72701     188.9747        26     2.284     0.984  43.83   3
       405    883.3409     43.5628 307.5737155  +6.7088538     789.7676     2123.698     3342.152     94.89323     189.4107      378.558      3.178     5.44     1250.515     66.72701     103.8932         6     1.254     0.666 -40.65   0
       406    895.0852     41.8182 307.5688821  +6.7099627     10683.93     11016.59     12272.85      94.4417     189.0342     378.4828      0.615     1.15     1250.154     66.72701     5750.476         8     0.545     0.430  78.80   0
       407    791.2709     36.0520 307.6123392  +6.7089092      915.921     2031.314     3221.254     94.74296     189.2602     378.5957      2.763     6.22     1253.117     66.72701     113.1404        10     1.635     0.664  37.29   0
       408    792.7592     31.9907 307.6118596  +6.7106358     787.2086     2307.218     3617.862     94.13949     189.1096     378.2191      3.180     5.78     1252.929     66.72701     134.2756         9     1.304     0.722  -4.08   2
       409    615.8677     31.0119 307.6856005  +6.7051786     3433.705     6881.543      8082.94     94.29072     189.1849     378.4451      2.146     6.43     1256.297     66.72701     385.5226        28     2.031     0.880  28.02   3
       410    618.3336     27.6898 307.6846881  +6.7066324     3220.468     9043.093     12293.54     95.04325     189.4859      378.558      2.908    10.80     1256.199     66.72701     320.3677        53     2.591     1.481  27.06   3
       411    256.2533   1019.2130 307.8011005  +6.2851184     1992.012     5411.824     6147.088      94.1395     189.2602     356.4197      2.551     8.24     1317.424     66.72701     258.2755        38     1.850     1.629  40.77  16
       412    643.6752   1018.5640 307.6398254  +6.2982467     2090.855     5723.141     6471.051     94.74296     189.4107     364.0923      2.472     7.62     1317.931     66.72701     268.3593        38     1.786     1.592  33.63  16
       413     25.5341   1016.6182 307.8972428  +6.2785079     1362.729     2419.962     2524.652     94.44171     189.3355     378.2191      1.954     7.30     1313.182     66.72701     154.2708        15     1.403     1.065  38.44  16
       414    568.9584   1011.0253 307.6711943  +6.2988839     749.1171     2000.806     2354.322      94.4417     189.2602     378.2945      2.733     7.99     1317.639     66.72701     103.0016        11     1.766     1.011  30.30   0
       415    999.3597   1010.1265 307.4920253  +6.3134947     793.0444       1543.4     1643.464     94.74296     189.4107     378.5957      2.105     5.20     1314.569     66.72701      111.681         6     1.092     0.699  80.19   0
       416    288.4838   1004.6240 307.7881886  +6.2922152     861.4047     1774.678     2490.893     94.74296     189.0342     378.4828      2.771     5.62     1317.895     66.72701     102.3376        10     1.324     0.673  51.62   0
       417    891.9307    997.8624 307.5371780  +6.3150113     4253.077     9752.631     10799.65     94.89323     189.3355     378.6333      2.308     5.45     1313.308     66.72701     514.0284        46     1.853     1.491  49.50   0
       418    329.6404    993.8367 307.7714280  +6.2980384     4042.066     11581.64     14429.81     94.59245     189.3355     378.4074      2.754     6.72     1317.193     66.72701     531.8071        62     2.124     1.845  41.52   0
       419    249.6403    992.7596 307.8047722  +6.2958234     2964.918     8507.879     10656.56     94.59245     189.4859     378.4074      2.750     7.54     1316.778     66.72701      358.462        52     2.104     1.696  35.65   0
       420    427.7919    994.1008 307.7305545  +6.3011898     1030.993      2132.12     2876.901     94.59245     188.8834     378.3322      2.171     6.34     1316.919     66.72701     140.1377        11     1.636     0.691  18.77   0
       421    743.6308    975.2364 307.5997063  +6.3194511     921.9201     2200.542     2711.726     94.44171     189.0342     378.3698      2.482     6.11     1313.885     66.72701     166.4625        15     1.611     1.182 -15.13   0
       422    975.0375    971.7343 307.5034761  +6.3285479     861.8743     1981.057     2266.763     94.74296     189.2602     378.6709      2.564     3.42     1311.582     66.72701     138.1687         6     0.989     0.508 -81.16   0
