#   1 NUMBER                 Running object number                                     
#   2 X_IMAGE                Object position along x                                    [pixel]
#   3 Y_IMAGE                Object position along y                                    [pixel]
#   4 ALPHA_J2000            Right ascension of barycenter (J2000)                      [deg]
#   5 DELTA_J2000            Declination of barycenter (J2000)                          [deg]
#   6 FLUX_APER              Flux vector within fixed circular aperture(s)              [count]
#   9 FLUXERR_APER           RMS error vector for aperture flux(es)                     [count]
#  12 FLUX_RADIUS            Fraction-of-light radii                                    [pixel]
#  13 FWHM_IMAGE             FWHM assuming a gaussian core                              [pixel]
#  14 BACKGROUND             Background at centroid position                            [count]
#  15 THRESHOLD              Detection threshold above background                       [count]
#  16 FLUX_MAX               Peak flux above background                                 [count]
#  17 ISOAREA_IMAGE          Isophotal area above Analysis threshold                    [pixel**2]
#  18 A_IMAGE                Profile RMS along major axis                               [pixel]
#  19 B_IMAGE                Profile RMS along minor axis                               [pixel]
#  20 THETA_IMAGE            Position angle (CCW/x)                                     [deg]
#  21 FLAGS                  Extraction flags                                          
         1    676.4922     18.6295 307.6690773  +6.6947061     10785.44     16213.96     17420.27     78.26362     155.6607     311.6316      1.660     4.36     815.7324     54.94653     1882.816        35     1.632     0.875  36.96   1
         2    841.2599     18.1305 307.6006501  +6.7004068     1701.149     2590.053      2625.75     78.26362     155.9088     311.6936      1.570     4.45     815.2805     54.94653     264.7949        19     1.564     0.782  35.09   0
         3    911.5128     16.1388 307.5715333  +6.7035690     1522.196     2507.984     2753.297     78.26362     156.0946     311.7556      1.734     5.01     814.7759     54.94653     262.1071        14     1.370     0.701  38.12   0
         4    668.0707     14.1193 307.6727262  +6.6962873     8776.993     13817.26     15757.08     78.38696     156.2183     311.7556      1.694     4.15     815.6539     54.94653     1475.903        41     1.697     0.979  34.66   1
         5    276.6659     15.4942 307.8352623  +6.6826280     6226.541     10040.31     11430.65     78.14008     156.0327     311.7556      1.817     4.55     824.9557     54.94653     1084.294        41     1.752     1.181  14.88   0
         6    697.9166     13.3881 307.6603528  +6.6975853     7797.062     12448.63     14597.68     77.76827     155.7228     311.5696      1.737     4.30     815.6014     54.94653     1192.478        38     1.759     0.991  37.14   3
         7    701.3391     10.7408 307.6590196  +6.6987925      12708.7      19579.4     21280.88     78.14008     155.8468     311.7556      1.650     4.50     815.5578     54.94653     2242.189        38     1.702     0.888  38.01  19
         8    437.9557     14.1630 307.7683114  +6.6885788     7923.038     12305.53     12748.82      77.8924     155.9088     311.6006      1.588     4.22     818.5866     54.94653     1326.851        33     1.626     0.870  33.79   0
         9    753.6519     13.0089 307.6372133  +6.6996011     1833.945     2612.254     2736.702     77.64394     155.7848     311.4766      1.518     4.09     815.4775     54.94653     311.9914        14     1.356     0.635  37.10   0
        10    677.5034      9.8828 307.6689494  +6.6983513     3028.714     4473.268     6099.976     78.01633     156.2802     311.7866      1.635     4.03      815.536     54.94653     502.6714        20     1.536     0.755  39.22  16
        11    216.9239     10.8329 307.8602335  +6.6825496      1155.38     2065.242     2105.232     78.01633     155.9088     311.6936      2.068     6.81      819.686     54.94653     162.8772        17     1.728     0.842  15.73  16
        12     84.2429      7.1891 307.9154663  +6.6796014      3123.58     4899.915     5578.483     77.64394     155.7228     305.3683      1.682     4.76     817.3903     54.94653     477.9613        22     1.572     0.785  34.02  16
        13    966.6996      6.5960 307.5489262  +6.7093462      873.702     1336.201     1585.053      77.8924     155.6607     300.8422      1.751     4.74     813.8484     54.94653     148.6683         8     1.366     0.467  38.45  16
        14     65.3421      6.3339 307.9233456  +6.6793196     390.6226     506.3433      335.547     78.26362     155.8468     298.8122      1.424     4.24     816.6169     54.94653     80.38287         5     1.256     0.408  52.63  16
        15    174.8998      4.6663 307.8778958  +6.6836861     4841.609     7706.639      8478.93     78.14008     156.0327     281.6008      1.684     4.39     819.5554     54.94653     710.7889        29     1.714     0.853  33.90  16
        16    802.0671      3.1401 307.6174309  +6.7052902     1087.896     2164.694     2421.443     78.26362     146.7803     261.8685      2.244     5.83     814.8323     54.94653     148.4161        17     1.757     0.886  27.63  24
        17    909.5988      1.6374 307.5728117  +6.7094930     1599.287     2082.693     2468.661     71.28664     128.0808     239.1128      1.340     3.37     814.2954     54.94653     276.8795        12     1.129     0.655  16.62  24
        18    656.1804      1.2679 307.6780947  +6.7011966     614.8544     724.9278      563.906     66.95365     122.8445     233.3876      0.991     1.73     815.4477     54.94653     207.5267         5     0.711     0.394  19.97  24
        19    246.7200      1.2723 307.8481779  +6.6874961     781.3198     974.5354     524.1387     67.38515     123.2371     233.6359      1.186     3.58     822.0225     54.94653     157.9878         6     0.991     0.404  11.87  24
        20    220.9798    993.3544 307.8256057  +6.2770098     688.7611     1279.373     1040.669     77.76827     155.8468     311.5696      1.958     6.69     845.0914     54.94653     103.2034         9     1.231     1.021  39.96   0
        21    835.0616   1023.4264 307.5697241  +6.2851033     526.9159     947.2397     1236.311     70.74246     127.4001     238.3438      2.041     4.56     843.2283     54.94653     94.36676         6     0.879     0.671  27.47  24
        22    773.2852   1023.7299 307.5953552  +6.2829203     1934.871     2631.437     2781.376     67.24163     123.1587     233.6359      1.253     3.70     843.9399     54.94653      476.178        12     1.388     0.444   0.03  24
        23    566.8710   1018.5632 307.6812013  +6.2781690     7339.137     12560.08     14478.56     78.01634     155.9088     299.8128      1.938     4.26     847.3823     54.94653      940.001        44     1.780     1.172  40.05  18
        24    324.4809   1022.7545 307.7816642  +6.2683361     885.3379     1221.127     1497.485     77.14462     136.7628     249.0479      1.714     4.69     848.1105     54.94653     118.1891         8     0.925     0.727  -1.98  27
        25    318.8425   1023.6044 307.7839759  +6.2677965     5226.774     7278.788     8334.319     68.38139     124.4851     235.3662      1.376     3.85     848.2202     54.94653     1131.013        21     1.642     0.667  -1.51  27
        26    291.3146   1022.5505 307.7954363  +6.2673102     875.2097     1203.089     1116.416     78.14008     139.2827     252.1322      1.509     4.30     848.6118     54.94653      139.317         9     1.113     0.696  25.28  24
        27     81.2950    991.7871 307.8836323  +6.2729741      2421.89     4186.126      4038.49      77.8924     155.6607     311.5696      1.828     4.95     842.9028     54.94653     300.2932        25     1.643     0.920  27.58   0
        28    975.3231    989.5578 307.5126323  +6.3037556     5342.426     10148.56     11437.56     78.01634     155.9088     311.7556      2.059     4.69     841.7163     54.94653     597.1176        48     1.856     1.281  36.05   0
        29    231.8252    986.0113 307.8213504  +6.2804050     517.3533     811.3753     911.9623     77.76827     155.7228     311.6316      1.655     3.90     845.1683     54.94653     73.37018         6     0.940     0.463  52.79   0
        30    949.0078    981.4666 307.5238244  +6.3062214     1549.458     3269.234     3943.927     77.64394     155.6607     311.5696      2.244     5.64     842.4351     54.94653     215.9094        26     1.696     1.194  49.80   0
        31    809.0172    978.1198 307.5820433  +6.3029436     1197.477     2015.939     2284.771     77.76827     155.5986     311.6316      1.831     4.56     843.3242     54.94653     156.9519        15     1.246     0.865  36.61   0
        32    669.7932    977.3163 307.6398586  +6.2986348     4023.946     6861.539     7236.894     77.76827     155.5986     311.6006      1.809     4.31     846.3909     54.94653     522.8026        32     1.617     1.059  34.49   0
        33    281.8788    977.5727 307.8008584  +6.2855656     4037.097     6860.214     7234.936     78.01634     155.8468     311.7246      1.825     4.58     846.2543     54.94653     507.9534        33     1.687     1.028  30.25   0
        34   1018.6512    976.5195 307.4950809  +6.3105799     546.7152     967.6843     1077.618     78.14008     155.9707     298.9091      1.848     4.88     840.4059     54.94653     70.14624         6     0.968     0.697  68.74  16
        35    491.8621    975.7510 307.7137644  +6.2933411     1027.049     1773.385     1665.535     78.14008     155.8468     311.7866      1.936     6.04     847.2559     54.94653     139.5645        13     1.405     0.729  43.59   0
        36     50.6320    975.0648 307.8969196  +6.2788498     1830.306     3204.623     2987.468      77.8924     155.9088     311.6936      1.810     4.81     841.8809     54.94653      225.525        24     1.598     0.958  30.02   0
        37    902.0794    973.9398 307.5435540  +6.3077680     776.1564     1324.445      925.967     78.26362     155.9088     311.6626      1.780     6.19     843.0574     54.94653     120.0212        11     1.402     0.840   9.10   0
        38    594.3969    969.8011 307.6714042  +6.2992221     1498.611     2257.402     1837.406     77.51942     155.4744     311.4766      1.581     4.51     846.9891     54.94653     225.6081        17     1.358     0.834  38.71   0
        39      7.3065    979.8361 307.9147409  +6.2754256     1013.324     1468.919     1651.286     78.26362     155.7848     306.4421      1.503     3.05     841.3422     54.94653     156.8936         9     0.910     0.645  19.61  16
        40    633.5662    966.2142 307.6552658  +6.3020104     1057.961      1816.97     2056.853     77.76827     155.6607     311.6006      1.877     5.86     846.6227     54.94653     128.6124        15     1.363     0.840  48.61   0
        41     83.2514    966.7252 307.8836612  +6.2833876     657.7618      1233.89      1577.12     78.14008     155.9707     311.7246      2.014     3.41      842.134     54.94653      109.177         5     0.954     0.352  42.86   0
        42    313.3691    964.0532 307.7882409  +6.2922019     1258.472     2000.332     2084.066     78.01633     155.9707     311.6316      1.636     5.07      846.107     54.94653     186.9983        17     1.591     0.716  34.53   0
        43    317.7907    971.1410 307.7861684  +6.2894234     724.8536     1102.748     1290.935     77.51942     155.7848     311.4456      1.821     4.85     846.4202     54.94653     107.0751         9     1.031     0.647  19.23   0
        44    780.8936    959.9084 307.5943236  +6.3095264     771.9348     1169.694     1312.379     78.14008     156.4037     311.7246      1.524     5.31     843.8748     54.94653     105.7524        10     1.218     0.672  38.55   0
        45    156.3174    958.7363 307.8536036  +6.2891364     488.8859     591.3128     105.6874     78.26362     156.0327     311.7556      1.270     3.40     843.1417     54.94653     82.15991         5     1.171     0.285  34.81   0
        46    917.8745    956.4632 307.5375792  +6.3155099     5849.352     10600.96     11680.24     78.38696     155.9088     311.6936      1.966     4.48     842.6921     54.94653     674.4778        43     1.853     1.174  29.48   0
        47    453.9013    953.8419 307.7302528  +6.3011189     1826.917     2823.251     2716.548     78.14008     155.7848     311.9415      1.663     4.35     847.0457     54.94653     271.4715        17     1.442     0.761  29.75   0
        48    355.4347    952.1857 307.7711783  +6.2985098     8628.874      14300.5     15318.47     77.76827     155.6607     311.6006      1.818     4.30     846.5113     54.94653     1177.618        43     1.749     1.057  31.79   0
        49    275.5840    951.1585 307.8043556  +6.2962612     6525.165     10572.95     11493.63     77.64394     155.6607     311.5076      1.768     4.00     844.8913     54.94653      847.743        32     1.615     0.956  33.06   0
        50    603.8415    945.3171 307.6683013  +6.3096470     972.2658     1544.816     1533.734     78.14008     155.9088     311.6626      1.579     4.49     846.8497     54.94653     146.1819        13     1.338     0.697  41.95   0
        51    788.4763    945.1895 307.5916665  +6.3158567     549.7076     860.5712     706.1327     77.76827     155.5365     311.5386      1.656     4.41     843.7488     54.94653     81.16003         7     1.080     0.513  40.52   0
        52    933.5673    941.6989 307.5315565  +6.3221285     1023.556     1944.886      2948.38     78.14008     155.7848     311.8486      2.700     6.83     842.2252     54.94653     136.5542        15     1.561     0.839   5.40   0
        53    166.6217    941.9753 307.8498887  +6.2964024     642.0751     908.6669     1146.895     77.76827     155.7228     311.6936      1.598     4.14     842.8796     54.94653     105.6965         7     0.972     0.628  68.29   0
        54    890.6850    940.7700 307.5493876  +6.3210851     677.6893     1100.783     1511.518     78.14008     155.7228     311.6006      2.071     5.66     842.8802     54.94653     97.49408         7     1.234     0.732   6.87   0
        55    432.3756    940.3795 307.7396376  +6.3059579     680.4338     963.5638     1223.323     77.76827     155.7228     311.6936      1.500     4.96     846.9438     54.94653     103.8431         7     0.993     0.701 -52.95   0
        56    770.0338    934.6992 307.5996713  +6.3195738     1436.959     2466.179     2774.426     78.14008     155.7848     311.8795      1.795     4.83     844.1846     54.94653     214.0076        16     1.419     0.742  29.78   0
        57    593.6249    935.1818 307.6728803  +6.3134910     752.1964      1263.94     1008.014      77.8924     155.7848     311.6626      1.745     4.32     846.8502     54.94653     127.1972         7     1.202     0.441  21.75   0
        58    634.7715    931.5776 307.6559213  +6.3163524     840.6382     1199.338     782.0192     77.64394     155.7228     311.6006      1.397     4.08     846.3289     54.94653     138.0686         8     1.015     0.740 -75.76   0
        59     20.5663    931.9488 307.9108453  +6.2956429     937.3194     1271.835       1209.5     78.01633     155.9088     311.6316      1.637     6.38     840.0165     54.94653     139.8372        11     1.410     0.811  23.45   0
        60   1001.0608    930.0040 307.5039289  +6.3292022     1007.782     2000.116     3008.468     77.51942     155.7228     311.4456      2.101     5.37     841.0213     54.94653     143.7942        14     1.594     0.703  36.38   0
        61    555.5340    930.5859 307.6888446  +6.3141169     1139.298     1644.348     1911.243     77.64394     155.7848     311.6626      1.525     4.59     846.9629     54.94653      158.288        13     1.300     0.693  40.66   0
        62    688.5536    927.8404 307.6337216  +6.3196896     2146.964     3370.319     2971.671     78.01634     155.9088     311.5696      1.728     4.09      845.424     54.94653      329.121        24     1.718     0.887  42.33   0
        63     85.1214    924.1984 307.8843118  +6.3010093     2470.852     4644.535     5026.833     77.51942     155.3501     311.5076      1.967     4.73     840.8521     54.94653     333.1131        29     1.556     1.165  51.93   0
        64    849.8456    924.6592 307.5668763  +6.3263779     726.0445     1186.099     1375.474     78.01634     155.9088     311.8176      1.656     4.21     843.3156     54.94653     116.7205         8     1.106     0.549  19.89   0
        65    102.5948    923.4734 307.8770838  +6.3018948     1807.911     3006.558     3816.959     77.76827     155.4744     311.6316      1.852     4.91     841.1457     54.94653     222.2662        20     1.564     0.823  36.85   0
        66    228.9390    923.1985 307.8246526  +6.3062435     2116.901     3483.568     3527.754     77.51942     155.7228     311.4456      1.723     4.40     843.3495     54.94653     283.2187        21     1.555     0.820  36.97   0
        67    965.7122    923.1102 307.5188314  +6.3308733     639.0597     1136.247     1489.032      77.8924     156.4037     311.8176      1.833     5.34     841.4438     54.94653     109.9633         8     1.480     0.644  18.13   0
        68    985.4293    921.1687 307.5107114  +6.3323307     582.1234     852.9301     1249.812     77.64394     155.6607     311.4766      1.603     5.87        841.1     54.94653     94.09393         8     1.154     0.931  -6.97   0
        69    683.1882    917.2298 307.6363027  +6.3238919     6250.782     10267.12     11166.91     77.64394     155.6607     311.6006      1.728     4.31     845.2736     54.94653     843.2751        33     1.612     1.018  36.94   0
        70    367.4827    919.1816 307.7672819  +6.3125402     879.6593     1491.996     1910.868     77.76827     155.5986     311.6936      1.656     5.58      845.941     54.94653     119.7671        10     1.393     0.630  33.83   0
        71    263.3066    920.3787 307.8104823  +6.3085590     766.1517     939.3433      846.882     78.01634     155.7228     311.5386      1.243     3.02     843.6822     54.94653     137.3101         7     0.941     0.471  -8.09   0
        72    820.7979    917.9980 307.5791558  +6.3281611     704.6774     1311.098     1319.622     77.51942     155.4744     311.4145      1.884     5.28      843.416     54.94653     106.9681         8     1.161     0.678  -5.64   0
        73     43.2735    915.5152 307.9019723  +6.3031903     1015.617     1652.034     1425.126     78.26362     156.2183     311.7556      1.861     6.43     840.0386     54.94653     136.1614        15     1.405     0.825  31.45   0
        74    921.1329    913.2190 307.5376656  +6.3334746     2416.645     4233.507      4619.03     77.76827     155.9088     311.6316      1.874     4.50      842.115     54.94653     324.7041        24     1.510     0.987  36.97   0
        75    472.4493    915.2728 307.7238432  +6.3176641     570.0468     853.0429     751.9911     78.14008     155.9707     311.7556      1.231     3.33     846.3383     54.94653     94.81781         5     0.723     0.466  71.65   0
        76     56.4602    914.1011 307.8965466  +6.3042167     1029.108     1498.962     1628.486      77.8924     155.8468     311.8486      1.613     5.61      840.205     54.94653     145.7731        13     1.478     0.673  46.80   0
        77    366.1590    910.3887 307.7681255  +6.3161266     14915.75     24457.14     26536.95     77.51942     155.7228     311.4456      1.757     4.43     845.6227     54.94653     2245.015        50     1.760     1.061  29.49   0
        78    101.0887    911.6081 307.8781069  +6.3067434      1092.73     1876.362      2414.74     77.64394     155.5986     311.4766      1.788     5.20     840.8854     54.94653     166.5562        11     1.336     0.573  41.20   0
        79    237.0692    909.9506 307.8217219  +6.3119859     1127.371     1839.659     1885.189     78.14008     155.8468     311.7556      1.694     5.69     843.2603     54.94653     168.3324        15     1.591     0.686  28.12   0
        80    443.9566    901.4443 307.7361323  +6.3224216     994.5464     1394.442     1541.095     78.14008     155.9088     311.6006      1.578     3.43     845.7623     54.94653     133.5458        11     1.030     0.709  44.19   0
        81    129.3666    900.8591 307.8667304  +6.3121299     1583.678     2832.321     2520.231     78.01634     155.9707     311.6936      1.855     5.72     841.2323     54.94653     199.4355        22     1.711     0.920  36.26   0
        82    697.6185    897.2726 307.6309783  +6.3326137      853.675     1351.737     2078.994     77.64394     155.8468     311.6626      1.723     5.24     844.8059     54.94653     136.6481        10     1.203     0.676  44.05   0
        83    524.8803    898.0617 307.7026549  +6.3265226     580.0511     873.8192     1174.455     78.26362     155.9088     311.7246      1.710     5.38     846.1365     54.94653     108.4528         7     1.350     0.606  32.59   0
        84    911.2398    895.0856 307.5423757  +6.3406329     1610.866     2852.234     2402.744     78.14008     155.8468     311.7246      1.864     5.42     842.1851     54.94653     221.2408        19     1.484     0.990  32.55   0
        85    882.2109    894.7161 307.5544382  +6.3398194     1843.039     3049.662     3322.044     77.76827     155.6607     311.5696      1.852     4.65     842.7674     54.94653     239.6664        20     1.542     0.851  26.15   0
        86    112.9371    894.6738 307.8737572  +6.3141328     2250.923     3733.418     4137.592     78.38696     155.9088     311.7246      1.816     4.46     840.7884     54.94653     302.0928        23     1.626     0.858  34.28   0
        87    845.3659    894.0031 307.5697566  +6.3388871     2693.114     4433.591     5063.638     77.39468     155.7228     311.4766      1.824     4.76     843.2287     54.94653     329.4729        26     1.653     0.912  32.92   0
        88    476.2405    892.4412 307.7230326  +6.3272181     527.6078     964.9194     1541.486      77.8924     155.9088     311.6006      1.661     4.07     845.4441     54.94653     105.4909         6     1.047     0.652  49.14   0
        89    581.1211    885.5142 307.6797287  +6.3335817     303640.7     496151.1     534626.4     78.01633     156.2183     311.8176      1.783     4.53     846.0375     54.94653     47580.41       193     2.119     1.298  27.28   0
        90    425.5313    888.2789 307.7442206  +6.3272416       7191.1     11429.53     11803.84     78.26362     156.0946     311.6936      1.728     3.98      845.214     54.94653     966.7875        36     1.682     0.991  30.80   0
        91    669.4537    888.6570 307.6429569  +6.3352318     1037.158     1719.005     1741.449     78.26362     155.9088     311.7246      1.775     6.04     844.8504     54.94653     142.0274        14     1.384     0.807  31.27   0
        92    368.6642    886.5882 307.7678820  +6.3260377     11713.82     18620.16     20252.86     77.64394     155.7228     311.5386      1.747     4.18     844.8558     54.94653     1744.518        46     1.738     1.044  31.76   0
        93    687.1945    882.7710 307.6357890  +6.3382539     3198.576     5345.983     6081.656     77.64394     155.7228     311.5386      1.779     4.19     844.6023     54.94653     465.8183        28     1.621     0.938  36.01   0
        94    919.5102    881.7098 307.5393877  +6.3464312     4452.672     7727.039     8304.748     78.14008     156.4037     311.8176      1.875     4.63     841.9105     54.94653     562.0747        37     1.865     1.086  26.80   0
        95    758.6508    879.1859 307.6062465  +6.3421166     729.5547     1285.798     1035.585     77.51942     155.9088     311.4766      1.764     5.48     844.0991     54.94653     104.8629         9     1.489     0.569  26.63   0
        96    662.0145    876.7785 307.6464412  +6.3398884     3146.865     5156.377     5287.229      77.8924     155.6607     311.6626      1.719     4.54     844.7435     54.94653     441.0574        24     1.610     0.848  32.07   3
        97    654.9081    871.5057 307.6495671  +6.3418285     1990.037     3327.218     4553.374     78.14008     156.4037     311.7246      2.029     4.19     844.7859     54.94653     284.0891        20     1.581     0.791  28.73   3
        98    850.4733    875.7994 307.5682427  +6.3465738     1388.286     2451.209     2834.671     77.39468     155.2879     311.5696      1.986     5.31     843.1289     54.94653     205.8925        18     1.682     0.725  36.09   0
        99    652.4105    875.7220 307.6504632  +6.3400042     902.0392     1882.813     3082.774     77.76827     155.5365     311.6006      2.378     6.84     844.9286     54.94653     162.1943        15     1.786     0.734  41.20   0
       100    978.0000    875.0316 307.5153297  +6.3511344     608.2822      1148.98     1461.493     77.39468     155.6607     311.4456      2.198     4.46     840.3734     54.94653     97.35699         5     0.924     0.713  26.93   2
       101    938.5382    869.4746 307.5318959  +6.3521164     2831.864     5012.722      5221.14     78.38697     155.9088     311.7246      1.885     4.74     841.3483     54.94653      332.474        32     1.778     1.066  31.36   0
       102    348.9941    870.3965 307.7765886  +6.3320650     796.1837     1218.495     781.9079     77.51942     155.5986     311.5696      1.771     3.73     844.1639     54.94653     137.0872         7     0.992     0.602  18.84   0
       103    396.4817    865.4736 307.7570416  +6.3356865     2554.898     4055.678      4629.66     78.38697     156.2183     311.7866      1.774     4.54     844.1852     54.94653     367.0298        23     1.674     0.872  33.31   0
       104    532.7442    855.1459 307.7008243  +6.3445054     2781.275     4726.877     4822.469     78.26362     155.9707     311.7246      1.753     4.27     844.9803     54.94653     402.1281        26     1.612     0.939  30.72   0
       105    878.0090    854.5167 307.5575207  +6.3562784     832.5326     1427.049     1933.117     77.76827     155.5986     311.5696      1.675     5.30     842.5358     54.94653     121.7812        10     1.333     0.666  16.68   0
       106    579.7208    851.3806 307.6814497  +6.3476290      5680.91     8994.438     10089.51     77.64394     155.5986     311.6936      1.716     4.33     845.0148     54.94653     812.7842        31     1.621     0.932  32.25   0
       107    291.6578    851.7479 307.8010127  +6.3378459     679.2416     1075.081     796.5192     78.14008     155.9088     311.7246      1.655     5.93     843.1776     54.94653     112.0413        10     1.128     0.877  44.68   0
       108    586.7189    850.7022 307.6785673  +6.3481427     1188.749     1807.633     2335.923     78.01634     156.2183     311.7866      1.721     5.49      845.015     54.94653     189.6316        14     1.516     0.663  37.40   0
       109    497.4494    850.3629 307.7156352  +6.3453012     1505.207     2294.258     2674.476     77.89241     155.8468     311.5696      1.663     3.96     844.1372     54.94653     257.1377        13     1.368     0.597  32.02   0
       110    139.5277    849.8810 307.8642225  +6.3335192     1232.438     1889.661      1948.12     78.38696     156.2183     311.7556      1.705     4.09     840.1857     54.94653     186.8733        14     1.296     0.812  33.62   0
       111    915.2833    849.9962 307.5421977  +6.3593856     1993.609     2953.188     3261.958     77.64394     155.5365     311.4456      1.487     0.00     841.5676     54.94653      997.989        13     1.152     0.923  70.04   0
       112    716.1344    848.9299 307.6249043  +6.3531924     698.9514     953.0819     1305.392     78.14008     155.9707     311.7246      1.431     5.45     844.0396     54.94653     96.68658         8     0.986     0.850  61.67   0
       113    550.3401    845.2455 307.6938508  +6.3491811     18490.77      29420.7     31520.56     78.01634     155.8468     311.8176      1.714     4.13     844.7403     54.94653     2805.296        53     1.762     1.045  33.85   0
       114    963.9329    843.4258 307.5222205  +6.3637171     3304.271     5647.137     6157.971     77.76827     155.7848     311.6316      1.880     4.32     840.3461     54.94653     450.3099        33     1.798     1.002  39.10   0
       115    436.1249    841.0030 307.7414042  +6.3471162      505.912     680.3035     897.0369     77.64394     155.4123     311.6316      1.622     4.86     843.4878     54.94653     73.76318         7     1.037     0.644 -87.82   0
       116     60.6609    835.4313 307.8974434  +6.3368397     1320.102     2181.323     2750.612     77.89241     155.9707     311.6626      1.881     5.99     838.4106     54.94653     202.1014        14     1.565     0.644  36.10   0
       117    343.0755    834.0773 307.7802610  +6.3468633      3085.72     4681.301     4827.868     78.38696     156.1565     311.7866      1.568     4.01     843.0229     54.94653     472.1696        22     1.437     0.868  29.05   0
       118    808.4204    829.6855 307.5872357  +6.3642143     49387.92     81350.09     87958.98     77.76827     155.6607     311.6936      1.812     4.34     843.1324     54.94653     7504.706        90     2.026     1.180  28.54   0
       119     42.8147    832.0081 307.9049660  +6.3376542     2114.845     3514.416      3587.57     77.76827     155.6607     311.5696      1.708     4.44     837.9728     54.94653     284.9983        21     1.481     0.850  33.71   0
       120    747.4229    831.7282 307.6124893  +6.3613382     653.5342     804.5346     1108.161     77.76827     155.7228     311.7246      1.438     3.43     843.7711     54.94653     120.8934         5     0.779     0.436 -68.93   0
       121    265.7147    827.6896 307.8125873  +6.3469107     4931.614     8230.873     10658.47      77.8924     156.2183     311.8486      1.948     4.42     841.9241     54.94653     726.5226        37     1.787     1.006  33.10   0
       122    452.4570    828.6932 307.7350362  +6.3527450     703.6955     1197.756     1554.901     78.01634     155.9088     311.8795      2.043     3.27     843.0883     54.94653     108.9349         7     0.846     0.636  21.10   0
       123    736.9744    824.3309 307.6170734  +6.3640443     19528.32     30478.72     32813.25     77.76827     155.7848     311.6626      1.650     4.18     843.7774     54.94653     2732.149        37     1.577     0.951  44.80   3
       124    730.5784    820.9263 307.6198420  +6.3652369     81181.63     130974.6       146159     77.76827     155.7848     311.6626      1.793     4.27      843.714     54.94653     12554.21       109     2.132     1.194  29.17   3
       125    933.8110    824.9268 307.5353406  +6.3703536       7364.5     12543.22      13765.2     77.64394     155.5365     311.6006      1.841     4.15     840.5496     54.94653     1034.468        39     1.695     1.059  38.23   0
       126    375.2695    821.7607 307.7673093  +6.3530260     19531.24     31202.38      33314.3     78.01634     155.9088     311.7866      1.730     4.28     842.7678     54.94653     3070.404        54     1.788     1.037  31.37   0
       127    424.7337    822.0840 307.7467654  +6.3545470     1413.013      2070.95     2131.919     78.26362     156.1565     311.7866      1.544     4.27     842.8451     54.94653     204.9636        16     1.427     0.714  34.45   0
       128    437.1874    819.6215 307.7416781  +6.3559802     21006.56     33125.92     35259.65      77.8924     155.6607     311.6006      1.694     4.13     842.7776     54.94653     3476.254        56     1.771     1.050  30.02   0
       129    264.8121    806.0358 307.8136873  +6.3558213     741482.1      1761290      2041175     77.64394     155.7228     311.5076      2.413    12.61     841.1729     54.94653     64112.39       552     2.789     1.971  25.99   4
       130    664.4332    821.2535 307.6472897  +6.3628959     673.3565     990.8195     1527.817     78.01634     155.8468     311.6936      1.549     4.14     843.4871     54.94653     109.7739         6     1.107     0.441  36.25   0
       131    974.4637    818.4660 307.5186790  +6.3743737      1859.53      3234.42     3510.955     78.14008     155.9088     311.7246      1.849     4.68     839.9583     54.94653       254.26        23     1.649     0.891  36.57   0
       132    930.7255    816.3570 307.5369066  +6.3737896      5800.79     9674.281     10897.98     78.01634     155.9707     311.7556      1.831     4.15     840.3767     54.94653      744.325        36     1.695     1.028  31.53   0
       133    903.4815    817.0530 307.5481934  +6.3725956     715.1699     1123.139     1340.981     78.14008     155.9088     311.7866      1.477     5.17      841.215     54.94653     103.2407         7     1.493     0.505  23.08   0
       134    671.2667    815.5166 307.6446444  +6.3654927     6027.972     9594.479     10446.76     78.38696     156.1565     311.7866      1.750     4.28     843.3585     54.94653     950.6919        30     1.623     0.888  35.53   0
       135    460.1461    813.6063 307.7323488  +6.3592315     1604.697     2414.507     2797.615     77.64394     155.6607     311.4456      1.631     3.79     842.5651     54.94653      253.867        14     1.291     0.727  37.11   0
       136    185.4102    812.9744 307.8464146  +6.3502960     742.1258     1143.697     924.5129     77.76827     155.7228     311.6006      1.559     3.42     839.5269     54.94653     131.8221         7     1.013     0.509  27.27   0
       137    899.7994    807.8147 307.5500295  +6.3762877     675.0115     981.4279     1320.367     77.76827     155.5986     311.5076      1.392     3.89     841.1364     54.94653     108.6002         6     0.763     0.568  37.31   0
       138    624.4302    807.6590 307.6643497  +6.3671744     888.2344     1383.966      1876.42     77.89241     155.9088     311.6626      1.919     4.44     843.1874     54.94653     136.6742        10     1.210     0.560  33.97   0
       139    150.5904    806.1774 307.8610962  +6.3519351     1025.026     1466.643     1025.701     77.76827     155.6607     311.5696      1.548     4.46     838.6795     54.94653     154.3263        11     1.075     0.742  37.01   0
       140    706.4479    805.5347 307.6303726  +6.3707877      2365.23     3627.359     4068.056     78.01634     155.8468     311.7866      1.729     4.89     843.3713     54.94653     335.5067        18     1.387     0.798  32.73   0
       141    175.0456    806.1835 307.8509446  +6.3527525     745.1389     1676.707     1902.877     77.64394     155.7848     311.5076      2.243     4.89     839.0365     54.94653     159.8494         8     1.466     0.462  26.44   0
       142    440.0219    802.2405 307.7410827  +6.3632517     49809.54        80791     86971.75     77.76827     155.7228     311.5386      1.730     4.54     842.1649     54.94653     7961.801        88     1.964     1.146  27.39   0
       143    983.2330    803.9058 307.5155228  +6.3806775     647.6729     1051.053     985.6816     78.26362     155.7848     311.8176      1.494     2.25     839.8053     54.94653     121.4514         5     0.813     0.643 -34.40   0
       144    557.9197    801.3314 307.6921712  +6.3675667      6770.98     10669.17     11167.45     78.26362     156.1565     311.6936      1.676     4.14     842.7546     54.94653     1004.286        30     1.580     0.908  35.90   0
       145    474.7563    799.9098 307.7267417  +6.3653752     4261.497     6783.298     8286.697     78.14008     155.8468     311.8176      1.745     3.99     842.0547     54.94653     658.0114        27     1.615     0.885  36.15   0
       146    227.5266    800.0437 307.8293655  +6.3570464      707.584     1556.925     2288.354     78.01633     155.9707     311.7556      2.730     5.96     839.9219     54.94653     108.0452        10     1.623     0.615 -57.63   0
       147    803.1177    797.8508 307.5904977  +6.3771826     10605.05     17230.19     18364.05     78.14008     155.9707     311.7556      1.716     4.15     842.8852     54.94653     1540.319        40     1.708     1.011  35.48   0
       148    698.5821    797.3542 307.6339108  +6.3739032     505.6434      792.446      1393.83     77.64394     155.7848     311.4766      1.597     3.47     843.0739     54.94653      98.4162         5     1.037     0.336  20.29   0
       149    205.2601    794.5613 307.8387922  +6.3585639     747.0984      1329.06     1761.622     78.14008     155.9707     311.7556      2.038     6.29     839.2714     54.94653     93.55847         9     1.263     0.881 -23.36   0
       150     32.4908    793.9624 307.9105286  +6.3530163     1008.511     1598.382     1959.236     78.26362     155.8468     311.7556      1.918     5.20     836.5443     54.94653     139.4606        14     1.330     0.807  30.12   0
       151    471.2615    793.3395 307.7284121  +6.3679713     2147.528     3624.156     4391.634     78.14008     155.9088     311.7556      1.885     4.64     841.7899     54.94653      324.011        22     1.556     0.997   8.28   0
       152    824.8872    792.1242 307.5816511  +6.3802723     1124.475     1981.201     2165.321     78.14008     156.2183     311.8176      2.078     5.51     842.4633     54.94653     163.9968        16     1.593     0.767  31.00   0
       153    168.9839    790.3123 307.8539930  +6.3591024     2702.463     4459.568     4992.285      77.8924     155.6607     311.6006      1.797     4.91     838.3716     54.94653     346.0179        26     1.649     0.927  27.17   3
       154    160.8864    789.9993 307.8573648  +6.3589602     10669.23     17520.76     19253.63     77.39468     155.4123     311.4145      1.716     4.12     838.2056     54.94653     1512.707        44     1.737     1.064  26.28   3
       155    153.1948    787.5328 307.8606403  +6.3597207      2961.86       5096.2     6548.327     77.64394     155.5365     311.5386      2.032     4.17     838.1017     54.94653     452.6011        29     1.587     0.993  29.57   3
       156    997.9777    786.5107 307.5099801  +6.3883505     1223.617     2014.264     2226.113     78.14008     155.7228     311.6006      1.724     6.47     839.4839     54.94653     181.9275        19     1.570     0.906  39.73   0
       157    948.6014    786.3466 307.5304841  +6.3867761     5742.498     9496.042     10188.64     77.51942     155.5365     311.3214      1.797     4.22      839.798     54.94653     769.4716        36     1.694     1.017  32.52   0
       158    227.3547    787.6711 307.8298515  +6.3621493     680.5494     1098.825     2482.892     78.14008     155.9088     311.7246      3.643     5.80     839.5186     54.94653     90.06427         8     0.991     0.957 -12.87   0
       159    237.9812    787.1644 307.8254573  +6.3627145     392.5596     1356.304     3623.511     77.64394     155.7228     311.5076      4.138     5.65     839.7321     54.94653     68.13324         5     1.522     0.592 -18.95   0
       160    704.1668    784.2611 307.6320291  +6.3794957         1680     2514.552     3285.616      77.8924     155.9707     311.6626      1.670     4.02     842.5433     54.94653     267.4675        16     1.377     0.747  38.09   0
       161    591.1058    783.3242 307.6789960  +6.3761101     2164.293     3614.203     3502.328      77.8924     156.0946     311.7246      1.716     4.66     842.0885     54.94653     339.4308        21     1.567     0.834  31.31   0
       162    439.0608    783.1137 307.7421213  +6.3711170     956.2827     1602.868     1680.639     78.26362     156.0327     311.7866      1.817     5.99     841.3294     54.94653      147.223        12     1.528     0.760  35.96   0
       163    722.8207    781.5931 307.6243741  +6.3812194     503.1949     713.3354     597.9894     77.76827     155.6607     311.5386      1.320     3.57     842.5978     54.94653     89.78918         5     0.980     0.375 -84.87   0
       164    153.1617    780.9517 307.8608748  +6.3624369     1950.956     3203.767     4018.355     78.01634     155.9707     311.6006      1.831     4.30     837.8878     54.94653     277.1661        19     1.427     0.807  40.80   0
       165   1003.3410    777.8544 307.5080414  +6.3921032     1632.956     2751.094     2779.995     78.26362     155.8468     311.7246      1.812     5.37      839.287     54.94653     222.0768        21     1.639     0.897  47.52   0
       166    972.4623    777.8903 307.5208596  +6.3910615       2597.7     4250.917     4613.135     78.14008     156.0327     311.7866      1.738     4.55     839.5362     54.94653     337.0277        26     1.634     0.896  31.62   0
       167    942.8610    778.2896 307.5331353  +6.3899120     2747.587     4494.141     4975.016     78.14008     156.0327     311.7866      1.825     4.33     839.7692     54.94653     384.0532        23     1.594     0.840  34.92   0
       168    695.2610    777.7736 307.6359426  +6.3818775     1236.405     2293.815     3017.598     77.76827     155.9088     311.6316      2.211     6.33     842.2141     54.94653     194.4572        15     1.641     0.687  40.64   0
       169    842.3365    776.0347 307.5749431  +6.3874971     925.8491     1448.802     1558.705     78.01633     155.9707     311.7246      1.778     5.49     841.7776     54.94653     118.5787        12     1.384     0.614  31.70   0
       170    918.1836    773.8380 307.5435283  +6.3909290     614.4436       1002.8     1187.113     77.76827     155.7228     311.4766      1.780     3.32     840.0995     54.94653     106.8679         5     0.952     0.336  44.63   0
       171    267.5423    772.7390 307.8136694  +6.3696609     1826.496     3085.743     3749.962     78.26362     155.8468     311.7556      1.896     4.54     839.7063     54.94653     266.9918        20     1.480     0.889  24.51   0
       172    287.6888    768.1543 307.8054598  +6.3722287     525.9849     976.2653     729.6691     78.14008     155.7848     311.8176      1.687     4.74     839.7346     54.94653     93.51624         8     2.037     0.313  40.38   0
       173    183.4709    767.9255 307.8487300  +6.3688315     783.4073     1192.171     1188.897     78.38696     156.0327     311.7246      1.651     4.27     837.9881     54.94653      142.787        10     1.244     0.765  49.01   0
       174    960.7233    768.0847 307.5260593  +6.3947200     1052.495     1592.931     1239.407     78.26362     156.2183     311.8176      1.547     4.78     839.5093     54.94653     178.9371        11     1.263     0.651  16.36   0
       175    988.1171    764.9270 307.5147916  +6.3969349     2136.242     4594.858     5308.726     78.38696     156.2183     311.7556      2.174     8.60     839.2018     54.94653     505.0206        25     1.702     1.214 -38.08   0
       176    934.2947    766.3865 307.5370877  +6.3945419     881.9249      1414.99      1530.78      77.8924     155.6607     311.5696      1.614     6.72     839.7548     54.94653     140.5968        14     1.726     0.733  42.03   0
       177    707.2905    765.1265 307.6313705  +6.3875008      721.085     1071.516     1564.092     78.14008     156.1565     311.7556      1.587     4.72     841.7418     54.94653     130.4901         7     1.378     0.458  50.83   0
       178    655.6216    759.0579 307.6530231  +6.3882831     692.7054     1028.135     1267.386     77.76827     155.8468     311.5386      1.717     3.69     841.1812     54.94653     121.8259         7     0.960     0.547  32.66   0
       179    830.3409    757.2623 307.5805484  +6.3948489     921.8088     1669.478     1857.914     78.14008     155.8468     311.7556      1.991     5.60     841.5495     54.94653      153.641        10     1.500     0.590  55.72   0
       180    916.5552    754.8410 307.5448367  +6.3987190     1401.568     2188.094     2421.134      77.8924     155.9088     311.5696      1.820     6.29     839.9027     54.94653     211.8738        21     2.002     0.783  41.61   0
       181    891.3430    750.3842 307.5554521  +6.3997202     787.1457     1396.833     1044.767     77.51942     155.8468     311.4766      1.673     5.13     840.1558     54.94653     120.2396         8     1.393     0.534  36.63   0
       182    678.1401    750.1746 307.6439710  +6.3927023     466.3501     924.7247     1293.937     77.76827     155.9088     311.6006      1.936     3.86     840.8401     54.94653     87.71625         5     1.335     0.320  29.79   0
       183     72.6698    745.5318 307.8954760  +6.3743614     2288.052     3575.617     3809.803     78.14008     156.0327     311.6936      1.731     4.53     836.3362     54.94653     400.1459        25     1.693     0.878  36.87   0
       184    873.5810    746.1160 307.5629682  +6.4008913     1297.937     2081.012     1974.696     77.76827     155.5986     311.6936      1.625     4.75     840.2399     54.94653     201.1305        12     1.349     0.588  31.00   0
       185    136.7823    744.0026 307.8689133  +6.3771437      883.657     1896.951     1746.489     77.76827     155.4744     311.5076      2.138     7.79      836.692     54.94653     114.0056        16     1.732     0.980  50.47   0
       186    590.6305    740.3364 307.6806288  +6.3938442      607.225     828.9736     398.5029      77.8924     155.9707     311.6626      1.668     3.66     840.2974     54.94653     92.98871         6     0.850     0.515  44.48   0
       187    685.2815    733.8143 307.6415521  +6.3996959     5747.616      9220.94     10202.79     77.76827     155.6607     311.5386      1.732     4.16     840.2721     54.94653      958.079        32     1.673     0.892  35.58   0
       188    632.0377    733.2882 307.6636740  +6.3981367     1382.405     2220.891     2789.203     78.14008     155.7848     311.7246      1.848     4.06     840.1707     54.94653      238.688        12     1.258     0.616  31.68   0
       189    553.8273    733.4044 307.6961391  +6.3954776     584.6385      827.066     489.2296     77.64394     155.7228     311.5696      1.494     4.36     840.0234     54.94653     105.0321         7     1.105     0.581  38.13   0
       190    543.6998    733.6119 307.7003366  +6.3950536      679.347     872.2653     718.7022      77.8924     155.6607     311.5076      1.675     4.28     840.0078     54.94653     117.0023         7     1.153     0.453  38.14   0
       191   1022.1663    729.0422 307.5018490  +6.4128844       2157.1     3503.803     3488.452      77.8924     143.7878     257.5158      1.735     4.81     837.8688     54.94653     308.2578        22     1.519     0.911  37.93  24
       192    148.1420    729.8171 307.8646735  +6.3833817       3471.5     5499.112     5920.038     77.64394     155.8468     311.4766      1.649     4.28     836.4508     54.94653     567.1797        24     1.509     0.880  33.84   0
       193    658.9957    729.4446 307.6526105  +6.4006233     2045.641     3302.993     3399.907     77.51942     155.5365     311.4145      1.656     4.63     840.0881     54.94653     359.0928        18     1.537     0.726  35.08   0
       194    802.0086    725.8378 307.5933578  +6.4068807     18435.99     29877.99     31830.44     77.39468     155.6607     311.4766      1.726     4.32     841.4401     54.94653     2864.438        54     1.912     1.020  29.30   0
       195    932.2167    725.4977 307.5393112  +6.4113565     3251.964     5200.772     5553.987     78.14008     155.7228     311.5386      1.678     4.46     839.3343     54.94653      502.204        24     1.684     0.774  37.10   0
       196    529.9512    726.1711 307.7062929  +6.3976667     914.4897     1273.943     1361.603     77.76827     155.9707     311.6316      1.439     4.27     839.8083     54.94653     129.6179        11     1.272     0.592  34.08   0
       197    501.4614    726.3872 307.7181132  +6.3966255     1336.974     1915.781     1791.067     77.64394     155.7228     311.4456      1.389     3.86     839.6606     54.94653      258.495        11     1.316     0.517  39.32   0
       198    347.2605    725.9882 307.7821418  +6.3916334     611.0043     1039.874       1002.3     77.51942     155.7848     311.4456      1.530     3.96     838.1904     54.94653     114.3463         6     0.914     0.491  56.01   0
       199    303.8020    725.2447 307.8002078  +6.3904856     501.0691     737.7001      1221.34     77.51942     155.4744     311.3525      1.716     3.67     837.7408     54.94653     100.8407         5     0.909     0.604 -27.81   0
       200    665.1080    719.9827 307.6503888  +6.4047341     836.1899     1280.742     1240.259      77.8924     155.6607     311.6006      1.572     5.29     839.9264     54.94653     138.0352        10     1.317     0.601  37.52   0
       201    275.6438    719.6318 307.8120853  +6.3918602     5919.084     9382.223     9955.364     77.76827     155.9088     311.6006      1.705     4.08     837.4028     54.94653     1028.466        32     1.630     0.912  34.56   0
       202    111.3498    721.4368 307.8802279  +6.3856079     522.6906     738.8033     983.4341     77.89241     155.8468     311.6006      1.750     5.19     836.2028     54.94653     95.51941         5     1.329     0.574  27.84   0
       203    682.6078    718.7218 307.6431656  +6.4058386     6770.284     10553.29     11182.96     77.76827     155.4123     311.5076      1.711     4.28     839.9816     54.94653     1106.658        32     1.659     0.934  29.38   0
       204    378.1304    718.7501 307.7695687  +6.3956550     632.5034      1158.69     1623.407     78.14008     155.8468     311.7556      1.424     3.64     838.2467     54.94653     110.6249         5     1.129     0.338  14.57   0
       205    942.5807    711.2733 307.5354817  +6.4175748      1043.27      1707.64     1905.396     77.76827     155.8468     311.6316      1.797     4.87     838.8008     54.94653     160.2474        14     1.446     0.756  33.44   0
       206    754.4079    707.0763 307.6137453  +6.4130413     3514.333       5584.3     6335.142     77.76827     155.4123     311.5076      1.723     4.10     840.4008     54.94653     512.4057        26     1.606     0.855  36.57   0
       207    709.6751    707.5606 307.6323007  +6.4113499     902.8808     1502.452     1480.038     78.01634     155.9088     311.7556      1.665     4.22     840.0529     54.94653     170.9911        10     1.260     0.519  41.46   0
       208   1020.6238    703.5999 307.5033354  +6.4233388     7759.972        13201     13978.21     77.76827     155.2879     277.8709      1.828     4.49     836.6605     54.94653       1069.2        42     1.816     1.075  30.67  24
       209    959.0746    704.0303 307.5288749  +6.4211142     2139.637     3594.256     4297.595     78.01634     155.9088     311.7246      1.916     4.66     838.2305     54.94653     301.9659        25     1.669     0.913  37.54   0
       210     19.5714    705.6420 307.9188573  +6.3890491     688.6303     1131.488     1165.112     77.76827     155.8468     311.6006      2.096     4.89      835.647     54.94653     86.09686         9     1.336     0.507  39.80   0
       211     39.4518    703.4966 307.9106766  +6.3906024     1792.686      3062.44     3787.033     78.01634     155.8468     311.9724      1.886     5.74     835.7164     54.94653     300.0752        23     1.899     0.825  24.93   0
       212     97.8904    698.6162 307.8865810  +6.3945787     24020.86     38479.36     41389.14      77.8924     155.7228     311.6006      1.721     4.34     835.9001     54.94653     3516.646        58     1.788     1.077  29.19   0
       213    559.3304    699.4234 307.6949897  +6.4096923      2068.72     3312.864     3347.957     77.76827     155.7848     311.6936      1.666     4.49     839.5581     54.94653     335.3318        18     1.401     0.791  34.60   0
       214    949.4437    695.8754 307.5331448  +6.4241611     896.9276     1517.411     790.2291     78.01634     155.9707     311.7556      1.780     6.37     838.2794     54.94653     137.5891        12     1.266     0.901  31.14   0
       215    527.9882    696.5845 307.7080965  +6.4098176     1241.812     1933.907     1902.547     78.01634     155.5986     311.6626      1.647     4.18     839.3198     54.94653     234.9493        12     1.292     0.602  33.51   0
       216    568.2570    693.1965 307.6914917  +6.4125616     874.6182     1231.906     1410.636     77.51942     155.7228     311.4145      1.539     5.66     839.5482     54.94653     148.4044        10     1.270     0.710  33.22   0
       217    743.9752    690.7780 307.6186201  +6.4194233     3329.253     5328.339     5783.272     77.64394     155.7228     311.6936      1.660     4.24     840.0358     54.94653     535.2528        24     1.656     0.784  33.92   2
       218    738.5447    690.2495 307.6208923  +6.4194605      5015.86     5323.331     5669.154     78.14008     155.9088     311.7556      0.741     0.91     840.0231     54.94653     1911.122         6     0.508     0.493 -55.03   3
       219    766.1174    689.0720 307.6094841  +6.4208658     3892.941     6157.576     6272.723     78.38696     156.2183     311.7556      1.665     4.27     839.9589     54.94653     607.2089        28     1.679     0.861  33.28   0
       220    433.7008    687.6039 307.7475408  +6.4103741     1313.725     1998.939     1470.766      77.8924     155.5986     311.3835      1.645     4.77     838.2694     54.94653     205.4052        14     1.435     0.692  37.85   0
       221    597.6065    687.0092 307.6795135  +6.4160964     3150.377     4774.616     4834.082     77.51942     155.7228     311.5696      1.586     4.10      839.744     54.94653     536.4464        23     1.509     0.793  38.74   0
       222    341.4608    686.0126 307.7858877  +6.4079452     1399.841      2115.69     2047.273     77.64394     155.7228     311.4456      1.597     5.17     836.6611     54.94653     220.6676        14     1.361     0.735  31.99   0
       223    257.9828    686.4172 307.8205299  +6.4049828     1554.423     2510.009     2892.638      77.8924     155.5986     311.6626      1.677     4.73     836.1181     54.94653     281.7678        18     1.566     0.778  41.00   0
       224   1004.2211    683.9804 307.5107979  +6.4308946     6978.567     12022.92      12786.9      77.8924     155.8468     311.6626      1.851     4.53     836.2215     54.94653     943.0413        41     1.774     1.098  33.69   0
       225    557.9973    684.8179 307.6960311  +6.4156785     554.8706     1049.689     1082.138     77.76827     155.4744     311.5076      2.176     4.27      839.351     54.94653     111.9529         7     1.208     0.594  29.49   0
       226    724.2957    682.6038 307.6270630  +6.4221424     972.4984     1602.417     1746.448      77.8924     155.5986     311.4456      1.614     5.14     839.7702     54.94653     162.9821        12     1.480     0.648  20.29   0
       227    115.7192    681.0861 307.8797680  +6.4024149     778.9208     1144.382     1403.152      77.8924     156.1565     311.8486      1.670     4.54     835.7839     54.94653     156.7532        10     1.354     0.546  42.03   0
       228    449.6241    678.5026 307.7412345  +6.4146646     2805.816     4556.292     4955.929     78.26362     155.6607     311.6006      1.770     4.23     838.3066     54.94653     433.5763        22     1.549     0.767  39.40   0
       229    162.6238    677.5370 307.8604152  +6.4054535     22721.01     36043.44     38322.41     77.76827     155.9088     311.6316      1.748     4.32     835.9506     54.94653     3556.974        61     1.863     1.037  30.39   0
       230    830.9506    678.1928 307.5829295  +6.4275181     1089.577      1731.44     1842.444     77.64394     155.7228     311.3525      1.763     6.04     839.3627     54.94653     172.9919        14     1.615     0.777  19.71   0
       231    382.2940    672.1382 307.7694001  +6.4150404     709.7208     1068.021     1204.752     78.01634     155.9707     311.7556      1.747     5.35     836.8467     54.94653     136.9498         8     1.651     0.489  50.63   0
       232    999.2291    666.9492 307.5134370  +6.4377611     6128.809     10533.07     11613.62     77.76827     156.0327     311.6316      1.874     4.52     835.8639     54.94653     806.2635        41     1.918     1.005  36.47   0
       233     43.8496    666.2538 307.9101015  +6.4061272     1179.313     1819.875     1898.155     78.26362     155.9088     311.7556      1.596     5.12     835.3547     54.94653     155.2797        14     1.319     0.786  51.70   0
       234    592.5742    662.2240 307.6824305  +6.4261623     46026.51     71538.17     76217.19     77.64394     155.7228     311.6316      1.713     4.50     839.2442     54.94653     6988.167        80     2.004     1.050  27.50   0
       235    236.3846    664.1255 307.8302433  +6.4134634     593.1399     967.0671     857.2891     77.64394     155.6607     311.5696      1.829     3.87     835.0648     54.94653     104.8028         6     1.106     0.419  57.29   0
       236    957.1895    663.9730 307.5309905  +6.4375918     542.6082     1013.923     1181.986     77.76827     155.7228     311.6006      1.822     4.60      837.167     54.94653     91.13519         7     0.995     0.604  70.60   0
       237    552.2191    662.5491 307.6991739  +6.4246804      692.108     775.0318     594.2291     77.64394     155.9707     311.5076      1.102     3.28     838.7296     54.94653     140.1561         5     1.096     0.285  54.29   0
       238      1.5307    662.8029 307.9277854  +6.4061310     677.8353     874.2487     881.1133     69.64134     126.2575     237.6131      1.077     2.93     835.1973     54.94653     154.1974         6     0.684     0.651  22.02  24
       239    200.1989    659.0991 307.8454343  +6.4143261     2689.138     4280.632     4526.086     77.64394     155.5365     311.4456      1.709     4.04     835.0712     54.94653      404.673        21     1.389     0.884  39.38   0
       240    523.2682    659.3206 307.7113014  +6.4250464     706.2408     1102.297     819.5482     78.26362     156.1565     311.7246      1.741     4.27      838.291     54.94653     115.1089         7     1.099     0.474  31.93   0
       241    886.6688    657.2250 307.5604946  +6.4380314     472.4105     365.2108    -76.25391     77.76827     155.7848     311.6626      1.008     4.18     838.5295     54.94653     107.1678         5     1.106     0.450 -82.17   0
       242     93.3748    653.5872 307.8899668  +6.4130193     1189.589     1900.257      1921.37     77.89241     155.7228     311.6626      1.815     4.63     835.0461     54.94653     201.3604        16     1.462     0.704  30.90   0
       243    156.0596    653.0878 307.8639603  +6.4153283     456.1482     539.2582     100.3468     78.14008     156.0327     311.8176      1.354     3.59     835.2473     54.94653     92.07153         5     0.988     0.377  57.91   0
       244    489.8201    646.0499 307.7256317  +6.4294081     59234.78     93589.91       100102     77.64394     155.9707     311.6006      1.656     4.50     837.4019     54.94653     9315.043        86     1.988     1.086  26.69   0
       245    675.7039    642.8530 307.6485635  +6.4369352      777.748     1207.516      1191.72     78.01634     155.9088     311.9724      1.671     5.38     838.3147     54.94653     167.4377         9     1.429     0.572  39.30   0
       246    164.7624    641.3217 307.8607420  +6.4204782     1640.731     2415.356      2508.79     78.01634     155.9707     311.7246      1.634     4.06     834.8481     54.94653     266.8021        15     1.393     0.659  38.36   0
       247    960.3438    638.8203 307.5305178  +6.4480827     742.1846         1162     1054.297     77.64394     155.9088     311.5386      1.634     4.65     836.4325     54.94653     95.87549         7     1.017     0.603   1.37   0
       248    636.5381    638.5760 307.6649672  +6.4373943     859.9789     1060.342      1102.18     77.76827     155.8468     311.6316      1.337     3.09     838.5713     54.94653     136.4932         7     0.911     0.517  31.42   0
       249    444.2910    639.0723 307.7447674  +6.4307671     953.9045     1438.427     1603.532     78.01634     156.0946     311.7246      1.473     4.27     836.4899     54.94653     190.6194         9     1.253     0.586  20.39   0
       250     36.9573    637.4564 307.9139298  +6.4177859     632.5586     945.0797     1521.774     78.01634     155.8468     311.7556      1.775     5.45     834.3014     54.94653     78.57397         8     1.021     0.821  31.96   0
       251     33.6755    647.8298 307.9149438  +6.4133927     1613.425      2580.62     2773.915     78.01634     155.9707     311.7246      1.630     4.57     834.6894     54.94653     261.6448        19     1.517     0.779  37.02   0
       252    335.3547    635.3268 307.7901198  +6.4286690     1963.385     3132.817     3589.147     78.01634     155.9707     311.7556      1.775     4.34     834.4621     54.94653     301.4778        19     1.417     0.914  34.01   0
       253    487.3835    633.7744 307.7270537  +6.4343953     751.8015     1093.261     1417.943      77.8924     155.7228     311.6626      1.655     5.02     836.8033     54.94653     126.2961        10     1.324     0.644  27.49   0
       254    762.1116    629.6373 307.6131289  +6.4452736     5111.337     7910.784     8365.892     78.14008     155.7848     311.7246      1.639     3.99     838.5546     54.94653      929.332        29     1.606     0.839  34.97   0
       255    815.5600    624.7612 307.5910999  +6.4490680     12998.86     20132.58     21736.66      77.8924     155.9707     311.6006      1.688     4.29     838.3163     54.94653      2202.22        44     1.737     0.959  34.85   0
       256    558.0831    625.0031 307.6979938  +6.4403793      1067.94     1655.488      2465.26     77.51942     155.5365     311.4145      1.772     5.47     837.4002     54.94653     176.7593        12     1.484     0.568  36.84   0
       257    639.4875    622.8099 307.6642690  +6.4440028     2845.507     4216.524     4458.191     77.76827     155.5986     311.5696      1.646     4.68     838.1444     54.94653     473.2858        23     1.455     0.894  38.70   0
       258    956.8365    619.0859 307.5326307  +6.4561147      1052.71     1816.282     2623.427     78.14008     155.8468     311.7246      2.165     6.45     835.9601     54.94653     153.0997        14     1.486     0.785  53.41   0
       259    398.0058    616.7233 307.7647316  +6.4384470     806.9548     1277.008     894.6689     77.76827     155.4123     311.5696      1.628     4.97     834.6726     54.94653     126.6212        10     1.511     0.463  37.12   0
       260    251.6757    616.5383 307.8254900  +6.4336244     1295.554     2010.514     2315.407     78.38696     155.9088     311.7246      1.735     4.72       833.81     54.94653     184.7607        16     1.363     0.763  33.03   0
       261    891.6402    608.0361 307.5600684  +6.4585077      2642.13     4252.283     4301.488      77.8924     155.9088     311.5696      1.740     4.47     837.1035     54.94653     368.0699        20     1.555     0.748  36.17   0
       262    187.0056    608.3806 307.8526123  +6.4348253     709.4236     1101.318     1704.866     77.76827     155.5365     311.5386      1.713     4.96     833.8103     54.94653     110.5032         8     1.194     0.585  18.50   0
       263    850.4653    605.5761 307.5772464  +6.4581525     2411.568     3789.969     3739.844     77.76827     155.9088     311.6626      1.702     4.10     837.8771     54.94653     376.3648        21     1.550     0.774  34.15   0
       264    821.4091    601.6226 307.5894424  +6.4588172     2330.838     3960.554     5101.154     77.76827     155.6607     311.5696      1.895     4.64     837.7333     54.94653     421.1296        18     1.483     0.793  35.00   0
       265    830.8075    596.6597 307.5857055  +6.4611794     145902.2     232242.1     249806.9     77.51942     155.7848     311.4766      1.730     4.69     837.5086     54.94653     23835.37       140     2.069     1.205  28.25   0
       266    764.4409    601.9943 307.6130835  +6.4567653     626.0389     949.6951     1572.557     77.39468     155.5986     311.4456      1.557     3.60     837.8345     54.94653     111.9966         6     1.121     0.333  39.01   0
       267    278.3652    600.5698 307.8149444  +6.4411118     7366.659     11727.31     12419.98     77.76827     155.6607     311.4766      1.717     4.44     833.1112     54.94653     1253.431        37     1.697     0.956  31.74   0
       268    212.4436    595.0752 307.8424973  +6.4411717     54528.34     86811.91     93198.11     78.01633     155.9707     311.7556      1.732     4.31     833.4477     54.94653     8270.023        83     1.944     1.111  27.27   0
       269    136.4898    591.3815 307.8741549  +6.4401500     5898.286     9055.404     9255.055     77.89241     155.6607     311.6316      1.700     4.34     833.6672     54.94653     904.6816        34     1.647     0.930  31.45   0
       270   1002.0579    588.4156 307.5148748  +6.4702830      1217.53     1912.796     1507.948     77.51942     155.8468     311.4456      1.756     4.85      834.956     54.94653     172.4167        14     1.428     0.637  42.58   0
       271   1023.3018    587.0892 307.5060981  +6.4715370     568.8527     699.1013     815.9111      72.2291     129.5807     240.5228      1.148     2.37     834.7756     54.94653      111.439         5     0.836     0.458 -86.94  24
       272    867.6371    583.9873 307.5708357  +6.4676386     4070.313     6218.287     6358.469     77.64394     155.7228     311.4456      1.592     3.83     836.7305     54.94653     712.1958        23     1.540     0.801  34.18   0
       273    385.9182    582.1931 307.7709058  +6.4523001     15965.54     25223.86      27265.7     77.76827     155.5365     311.5696      1.666     4.41     833.3435     54.94653     2494.727        51     1.783     0.984  32.80   0
       274    187.6964    581.3097 307.8532333  +6.4460258     1929.043     3007.893     4331.251     78.14008      156.342     311.7246      1.807     4.43     833.3296     54.94653     283.9572        18     1.605     0.693  33.08   0
       275    193.7216    579.1983 307.8508026  +6.4470996     678.0154      1351.68     2634.361     77.51942     155.3501     311.5076      2.829     4.69     833.2239     54.94653     106.9834         8     1.013     0.783  41.88   0
       276    125.4238    578.6625 307.8791760  +6.4450304     750.9554     1013.028     1100.652     77.76827     155.9088     311.6316      1.423     5.41     833.5628     54.94653     136.4682         9     1.209     0.683  49.76   0
       277    821.5201    577.3503 307.5902052  +6.4688432     5581.634     8632.447     8786.976     78.14008     155.9707     311.7246      1.675     4.16     836.7213     54.94653     887.6844        31     1.592     0.938  31.08   0
       278    552.3590    577.1505 307.7019693  +6.4599467     6251.691     9641.952     10210.18     78.26362     155.9088     311.6626      1.653     4.17     835.9608     54.94653     1016.143        31     1.602     0.881  35.49   0
       279    263.1327    578.9934 307.8219915  +6.4495103     814.4666     1234.901     1297.523     77.64394     155.6607     311.5386      1.630     3.98     832.6616     54.94653     168.3948         7     1.034     0.487  53.96   0
       280    410.6167    573.8054 307.7609319  +6.4565898     1343.294     2093.919     2201.616     77.76827     155.5986     311.5696      1.663     4.39     833.5562     54.94653     224.9462        14     1.522     0.619  37.46   0
       281    199.2812    570.2660 307.8487939  +6.4509741     6525.429     10307.07     11565.21     78.38696     156.0946     311.7556      1.735     4.29     832.9667     54.94653     1039.436        33     1.633     0.917  36.00   0
       282    880.7280    570.4960 307.5658495  +6.4736452     539.5984      656.267     638.6459     78.01634     156.0327     311.6936      1.287     4.24     835.8769     54.94653     108.3337         7     0.970     0.529  61.19   0
       283    838.3870    569.8525 307.5834516  +6.4725009     1287.997     2015.643      2569.77     77.51942     155.8468     311.4766      1.728     4.15     836.3159     54.94653      252.912        13     1.384     0.603  39.93   0
       284    597.0693    570.1891 307.6836380  +6.4643143     2063.143     3851.292     4100.532     77.64394     155.7228     311.5696      1.994     4.18     836.6473     54.94653     340.6892        26     1.665     1.103  10.11   0
       285    294.3794    566.6970 307.8094304  +6.4556342     81696.52     128996.1     138050.2     78.01634     155.7228     311.5386      1.730     4.51     832.2713     54.94653      13836.8       103     2.034     1.120  27.56   0
       286     70.8391    569.1528 307.9021571  +6.4471252     4699.257     7529.085     7891.419     78.01634     155.9088     311.5386      1.702     4.28      833.356     54.94653     665.7435        31     1.698     0.917  31.63   0
       287    476.1953    582.1599 307.7334247  +6.4553332     785.4421     1163.589     1057.324     77.39468     155.6607     311.4456      1.630     5.47     834.9312     54.94653     121.1752        11     1.338     0.630  33.94   0
       288    584.9907    564.9409 307.6888285  +6.4660780     667.5163     926.0325     1282.992     77.51942     155.7848     311.4456      1.527     3.09     836.2863     54.94653     143.9583         5     0.887     0.457  46.47   2
       289    994.2447    560.6641 307.5190422  +6.4814822      1345.98     2065.689     2043.182     78.14008     155.8468     311.7246      1.566     3.98      834.577     54.94653     232.3065        16     1.443     0.664  39.42   0
       290    817.6727    559.1186 307.5924103  +6.4762431      15128.7     23668.22     25512.72     78.38696     156.2183     311.7556      1.685     4.27     836.0328     54.94653      2345.93        47     1.743     0.983  35.16   0
       291    278.4437    561.7661 307.8162119  +6.4571364     1417.265     2020.465      1984.86      77.8924     155.9088     311.5696      1.450     4.06     832.1744     54.94653     249.0654        12     1.260     0.648  38.80   0
       292    521.1786    557.4805 307.7155728  +6.4670268     38297.56     64036.09     70444.21      77.8924     155.5986     311.6936      1.840     5.41     835.0877     54.94653     6012.407        88     2.083     1.177  24.92   0
       293    671.8689    555.9833 307.6530549  +6.4726766     892.6417     1507.493      1654.91     77.64394     155.7848     311.6316      1.565     4.90     836.3243     54.94653     176.7402        11     1.442     0.511  40.11   0
       294    234.0763    554.0221 307.8348922  +6.4588473     1850.362     3121.529     3801.052     77.76827     155.7228     311.6626      1.909     4.67     832.0435     54.94653     280.2183        19     1.476     0.868  34.70   0
       295    120.2373    554.3804 307.8821441  +6.4548823     567.2752     854.8416     1050.159     77.76827     155.6607     311.5076      1.416     4.32      833.365     54.94653     97.76862         7     0.957     0.554  58.20   0
       296     69.5178    554.4564 307.9031991  +6.4531488     1120.047     1953.082      2307.78     78.14008     155.9088     311.8176      1.938     5.51     833.2784     54.94653     174.4319        12     1.370     0.625  37.39   0
       297    691.4105    552.6856 307.6450511  +6.4746902     1323.657     2020.583     2045.706     77.76827     155.6607     311.5696      1.632     4.84     836.2799     54.94653     218.4493        15     1.303     0.889  30.21   0
       298    681.3237    552.7512 307.6492371  +6.4743266     2871.695     4535.911     4822.937     78.01634     155.9707     311.7246      1.693     4.27      836.269     54.94653     553.9229        22     1.484     0.833  38.90   0
       299    743.5290    551.6035 307.6234467  +6.4768751     1293.956     1988.013     1842.075     77.64394     155.5365     311.5696      1.647     4.71     836.2599     54.94653     249.3092        14     1.418     0.728  46.38   0
       300     99.0915    549.9290 307.8910728  +6.4560107     696.2821     1142.823      1323.93     78.01634     156.0946     311.7246      1.813     5.32     833.3013     54.94653     126.0763         6     1.555     0.513  19.71   0
       301    418.9731    548.1936 307.7583194  +6.4674444     1691.807     2508.806     2634.347     77.64394     155.7228     311.5386      1.591     4.80     832.9186     54.94653     270.8586        17     1.479     0.732  32.23   0
       302    165.5807    545.1171 307.8636292  +6.4602279     24407.42     38278.39     40905.29     77.76827     155.5986     311.6626      1.675     4.23      833.238     54.94653     3728.451        60     1.764     1.061  31.28   0
       303    530.3730    545.8406 307.7121443  +6.4721402     2050.754     3057.971     2867.614     77.76827     155.7228     311.5696      1.583     4.92     834.9893     54.94653     346.6771        19     1.470     0.807  38.47   0
       304    350.4466    546.4684 307.7868293  +6.4658638      3814.14     5859.761     6421.071     78.14008     155.8468     311.6936      1.702     4.37     831.9877     54.94653     597.1876        24     1.546     0.820  29.62   0
       305    893.4473    545.2467 307.5614091  +6.4844945     1428.511     2327.978     2026.529     78.14008     155.7848     311.7246      1.730     4.64     834.8021     54.94653     245.9963        17     1.590     0.768  27.69   0
       306    130.7803    543.5639 307.8781299  +6.4597020     2624.045     4037.421     3850.093     77.64394     155.7228     311.5076      1.623     4.52     833.2802     54.94653     374.6952        21     1.459     0.843  34.50   0
       307     10.9403    543.2537 307.9278952  +6.4558074     2004.437      3208.79     4036.039     78.26362     155.8468     311.7246      1.763     4.48     833.1817     54.94653     282.1607        18     1.492     0.736  33.15   0
       308    367.7144    541.6156 307.7798222  +6.4684454      983.194     1605.738      1911.43     77.76827     155.6607     311.6316      1.719     4.92     832.0465     54.94653     201.0454        15     1.500     0.692  26.62   0
       309    991.2471    539.6313 307.5209867  +6.4900673     4377.734     7131.131     7617.484     77.76827     155.9088     311.6316      1.738     4.53     834.2175     54.94653     694.9219        27     1.645     0.880  32.78   0
       310    564.4911    532.3773 307.6984280  +6.4788391     1440.952     1999.407     1523.418     78.14008     155.7228     311.5696      1.462     3.67     834.7438     54.94653     231.0833        14     1.206     0.762  32.37   0
       311     29.7276    529.4526 307.9205588  +6.4621367     23394.72     37236.95     39768.84     78.01634     155.9088     311.7556      1.752     4.46     833.1193     54.94653     3398.906        59     1.957     1.053  25.34   0
       312    243.4435    530.9615 307.8317760  +6.4686828     1918.169     1977.072     1909.579      77.8924     155.9088     311.5696      0.749     3.12     831.1088     54.94653     752.9861         7     0.765     0.371  18.77   0
       313    462.5065    526.1944 307.7409800  +6.4779838     39930.69      62224.7     65922.19     77.76827     155.5986     311.5076      1.708     4.50     833.2123     54.94653     5988.719        77     1.946     1.080  26.88   0
       314     12.2875    523.6719 307.9279938  +6.4639377     177831.1     285702.9     306830.2     78.26362     156.1565     311.7246      1.753     4.50     833.1935     54.94653     28582.55       143     2.088     1.203  24.99  16
       315    670.6703    525.8463 307.6545585  +6.4850804     11663.96     17505.04     18353.54     78.14008     155.8468     311.7246      1.610     4.23     835.2318     54.94653      1981.67        35     1.683     0.861  33.38   0
       316    310.5513    526.3615 307.8040672  +6.4728302     952.2366     1445.146     1751.745     78.14008     155.9707     311.6006      1.565     4.94      830.819     54.94653     147.3341        11     1.545     0.447  34.50   0
       317    227.7748    523.8117 307.8385213  +6.4711099     18031.62     29433.91     31747.94     77.76827     155.7228     311.6626      1.752     4.62     830.8531     54.94653     2578.208        51     1.839     1.005  32.93   0
       318    193.6472    525.1135 307.8526472  +6.4694284     1431.962     2186.658      1694.15     78.14008     155.7848     311.7246      1.524     3.81     831.6967     54.94653     264.0901        14     1.349     0.681  26.33   0
       319   1004.6761    524.1804 307.5159245  +6.4968938     1004.456     1615.969      1379.16     77.76827     155.5986     311.6626      1.632     5.21     833.7943     54.94653      139.171        16     1.393     0.921  35.47   0
       320    845.1343    524.2129 307.5821708  +6.4915708     806.0189     1368.864     1286.724     77.64394     155.7228     311.6316      1.506     4.84     834.8976     54.94653     153.7683        10     1.363     0.487  35.71   0
       321    592.4512    522.7702 307.6871395  +6.4837397     2748.049     4085.246     4024.738      77.8924     156.0327     311.6316      1.613     4.26     834.7262     54.94653      481.692        22     1.482     0.841  38.17   0
       322    966.3450    519.7682 307.5319878  +6.4974408      4370.35     6733.764     7202.772     78.01634     155.9088     311.6936      1.658     4.41      833.849     54.94653     725.6974        27     1.555     0.910  36.99   0
       323    639.4621    518.1834 307.6677727  +6.4872030     6135.021     9507.958     10025.55     77.64394     155.8468     311.5386      1.669     4.52     834.8152     54.94653     879.7853        29     1.671     0.830  31.48   0
       324    126.9967    518.7202 307.8805345  +6.4698328     1022.736     1710.734     993.5517     77.51942     155.4123     311.4766      1.567     5.86     832.4531     54.94653     137.2155        13     1.459     0.662  26.03   0
       325    239.1134    517.7561 307.8340165  +6.4739902     573.5012     839.1137     976.9593     78.14008     155.7848     311.7246      1.593     4.82     830.5234     54.94653     100.7007         6     1.183     0.556  28.08   0
       326    989.1051    512.1329 307.5227910  +6.5013505     3134.448     4927.427     4451.417     78.01633     156.0327     311.7246      1.576     4.14     833.5802     54.94653     459.0125        25     1.529     0.885  33.96   0
       327    428.3091    511.4962 307.7556709  +6.4829091     542.1715     785.4746     1138.557     78.14008     156.4037     311.7246      1.339     3.69     832.2877     54.94653     107.8627         6     0.901     0.461 -88.23   0
       328    551.7232    509.4845 307.7044945  +6.4878651     7077.566     10734.94     11486.81     78.26362     156.2183     311.8176      1.673     4.30     833.2986     54.94653     1165.905        30     1.609     0.837  36.50   0
       329    397.7436    509.7103 307.7684219  +6.4826240     2719.476     3919.117     4137.333     78.01634     155.8468     311.8486      1.593     3.95     831.6169     54.94653     426.9994        20     1.409     0.797  34.34   0
       330    768.5699    509.9381 307.6144386  +6.4949139       498.86     938.1149     931.1005      77.8924     155.9088     311.6936      1.704     4.21     835.0853     54.94653     102.4442         5     1.109     0.457 -79.11   0
       331    561.0270    506.3533 307.7007359  +6.4894688     578.5919     1021.162     1000.875     77.76827     155.9707     311.6316      1.766     4.86     833.2999     54.94653     94.86133         8     1.332     0.502  41.66   0
       332    907.6787    505.0926 307.5568370  +6.5015484     2842.288     4821.091     5752.949      77.8924     156.0946     311.7866      1.952     6.10     833.8884     54.94653     483.2578        29     2.218     0.780  27.95   0
       333    255.9206    504.8783 307.8274698  +6.4798706     739.8651     953.3078     1178.141     78.38696     156.1565     311.8486      1.310     3.95     829.7672     54.94653     131.3134         8     1.047     0.509  35.40   0
       334    915.6056    499.6101 307.5537280  +6.5040760     2093.079     3139.334     3197.452     77.64394     155.7228     311.6006      1.588     4.54     833.6417     54.94653     363.0012        19     1.456     0.788  35.86   0
       335    955.2281    499.0363 307.5372940  +6.5056314     1059.022     1730.474     1970.418     77.76827     155.6607     311.5386      1.964     4.83     833.3412     54.94653     211.2332        12     1.446     0.566  37.15   0
       336    134.5110    498.7961 307.8780832  +6.4783114     652.5493     983.0098     599.1074     77.64394     155.5986     311.4145      1.734     5.68     831.7156     54.94653     92.48291        10     1.338     0.680  49.38   0
       337    739.5421    495.6269 307.6269693  +6.4998555     2664.315     4132.065     4340.353     77.76827     155.9707     311.5386      1.639     4.37     834.7689     54.94653     452.4578        23     1.491     0.933  31.80   0
       338    450.8436    494.3394 307.7468882  +6.4907468      895.039     1378.308     1288.731     78.14008     155.9088     311.8486      1.489     4.86     832.0211     54.94653     151.7984         9     1.304     0.514  37.08   0
       339    410.4915    493.9539 307.7636561  +6.4895563     3479.474       5188.8     5055.324     78.14008     155.8468     311.8486      1.555     4.41     831.6116     54.94653     567.9214        22     1.501     0.773  37.90   0
       340    101.0780    494.7188 307.8921013  +6.4788731     1792.156     2912.748     3021.266     78.38696     156.1565     311.8795      1.755     5.09     831.9511     54.94653     294.3626        16     1.399     0.746  33.07   0
       341    638.1248    490.3636 307.6692569  +6.4986454     9445.962     14876.06     16437.59     78.01634     155.9707     311.7556      1.675     4.40      833.496     54.94653      1725.54        39     1.706     0.944  33.38   0
       342    800.8297    486.9962 307.6018081  +6.5054620      15450.3     23828.26      25307.6     77.64394     155.7228     311.5696      1.626     4.18     834.5923     54.94653     2481.692        47     1.765     0.944  33.74   2
       343    804.8890    482.1922 307.6002826  +6.5075809     1342.998     2263.309     2412.788     77.64394     155.5986     311.4766      1.787     4.45       834.49     54.94653     233.5161        18     1.559     0.801  32.30   2
       344    320.6889    487.3419 307.8011650  +6.4892808     2583.008     3879.189     3940.533     78.01634     155.8468     311.8486      1.651     4.44     828.8641     54.94653     424.1196        20     1.518     0.761  31.04   0
       345    444.7555    487.1191 307.7496577  +6.4935245     606.5282      766.283     683.6066     78.14008     155.9088     311.6936      1.301     4.42     831.7912     54.94653     93.60339         7     0.916     0.607  54.75   0
       346    830.0132    484.0588 307.5897877  +6.5076473     1223.836     1726.031     1785.131     77.51942     155.8468     311.4456      1.560     4.97     834.4711     54.94653     185.5349        12     1.281     0.656  35.33   0
       347    403.5635    483.8055 307.7668724  +6.4935148     1410.003     2354.018     3137.652     77.26975     155.6607     311.5386      1.837     5.55     831.1645     54.94653     243.5143        17     1.657     0.692  43.30   0
       348    986.0422    481.9246 307.5250680  +6.5137221     1680.165     2574.074     2943.605     78.01634     155.9088     311.7556      1.588     4.19     832.8869     54.94653      246.493        16     1.403     0.688  34.01   0
       349    392.7565    480.4879 307.7714707  +6.4945230     721.1034     1072.084     1270.646     78.14008     155.7848     311.7556      1.887     4.56     830.5916     54.94653     127.3081         6     1.183     0.499  45.12   0
       350    138.1668    478.9401 307.8772316  +6.4866324     4152.765     6707.047     7041.789     78.01634     155.9707     311.6626      1.719     4.43     830.9703     54.94653     638.7945        29     1.721     0.866  37.53   0
       351    776.6265    478.0092 307.6121579  +6.5083663     2191.812     3221.827     3541.539     77.76827     155.7228     311.6006      1.578     3.81      834.285     54.94653      407.731        19     1.448     0.774  42.18   0
       352    296.3067    476.2505 307.8116604  +6.4930438     1386.819     2177.822     2718.575     78.01634     155.7848     311.9105      1.717     4.06     828.0574     54.94653     214.9376        12     1.297     0.599  30.08   0
       353    374.3071    473.7395 307.7793573  +6.4966921     2972.873     4596.914     4992.521     78.01634     155.9088     311.7866      1.666     4.49     829.5458     54.94653     501.9293        21     1.492     0.774  38.96   0
       354    730.2908    471.4978 307.6316157  +6.5095101     1435.852     2192.362     2150.115     78.14008      156.342     311.6936      1.637     4.96     833.6956     54.94653     267.7738        16     1.603     0.699  35.86   0
       355   1003.9301    469.2298 307.5180624  +6.5195589     505.1958     852.6097     1252.231     78.01634     155.9088     311.6626      1.836     4.31     832.6396     54.94653     95.59741         5     1.001     0.562  75.96   0
       356    261.9185    469.2835 307.8261725  +6.4947685     809.5804     1340.919     995.4945      77.8924     156.1565     311.7866      1.489     4.53     828.1702     54.94653      143.259         8     1.276     0.457  39.91   0
       357    473.3937    465.1666 307.7385007  +6.5035464     483.5169     793.8365     212.9105     77.51942     155.7228     311.5386      1.884     5.11     830.8713     54.94653     75.99683         8     1.594     0.463  47.80   0
       358    571.8328    464.2259 307.6976568  +6.5072244     795.0095     1205.781     1142.527     77.64394     155.7228     311.5696      1.428     3.86     831.5925     54.94653     178.9168         6     1.067     0.401  31.68   0
       359    493.9708    462.5942 307.7300424  +6.5052964     1332.238     2146.134     2230.882     77.64394     155.7228     311.5386      1.786     4.95     830.8826     54.94653     209.2406        13     1.341     0.668  31.85   0
       360    856.4023    461.4612 307.5795827  +6.5178571     1365.855     2215.732     2258.812     77.51942     155.6607     311.4456      1.622     5.10     833.2869     54.94653     206.6027        13     1.398     0.631  36.36   0
       361    842.1161    460.7395 307.5855392  +6.5176792     1773.628      2713.95     2755.974     78.26362     155.9707     311.7866      1.536     4.69     833.3473     54.94653     299.8011        15     1.427     0.669  33.21   0
       362    739.1584    458.5659 307.6283649  +6.5151455     13826.63     21625.47      23374.3      77.8924     155.9088     311.5696      1.682     4.69      833.145     54.94653     2614.819        53     2.007     0.954  37.88   0
       363    642.0074    460.9583 307.6686266  +6.5109166     676.0547     912.3892     861.7609     77.51942     155.7228     311.4456      1.449     2.58     832.2349     54.94653     148.4436         7     0.877     0.485  44.00   0
       364    660.5842    454.7997 307.6611183  +6.5140795     2404.792     3771.033     4443.942     77.76827     155.5365     311.4766      1.917     4.23      832.051     54.94653     423.7211        23     1.565     0.825  31.03   2
       365    632.6829    449.8185 307.6728706  +6.5152051     14237.63     24648.86     30272.54     77.76827     155.5986     311.6936      2.087     6.95      831.732     54.94653     2397.792        64     2.630     0.945  32.83   0
       366    964.7926    448.5845 307.5350017  +6.5267819     3495.804     5515.126     5417.165     77.76827     155.6607     311.5696      1.672     4.00     832.2124     54.94653     573.1018        25     1.536     0.860  36.87   0
       367    403.5785    444.5799 307.7681791  +6.5097116     27661.11     42608.72     45668.58     77.89241     155.8468     311.6626      1.717     4.32     828.8957     54.94653     4516.024        63     1.887     1.016  28.33   0
       368    920.0859    444.1000 307.5537159  +6.5271459      1266.38     2337.212     3015.152     78.14008     156.4037     311.8176      2.467     8.12     832.0777     54.94653     204.8508        21     2.438     0.757  44.45   2
       369    149.9334    444.1725 307.8735127  +6.5013823     2152.485     3332.682     3072.366     77.76827     155.8468     311.6626      1.662     4.37     829.3416     54.94653     322.2621        20     1.518     0.767  37.39   0
       370    933.3889    438.9535 307.5483631  +6.5297138     4734.036      7233.62     7619.305     77.64394     155.7228     311.4145      1.619     3.93     831.9377     54.94653     838.7637        27     1.613     0.824  34.61   0
       371     83.1835    439.5554 307.9013832  +6.5010489     1411.982     2201.323      2342.34     77.64394     155.7848     311.5076      1.681     4.89     831.0425     54.94653     198.9678        14     1.382     0.664  36.96   0
       372    261.1942    435.1715 307.8276166  +6.5088289     12973.94     20655.03     22059.69     77.64394     155.7228     311.5386      1.683     4.20     827.3064     54.94653     2069.402        42     1.710     0.953  36.54   0
       373    989.6484    436.7312 307.5250744  +6.5325031     611.7168     995.5501     827.7843     78.14008     155.8468     311.7246      1.629     4.31     832.0233     54.94653      100.146         7     1.170     0.451  28.27   0
       374     97.0745    429.7299 307.8959454  +6.5055720     772.5487     1135.633     881.6647     78.26362     156.0327     311.6936      1.554     4.46     830.5391     54.94653     121.5408         8     1.243     0.455  40.63   0
       375    756.1254    428.8195 307.6223116  +6.5279937     708.1027     927.8198     1409.102     77.76827     155.7848     311.6626      1.343     4.18     831.6154     54.94653     125.3361         6     1.155     0.431  37.16   0
       376    985.1294    427.5622 307.5272562  +6.5361388     908.2272     1581.275     1863.702     78.01634     155.9088     311.7866      1.990     5.65     831.8376     54.94653     141.0732        11     1.485     0.688  32.52   0
       377    724.1836    427.7949 307.6356098  +6.5273517     615.8329     1342.708     2101.205     77.76827     155.5986     311.5696      2.422     5.40     831.3072     54.94653     105.4612         7     1.427     0.576  38.13   0
       378    374.3886    425.0725 307.7809529  +6.5167893     1264.044       2006.9     2592.788     77.64394     155.5365     311.5386      1.744     4.01     827.2169     54.94653      226.317        14     1.389     0.735  42.91   0
       379    207.7509    425.5891 307.8501290  +6.5109942     908.5314     1565.385     1904.042     77.51942     155.7848     311.4145      1.930     3.63     827.6351     54.94653     134.8829        10     0.986     0.827  58.17   0
       380    161.4379    423.7887 307.8694198  +6.5101845       4824.2     7669.981     8049.571     77.64394     155.7228     311.4145      1.738     4.21     828.1229     54.94653     769.0178        30     1.654     0.900  32.79   0
       381    459.7618    423.1949 307.7455652  +6.5204207     644.2172     892.4531     740.9421     77.26975     155.6607     311.4766      1.263     2.97     828.6365     54.94653     138.0457         5     0.897     0.349  47.04   0
       382    266.3120    422.8658 307.8259040  +6.5140813     1279.983     1829.056     2088.286     78.14008     156.0946     311.7556      1.504     4.83     826.9493     54.94653     234.9402        14     1.389     0.683  31.58   0
       383    847.6793    420.3288 307.5845757  +6.5345505     770.9122     1195.327     1054.786     78.38696     156.1565     311.6936      1.725     5.98     831.1138     54.94653     138.0232        10     1.582     0.636  36.22   0
       384    183.6241    419.3644 307.8603559  +6.5127553     2261.396     4119.859     4334.812     77.64394     155.7228     311.5076      1.944     5.15     827.6538     54.94653     379.4996        28     1.623     1.220  56.03   0
       385    579.8879    418.8242 307.6958290  +6.5262400     859.8395     1170.971     1273.647     78.14008     155.7228     311.6006      1.343     3.88     830.0801     54.94653      200.295         9     1.110     0.587  45.31   0
       386      1.2374    416.1710 307.9361939  +6.5079522     1084.262     1272.882      1472.33     66.51936     122.2137     232.9318      0.990     2.82     832.2925     54.94653     285.4258         7     1.001     0.416  84.38  24
       387    407.0572    414.4034 307.7677447  +6.5222878      2097.64     3325.412     3837.398     77.51942     155.7848     311.4456      1.624     4.27     827.1242     54.94653     297.1177        18     1.482     0.768  28.08   0
       388    294.9676    414.9686 307.8142699  +6.5183020     894.0721     1348.574     860.8082     77.64394     155.6607     311.4456      1.404     4.55     826.5459     54.94653     140.0058        10     1.252     0.618  21.18   0
       389     26.0734    415.0160 307.9259205  +6.5092633     672.2909     920.1707     894.9492     77.64394     155.6607     311.6316      1.496     4.58     831.7128     54.94653     143.6724         8     1.273     0.487  34.82   0
       390    995.6885    413.6470 307.5233343  +6.5422357     831.2045     1484.161     1538.193     78.14008     155.7848     311.8176      1.825     3.94     831.4714     54.94653     131.7366         9     1.188     0.513  38.61   0
       391      7.9369    413.0198 307.9335181  +6.5094783     801.5015     1274.544     1055.849     77.76827     155.9088     309.7659      1.431     4.85     832.0202     54.94653     138.5092        11     1.104     0.732  50.02   0
       392    632.4262    409.8763 307.6743111  +6.5316889     482.3505     837.6556     1072.919      77.8924     155.8468     311.6936      1.752     4.58      829.955     54.94653     79.67767         7     1.215     0.490  86.73   0
       393     57.1022    409.1311 307.9132344  +6.5127351      3020.47     4805.851     5687.037     78.14008     156.0327     311.7246      1.677     4.20     830.8086     54.94653     453.2711        20     1.450     0.778  35.28   0
       394    460.8626    407.9012 307.7456197  +6.5267723     6913.061     10818.17     11425.81      77.8924     155.9707     311.7866      1.623     4.08     827.9294     54.94653     1141.739        27     1.586     0.842  32.79   0
       395    793.6501    406.8150 307.6074627  +6.5383304     1854.564     3173.932     3987.733     77.51942     155.9088     311.4456      1.808     4.52     831.0569     54.94653     329.0189        21     1.659     0.767  42.24   0
       396    221.6998    408.2524 307.8449184  +6.5186200     411.5298     586.6732     1363.013     78.14008     155.9088     311.9415      1.691     3.44     827.0822     54.94653     78.67981         5     1.236     0.276  34.59   0
       397    801.3936    405.2077 307.6043007  +6.5392521     12086.45     18852.07     19685.09     77.51942     155.7228     311.5696      1.683     4.77     831.0546     54.94653     2019.429        42     1.704     0.947  34.67   0
       398    316.0078    404.9125 307.8058701  +6.5231588     595.4265     807.9744     797.3564     77.76827     155.5986     311.4766      1.198     3.91     826.3208     54.94653     101.1101         6     0.986     0.444 -38.47   0
       399    364.8280    403.5992 307.7856418  +6.5253356      1045.33     1686.945     1885.457     77.64394     155.6607     311.5386      1.767     5.55     826.4149     54.94653     188.3864        12     1.430     0.606  41.40   0
       400    210.7846    396.9955 307.8498283  +6.5229020     708.5464     981.4089     980.7455     77.76827     155.5986     311.5696      1.390     4.48     827.0763     54.94653     96.66266         7     0.959     0.595  73.78   0
       401     14.9605    395.2129 307.9312002  +6.5170665     951.1635     2474.133     4033.483     77.64394     155.7228     311.5076      3.657     8.44     831.1453     54.94653     111.3717        21     1.623     1.290  14.10   0
       402    927.3730    395.6435 307.5523034  +6.5473968     577.8404     940.4346     1094.391     77.76827     155.9707     311.6316      1.574     3.49     830.3882     54.94653     98.81976         5     1.043     0.337  69.44   0
       403    481.5338    392.2386 307.7375599  +6.5339306     2248.748     3375.404     3908.628     78.01634     155.8468     311.8176      1.604     4.24      827.515     54.94653     387.6681        15     1.379     0.692  43.30   0
       404    937.6933    391.2868 307.5481627  +6.5495392     712.7074     1119.232     988.7456     78.14008      156.342     311.8176      1.746     4.38     830.1288     54.94653     120.5272         7     1.570     0.347  45.48   0
       405    509.1242    391.5543 307.7261256  +6.5351354      2787.49     4364.952     4606.407     78.01634     155.9707     311.7556      1.582     4.67     827.9471     54.94653     448.3815        18     1.455     0.719  34.63   0
       406    866.7594    388.1321 307.5777252  +6.5484804     30213.37     49496.83     53105.33     78.01634     155.8468     311.7866      1.768     4.55     829.9551     54.94653     4404.798        68     1.846     1.151  36.08   0
       407     85.2386    385.6136 307.9023412  +6.5233898     600.4055     686.6129       587.23     77.76827     155.7228     311.4456      1.275     3.33     829.3207     54.94653     107.9841         6     0.727     0.641  70.41   0
       408    359.2468    384.2106 307.7886087  +6.5331543      819.028     1040.033     970.5331     77.64394     155.7228     311.3835      1.341     4.48      825.896     54.94653     137.0049         8     1.170     0.487  29.65   0
       409    638.6297    380.6293 307.6727117  +6.5439722     2658.605     3898.452     4067.792     77.64394     155.6607     311.4766      1.649     4.69      828.454     54.94653     435.7852        20     1.470     0.771  35.71   0
       410     46.9606    381.2573 307.9183818  +6.5239033     1197.484     1721.923     1310.996     78.14008     155.9707     311.7246      1.462     4.64     829.9171     54.94653     194.7931        10     1.173     0.585  43.57   0
       411    723.1368    374.1288 307.6378353  +6.5494759     74822.12     116327.6     124238.4     78.14008     155.9088     311.7866      1.663     4.47     829.5029     54.94653     12967.34        90     1.952     1.057  27.52   0
       412    881.5728    375.5958 307.5719911  +6.5541500     1122.838     1905.276     1962.305     77.64394     155.7228     311.5696      1.862     6.10     829.5571     54.94653     183.6002        15     1.384     0.812  25.03   0
       413    102.7532    373.9132 307.8954615  +6.5288086     1294.906     2067.247     2144.945     78.14008     155.7848     311.7246      1.631     4.93     828.5073     54.94653     234.2949        16     1.665     0.670  41.98   0
       414    585.8453    370.8563 307.6949580  +6.5462451     2597.301     3999.354     4058.693     78.14008     155.9088     311.7246      1.641     4.18     827.7531     54.94653     458.1556        19     1.496     0.755  36.03   0
       415    122.9228    369.8185 307.8872238  +6.5311761     5716.569      9316.61     10316.62     77.64394     155.6607     311.6936      1.723     4.43     828.0621     54.94653     842.0837        34     1.720     0.948  33.63   0
       416    965.2083    371.2868 307.5374020  +6.5587129     613.7499     968.9506      932.754     77.76827     155.5986     311.5386      1.695     4.14     828.9291     54.94653      102.973         6     1.257     0.388  32.90   0
       417    784.1198    368.8069 307.6126879  +6.5537067     569.9509     763.6267     855.0676     77.76827     155.4744     311.5386      1.321     4.11     829.9014     54.94653     100.7916         8     0.910     0.753  81.62   0
       418    569.0010    367.0633 307.7020797  +6.5472486     6861.556     10508.21     11459.31     77.39468     155.7228     311.4766      1.594     4.22     827.4511     54.94653     1125.836        31     1.670     0.847  30.32   0
       419    297.8116    364.6657 307.8147746  +6.5391671     2603.153     4158.039     4158.468     77.64394     155.7228     311.6006      1.626     4.56     825.4048     54.94653     405.0602        20     1.508     0.792  32.34   0
       420    431.8572    362.2794 307.7591909  +6.5446394     24855.27      38590.5     41293.65     78.14008     155.9088     311.6936      1.667     4.46     825.5576     54.94653     3877.169        54     1.764     0.987  31.92   0
       421    611.0958    361.6331 307.6847803  +6.5508966     690.3557     763.8833     548.5437     78.26362     155.7848     311.8486      1.113     3.62     827.4384     54.94653     136.8531         6     1.108     0.341  49.87   0
       422    539.6130    360.8951 307.7144898  +6.5488136     1329.686     2116.787     1752.148      77.8924     155.6607     311.5696      1.533     5.55      826.926     54.94653     207.9275        15     1.657     0.624  35.27   0
       423    412.0548    360.4300 307.7674760  +6.5447406     1294.183     1989.397     2458.733     78.01633     155.9707     311.6626      1.622     3.36     825.3732     54.94653     212.4869        12     1.141     0.650  42.12   0
       424    511.2891    357.5211 307.7263647  +6.5492602     1120.208     1678.007     1677.779      77.8924     156.1565     311.8176      1.407     5.36     826.2557     54.94653     175.8326        12     1.483     0.630  39.58   0
       425    826.8691    354.4447 307.5954137  +6.5610615     675.5219     1175.865     718.7465     78.14008     155.8468     311.7246      1.718     5.33     829.2791     54.94653     112.7413         8     1.239     0.646  43.41   0
       426    409.5950    355.0747 307.7686768  +6.5468695     650.7581     1087.722     1812.318     77.76827     155.4123     311.6626      1.692     2.73     825.2066     54.94653     155.9725         5     0.904     0.352  42.98   0
       427    662.2659    354.2994 307.6637755  +6.5556328     516.5222     783.6334      879.084     78.14008     156.0327     311.6936      1.740     4.37     827.0347     54.94653      91.4848         6     1.031     0.526  33.13   0
       428    520.9692    352.6793 307.7225067  +6.5515829     8161.868     12672.53     13204.91     78.01633     155.9088     311.6936      1.646     4.70     826.1858     54.94653     1343.685        33     1.736     0.821  34.98   0
       429    790.0895    351.4508 307.6107876  +6.5610721     3135.533      4924.58     5372.595     78.14008     155.7228     311.8486      1.766     4.25     829.3436     54.94653      611.072        24     1.520     0.882  30.69   0
       430    945.7917    351.0367 307.5461398  +6.5664284     852.2114      1215.04     1473.533     77.39468     155.6607     311.4766      1.843     4.18     827.9995     54.94653     134.4437         9     1.135     0.618  24.99   0
       431    737.7677    351.1843 307.6325249  +6.5594379     724.7276     1023.424     1020.648     77.76827     155.6607     311.6316      1.462     4.57     829.3284     54.94653     131.0578         8     1.148     0.516  32.07   0
       432    347.3976    349.2512 307.7947000  +6.5471922     1164.377     1937.956     1940.142     77.51942     155.5365     311.3214      1.855     5.15     824.9952     54.94653     184.5872        14     1.524     0.682  40.81   0
       433    183.3222    343.2729 307.8630340  +6.5441627     1061.214     1645.698     1330.401     78.38696     156.1565     311.7246      1.565     5.45     826.7551     54.94653     161.5359        12     1.283     0.680  25.52   0
       434    282.9359    342.8237 307.8216839  +6.5476872      606.728     1043.938      925.252     77.76827     155.9088     311.6316      1.712     4.70     825.1067     54.94653     104.4415         7     1.176     0.534  24.89   0
       435      5.8115    341.2806 307.9368116  +6.5390269     628.1179     987.0201     1024.929     77.76827     155.6607     293.9552      1.736     4.82     829.2651     54.94653     107.0972         7     1.016     0.648   7.12  16
       436    410.8765    336.8557 307.7687545  +6.5544349     7130.604     10997.76     11956.81     78.14008     155.9088     311.6626      1.642     4.26      824.093     54.94653     1058.029        32     1.659     0.868  32.32   0
       437    266.7052    337.4255 307.8286048  +6.5493723     2075.911     3212.059     3403.179     78.26362     155.6607     311.6006      1.718     4.99     825.3086     54.94653     336.3954        18     1.496     0.746  32.08   0
       438    764.9541    336.8542 307.6217129  +6.5662613     827.9352     1467.694     1406.499     78.14008     155.9088     311.7556      1.800     5.07     828.5366     54.94653     131.2587        10     1.340     0.542  36.79   0
       439    778.5955    332.6597 307.6161876  +6.5684480     51105.13     78731.58     84217.56     77.51942     155.7848     311.5076      1.691     4.96     828.3489     54.94653     8646.067        81     1.983     1.023  27.24   0
       440    450.4171    332.2261 307.7524893  +6.5576692     2191.812     3528.802     3915.097     77.76827     155.7228     311.6316      1.737     4.53     824.1321     54.94653     366.6658        23     1.735     0.810  26.91   0
       441   1013.3002    329.5933 307.5188173  +6.5775283     1482.658     2150.861     1921.876      77.8924     155.5365     311.5076      1.638     4.93     826.1191     54.94653     262.1702        16     1.616     0.623  35.50   0
       442    954.6220    328.8776 307.5432103  +6.5758720      2180.34     3279.244     3746.534     77.76827     155.7228     311.7246      1.717     4.26      826.811     54.94653     349.4811        21     1.465     0.848  36.27   0
       443    596.7894    329.5884 307.6917921  +6.5636502     1327.992     1655.803     1440.056      77.8924     155.7228     311.6936      1.425     4.39     825.5945     54.94653     209.1789        11     1.227     0.600  41.23   0
       444    487.6860    328.8847 307.7371242  +6.5602951     1025.307     1648.356     1743.431      77.8924     156.0946     311.7866      1.391     4.03     824.4689     54.94653     174.3056        11     1.240     0.593  48.21   0
       445    437.0849    327.9060 307.7581704  +6.5590070     1826.578     2894.864     2739.265     78.01634     156.2802     311.8176      1.562     4.35     823.7311     54.94653     286.9452        17     1.435     0.717  40.70   0
       446    858.3580    322.3520 307.5834062  +6.5753618     1272.686     1715.384     1938.923     78.14008     155.8468     311.6626      1.606     4.58     827.6146     54.94653      179.446        16     1.436     0.698  30.58   0
       447    487.5119    323.0052 307.7373932  +6.5627169     846.0143     1133.823     1488.431     77.64394     155.5986     311.4766      1.571     4.87      824.191     54.94653     128.1297         9     1.041     0.644  38.58   0
       448    467.5563    319.2495 307.7458060  +6.5636004      1059.81     1574.761     1837.502     78.14008     155.8468     311.7556      1.669     5.73     823.7147     54.94653     178.0925        13     1.505     0.625  41.50   0
       449    213.3717    319.2062 307.8513631  +6.5551072     2231.097     3514.748     3423.906     77.64394     155.7228     311.5386      1.713     4.21     825.8194     54.94653     346.4087        22     1.570     0.876  39.16   0
       450    777.2012    317.2802 307.6172796  +6.5747518     5652.621     8977.989     9930.203     77.39468     155.3501     311.5076      1.642     4.37     827.4571     54.94653      1022.03        31     1.660     0.844  34.56   0
       451    249.3658    317.6117 307.8364695  +6.5569722     837.7111     1117.665     1106.894     77.64394     155.7228     311.5386      1.466     4.09      825.307     54.94653     151.0941        10     1.070     0.713  33.97   0
       452    109.7505    316.5927 307.8944805  +6.5527104     1161.888     1801.661     2071.677     77.64394     155.6607     311.3525      1.701     4.59     827.2998     54.94653     179.4044        13     1.303     0.663  48.48   0
       453    368.3938    317.3091 307.7870508  +6.5610839     641.6273     1166.714     1569.128     77.76827     155.5986     311.5076      2.053     4.37     823.2673     54.94653     96.26801         7     1.198     0.453  27.61   0
       454    793.5642    315.1381 307.6105555  +6.5761817     2505.473      3946.94     4022.797     78.14008     155.9088     311.6936      1.636     4.44     827.4404     54.94653     377.6202        21     1.623     0.737  35.23   0
       455    383.1911    310.0088 307.7811503  +6.5645935     1808.647     3474.951     4005.523     77.51942     155.7228     311.6006      2.125     6.79     822.6981     54.94653     260.4058        24     1.808     0.896  17.27   0
       456     96.9821    310.5252 307.8999863  +6.5547870     1178.752     1858.694     1773.009     77.64394     155.6607     311.6316      1.607     4.09     827.5192     54.94653     196.0714        14     1.308     0.803  41.06   0
       457    509.8310    306.0669 307.7286909  +6.5704569     1937.195     2989.895     2762.795     78.01633     155.9088     311.6936      1.606     4.59     823.5583     54.94653     303.6215        19     1.494     0.741  33.09   0
       458    272.4788    301.7073 307.8274046  +6.5643135     5638.782     8675.543       9193.6      77.8924     156.0946     311.7866      1.677     4.20     824.7206     54.94653     913.6489        31     1.595     0.925  33.32   0
       459    837.5825    300.6965 307.5927561  +6.5836115     602.5707     732.1227     699.0605     78.01634     155.7228     311.5386      1.186     2.58      826.699     54.94653     137.7342         5     0.723     0.429  65.29   0
       460      3.0134    294.5514 307.9395440  +6.5582266      62292.4     91863.36     94644.16     77.51942     145.7233     259.9801      1.555     4.22     827.8565     54.94653     9280.156        62     1.555     1.051  44.36  24
       461    791.7927    295.0036 307.6119628  +6.5844364     880.0303     1266.318      964.032     77.51942     155.5986     311.6006      1.567     4.49     826.3654     54.94653     140.3063         8     1.170     0.490  36.99   0
       462    406.9123    292.4279 307.7718880  +6.5726464     1779.304     2948.158     3447.945     78.26362     155.6607     311.6006      1.774     4.37     821.2229     54.94653      249.332        22     1.514     0.981  51.11   0
       463    249.8175    294.2902 307.8370639  +6.5666166     593.6218     1131.479     998.1939      77.8924     155.6607     311.6316      2.095     3.40      824.893     54.94653     111.4686         5     0.748     0.668  64.50   0
       464    993.7392    291.1550 307.5282204  +6.5927494     884.2762     1478.998     1927.399     78.01634     155.8468     311.8486      1.938     5.29     824.2584     54.94653     138.3425        11     1.332     0.710  40.94   0
       465    328.8544    288.4163 307.8044385  +6.5716898     1063.841     1555.659     1039.377     77.64394     155.9088     311.4456      1.647     5.41     822.8945     54.94653     161.1942        12     1.237     0.668  42.94   0
       466    176.3757    288.2733 307.8677640  +6.5666385     1556.591     2567.347      2831.26     77.76827     155.7228     311.6626      1.797     5.01     825.3478     54.94653       224.89        17     1.538     0.715  32.38   0
       467    586.1693    283.9270 307.6977284  +6.5821492     2075.211     3208.566     3143.153     78.01633     155.9088     311.7246      1.580     4.07     823.0378     54.94653     350.3759        18     1.507     0.706  37.17   0
       468    929.3903    282.9502 307.5552187  +6.5939962      1563.87     2693.938     3340.136     77.64394     155.7848     311.4145      1.968     5.48     825.1406     54.94653     215.8956        21     1.796     0.782  30.27   0
       469    749.5917    281.3671 307.6299440  +6.5886601     4843.095     7504.831     7664.977     77.64394     155.7228     311.5386      1.661     4.66     825.3397     54.94653     831.3093        29     1.663     0.837  36.45   0
       470    690.6119    281.3800 307.6544383  +6.5866875     2077.229     2855.825     2880.075     77.76827     155.5986     311.6316      1.503     4.37     824.6611     54.94653     336.6455        15     1.404     0.656  34.33   0
       471    987.7729    280.7531 307.5310445  +6.5968460     664.1606     1029.965     1256.454     77.76827     155.9707     311.6316      1.778     5.19     824.0493     54.94653     117.4777         6     1.389     0.549  35.72   0
       472    405.3989    275.6527 307.7730781  +6.5795222     640.8441     1046.516     1676.363     77.51942     155.5365     311.2904      2.131     5.29     820.9402     54.94653     90.23712         9     1.567     0.504  38.91   0
       473    945.9547    273.7408 307.5486459  +6.5983501      1019.08     1738.861     1850.095     78.01634     155.9088     311.8176      1.620     4.81     824.6367     54.94653     191.8785        13     1.464     0.581  42.65   0
       474    249.0789    266.7786 307.8382931  +6.5779511     2067.999     3383.871     2997.519     77.76827     155.5986     311.7246      1.719     4.69     824.1279     54.94653     323.3621        20     1.560     0.797  40.19   0
       475    892.0055    265.9204 307.5713126  +6.5997834     1641.049     2498.395     2701.034     77.76827     155.4123     311.5076      1.553     4.32     825.0932     54.94653     289.8641        17     1.446     0.813  31.66   0
       476    838.7608    267.3595 307.5933781  +6.5974159     610.0541     756.3111     709.4893      77.8924     155.9707     311.6006      1.367     5.07     825.3469     54.94653     85.32434         6     1.042     0.699  -8.56   0
       477    782.3954    265.2319 307.6168585  +6.5964161     1553.056     2407.455     2276.489     77.51942     155.7848     311.5076      1.589     4.43     825.0507     54.94653     254.4948        15     1.394     0.715  35.37   0
       478    482.9426    256.6263 307.7415113  +6.5899719     21709.72     34443.16     36707.54     77.76827     155.9707     311.5696      1.687     4.69     821.3782     54.94653     3582.181        51     1.770     0.991  32.84   0
       479    808.9921    255.6891 307.6061307  +6.6012428      12411.3     19466.32     21402.67     77.64394     155.5986     311.4766      1.689     4.50     824.9315     54.94653     2042.159        51     1.876     1.088  27.44   0
       480    344.5343    257.9713 307.7989468  +6.5847854      615.787     1046.421     1024.936      77.8924     155.8468     311.6626      1.693     3.81     821.6964     54.94653        89.13         6     0.834     0.499  88.94   0
       481    747.8939    251.6082 307.6316421  +6.6008911     781.1877     987.9393     934.4412     77.76827     155.5365     311.5076      1.572     5.10     824.1734     54.94653     136.2028        10     1.385     0.531  33.93   0
       482    488.6597    251.2076 307.7393183  +6.5924005     1476.274     2434.342      2781.07     77.51942     155.7848     311.4766      1.725     4.64     821.1672     54.94653     235.6016        15     1.413     0.692  36.99   0
       483    171.2760    250.1208 307.8711621  +6.5822202     2293.665     3524.273     3601.346     78.38696     156.1565     311.8176      1.608     4.30     825.0445     54.94653     356.9038        22     1.563     0.812  39.26   0
       484    145.9193    248.7945 307.8817368  +6.5819171     1125.515     1623.156      1732.79     77.76827     155.4744     311.5076      1.586     6.08     825.5866     54.94653     170.1376        13     1.313     0.791  43.35   0
       485    198.4673    248.4170 307.8599272  +6.5838356     482.3954     852.0146     941.2564     77.64394     155.8468     311.6316      1.755     3.53     824.4706     54.94653     92.71295         5     0.779     0.463 -19.77   2
       486    945.5244    246.1091 307.5497448  +6.6097452     1360.933     2178.211     2149.471     78.14008     156.1565     311.7556      1.796     4.78     824.0012     54.94653     204.4084        17     1.541     0.792  26.76   0
       487    327.4837    243.2553 307.8065209  +6.5902905     1090.712     1733.993     1888.894     78.14008     155.9088     311.8176      1.731     6.31     821.8045     54.94653     180.5936        16     1.760     0.711  34.93   0
       488      9.1947    243.3927 307.9386968  +6.5795568     4431.355     7377.963     7812.423     77.51942     155.6607     311.5696      1.741     4.43     827.7478     54.94653     707.6813        31     1.617     0.946  34.56  16
       489    607.1292    242.3564 307.6904128  +6.6000138     4458.628     6945.223     7321.082     78.01634     155.9088     311.7556      1.591     4.30     822.7207     54.94653     799.5564        23     1.537     0.785  35.04   0
       490    569.8693    242.5780 307.7058799  +6.5986778     2059.142     2918.987     3065.914     77.76827     155.8468     311.6936      1.516     3.99     821.7197     54.94653     345.8662        17     1.365     0.769  33.66   0
       491    411.6860    241.4617 307.7716118  +6.5938499     1387.428     2140.439     1900.558     78.26362     156.0946     311.7246      1.636     4.92     820.5194     54.94653     213.7592        16     1.497     0.712  42.61   0
       492    914.0826    238.8621 307.5630449  +6.6116910     10398.04     15910.45     16665.12     78.26362     155.9088     311.6936      1.614     4.32     824.2373     54.94653     1673.561        37     1.644     0.920  33.01   0
       493    968.0790    239.4030 307.5406005  +6.6132647     2462.922     3719.106     4089.984     77.51942     155.4123     311.5076      1.560     4.40     823.3883     54.94653     391.9268        19     1.493     0.768  30.85   0
       494    341.7297    239.5094 307.8007301  +6.5923143     933.7178     1324.378     1693.456     78.01634     156.0946     311.7246      1.507     4.61      821.381     54.94653     145.7972        11     1.222     0.615  40.73   0
       495   1000.7986    236.7354 307.5270997  +6.6154546      8909.32     14084.43     15073.21     77.51942     155.6607     311.5076      1.676     4.15     822.6543     54.94653     1387.096        36     1.697     0.911  36.54   0
       496    589.1605    238.9112 307.6979906  +6.6008362     810.7661     1265.706     658.4779     78.14008     155.8468     311.7556      1.644     5.97     822.1594     54.94653     112.4117        11     1.508     0.664  27.28   0
       497    233.4464    239.0022 307.8457166  +6.5888957     699.9772     1039.774     613.1539     77.51942     155.5986     311.3525      1.610     5.12     823.5137     54.94653     93.35461         9     1.368     0.542  28.36   0
       498    712.3503    236.8073 307.6468979  +6.6058170     2616.468     3986.308     4218.545     77.64394     155.6607     311.3835      1.577     4.31     823.3219     54.94653      419.933        22     1.527     0.758  35.05   0
       499     40.1736    235.6215 307.9260932  +6.5838061     23770.83     38325.88     41073.43     77.64394     155.7228     311.6626      1.740     4.55     827.3237     54.94653     3876.286        61     1.832     1.061  31.35   0
       500    286.6037    236.5669 307.8237224  +6.5916827     1180.568      1908.49      1703.35     77.39468     155.7848     311.5076      1.731     4.41     822.5331     54.94653     217.3483        11     1.305     0.679  32.32   0
       501    520.8504    231.5142 307.7266080  +6.6016080     1994.253     3191.789     3482.834     78.14008     155.7848     311.7866      1.597     4.45     820.5412     54.94653     334.1804        19     1.533     0.770  29.77   0
       502    852.6733    228.4291 307.5888977  +6.6139540     1973.698     2955.857     2998.832     78.01634     155.9088     311.6936      1.640     5.57     823.9791     54.94653     303.3358        19     1.527     0.742  28.13   0
       503    905.1885    227.4254 307.5671199  +6.6161173     1985.217     3039.917     3179.899     77.76827     155.7228     311.6626      1.550     4.31     823.9449     54.94653     299.0885        17     1.359     0.744  31.47   0
       504    764.1653    224.8079 307.6257784  +6.6124996      37910.1      59221.1     63167.98     77.64394     155.7228     311.5076      1.675     4.57     823.3132     54.94653     6807.541        71     1.914     1.037  28.28   0
       505    532.8497    227.6086 307.7217551  +6.6036217     2521.498      3788.99     4192.738     77.64394     155.7228     311.4145      1.584     4.05     820.4265     54.94653     419.1138        17     1.437     0.674  31.62   0
       506    367.3042    226.0621 307.7905595  +6.5987228     3916.034     6840.236     7625.349      77.8924     155.9707     311.7866      1.825     4.70      820.745     54.94653     567.3187        24     1.761     0.852  31.79   3
       507    368.0661    223.2127 307.7903385  +6.5999249     4630.082     7158.383     8249.453     77.64394     155.7228     311.6316      1.606     4.57     820.7378     54.94653     693.4639        26     1.723     0.881  36.04   3
       508    998.1849    223.6817 307.5286198  +6.6207576      2680.01     4123.449     4729.021     77.76827     155.6607     311.5696      1.707     4.12     822.3884     54.94653     389.8952        24     1.536     0.842  37.70   0
       509    932.2588    221.9194 307.5560601  +6.6192918     7000.804     10933.55     10958.69     78.26362     155.9707     311.7246      1.646     4.29     823.6793     54.94653     1066.978        33     1.620     0.904  38.80   0
       510    475.7384    221.0918 307.7456922  +6.6044031     4997.353     7598.004     7832.778     78.14008     155.9707     311.8176      1.603     4.28     820.0769     54.94653     753.0503        26     1.558     0.824  33.02   0
       511    250.4997    218.0333 307.8393377  +6.5981252     672.5345     1000.174     878.5157     78.14008     155.7848     311.8795      1.511     4.70     822.6832     54.94653     98.50439         7     1.482     0.424  25.24   0
       512    133.0050    212.5296 307.8883174  +6.5964570     4536.778     7081.169     7391.742     77.64394     155.5365     311.6006      1.677     4.64     825.2863     54.94653     723.3934        28     1.606     0.910  33.43   0
       513    952.9765    211.6293 307.5477979  +6.6242302     759.4102     1193.102     1147.828     77.64394     155.7848     311.5696      1.601     4.44     822.8822     54.94653     107.1944         7     0.955     0.588  47.70   0
       514    303.2394    209.0597 307.8177356  +6.6035975     32372.88     51498.66     54879.36     78.14008     155.9707     311.8176      1.700     4.41     821.8162     54.94653     4972.185        66     1.903     1.030  28.77   0
       515    278.6523    210.1225 307.8279111  +6.6023350     6359.609     9912.612     10238.25     78.26362     155.9088     311.7246      1.691     4.26     822.1667     54.94653     889.5294        32     1.675     0.929  32.94   0
       516    733.0419    208.6348 307.6392445  +6.6181397     700.2294     1015.483     1091.495      77.8924     155.9088     311.5386      1.458     4.06      822.516     54.94653      108.043         9     0.992     0.639  54.42   0
       517    427.2781    204.5284 307.7663728  +6.6096212     48738.23     76083.89     81046.62     78.38696     156.1565     311.6936      1.737     4.72     820.0577     54.94653     8438.959        82     1.984     1.082  27.29   0
       518    183.3159    205.9520 307.8676443  +6.6008608     3866.726     6102.058     6245.633     78.14008     155.9088     311.7556      1.715     4.40     823.8367     54.94653     601.6191        27     1.627     0.940  33.22   0
       519    445.1507    205.2582 307.7589256  +6.6099178       1441.3      2194.03     2389.887     78.14008     155.9088     311.7866      1.685     3.92     819.9375     54.94653     229.8761        15     1.402     0.640  34.71   0
       520    766.6384    200.6980 307.6255556  +6.6225371     32026.25     48875.07     52046.04     78.14008     155.7848     311.9415      1.689     4.96     822.4782     54.94653     5286.994        66     1.877     1.008  31.54   0
       521    331.4192    202.2798 307.8062595  +6.6073408     17498.11     27888.53     29697.36     77.76827     155.5986     311.6626      1.715     4.31     821.4583     54.94653     2753.047        48     1.742     0.977  32.04   2
       522    339.0619    202.4760 307.8030789  +6.6075158     2088.498     3307.524     3768.219     78.38696     155.9088     311.7246      1.889     6.67     821.3548     54.94653       299.66        22     1.604     1.254  83.00   3
       523    715.0177    202.6432 307.6469306  +6.6200124     970.6523      1601.99     1863.787     77.64394     155.7848     311.5076      1.906     4.10     822.3174     54.94653     165.0071        11     1.426     0.519  37.09   0
       524    815.1422    201.3080 307.6053899  +6.6239020     1161.372     1766.624     2072.336     78.01634     155.8468     311.8176      1.568     4.99     822.6727     54.94653     220.3867        14     1.485     0.652  40.16   0
       525     53.9360    200.6947 307.9215515  +6.5986890     603.2213     813.5245     818.1718     78.01634     156.0327     311.7556      1.813     5.06     826.8978     54.94653     91.25403         9     1.439     0.503  36.30   0
       526     83.4599    198.0955 307.9093778  +6.6007536     8642.566     13728.94     14141.38     78.01633     155.9088     311.8176      1.701     4.09      826.171     54.94653     1296.006        37     1.672     0.961  32.86   0
       527    117.5352    196.2240 307.8952894  +6.6026702     1379.331     2029.713     2130.754     77.76827     155.9088     311.6626      1.547     4.63     825.1924     54.94653     237.0223        15     1.448     0.699  30.04   0
       528    752.0728    188.9893 307.6319960  +6.6268860      565.537     952.6138     1013.316     77.64394     155.5365     311.6006      1.428     4.83     822.0093     54.94653     96.35474         7     1.540     0.430  40.94   0
       529    601.1534    185.7133 307.6947875  +6.6232022     829.6215     1099.294     1173.329     78.14008     155.7848     311.7246      1.287     2.87     820.5458     54.94653     147.6805         5     0.894     0.351  45.94   0
       530     16.9781    183.5266 307.9374768  +6.6045359     943.9402     1484.805     1446.567     77.76827     155.7228     311.6626      1.726     4.66     827.8489     54.94653      145.435        13     1.317     0.813  44.88   0
       531    609.1614    178.9251 307.6916884  +6.6262725     946.3967     1749.361     2135.992     78.01633     155.9088     311.7866      2.193     4.86     820.3481     54.94653     144.3333        13     1.410     0.799  35.86   0
       532    617.4122    177.0429 307.6883245  +6.6273251     2031.818     2819.126     3027.265     77.51942     155.7228     311.4456      1.522     4.16     820.4202     54.94653     321.4783        18     1.383     0.766  32.13   0
       533    361.6304    177.0620 307.7945572  +6.6187647     943.3908     1488.499     1244.621      77.8924     155.9088     311.6626      1.690     5.27     821.2986     54.94653     148.9553        11     1.374     0.572  46.50   0
       534    302.1817    175.3408 307.8193051  +6.6174843     29007.33     46236.31     49565.05     77.76827     155.7848     311.5076      1.719     4.50      821.842     54.94653     4924.299        66     1.835     1.055  30.35   0
       535     47.4044    173.8521 307.9251660  +6.6095524     4118.453     6616.848     7460.555     77.51942     155.7228     311.3525      1.734     4.44     826.9512     54.94653     684.4497        28     1.742     0.840  30.07   0
       536    733.9853    171.8736 307.6400796  +6.6333499     7771.412     12099.78     12565.11     77.64394     155.6607     311.6316      1.611     4.26     821.5105     54.94653     1217.995        35     1.625     0.929  35.68   0
       537    211.3020    173.3665 307.8571149  +6.6152535     862.3436     1380.929     1196.131     78.14008     155.7848     311.8486      1.645     6.00     822.3244     54.94653     160.2983        13     1.535     0.659  38.17   0
       538    288.6446    170.5109 307.8250892  +6.6190250     850.8713     1270.018     1397.167     78.14008     155.7848     311.7556      1.708     3.50      821.898     54.94653      130.425         8     0.897     0.689  41.67   0
       539    144.7582    169.1583 307.8848924  +6.6147588     4691.855      7481.48     8090.895      77.8924     155.9088     311.6006      1.674     4.41     823.4871     54.94653     731.3649        26     1.571     0.856  35.66   0
       540    606.5515    167.1746 307.6931651  +6.6310371     878.2963     1349.797     1617.138     77.76827     155.9707     311.6316      1.678     5.52     819.7503     54.94653     153.4211        10     1.632     0.527  26.61   0
       541    483.8251    166.2927 307.7441672  +6.6272999     1254.778     1979.591     1799.356     78.26362     155.6607     311.5696      1.633     5.19     818.8329     54.94653     192.4113        12     1.300     0.613  33.82   0
       542    415.4030    165.2190 307.7726209  +6.6254545     3802.185      6347.43     6693.567     77.76827     155.4744     311.5076      1.793     4.90     819.7511     54.94653     584.0521        27     1.708     0.838  41.65   0
       543    672.5939    166.1931 307.6657678  +6.6336472     833.7522     1189.058     1246.845     77.51942     155.7228     311.5696      1.572     5.56     821.3328     54.94653     130.5674         9     1.128     0.773  34.37   0
       544    379.8106    164.0439 307.7874427  +6.6247484     3147.364     4752.465     4860.873     77.64394     155.7848     311.4456      1.597     4.22     820.8647     54.94653     478.2148        22     1.558     0.826  33.82   0
       545    134.0920    163.9174 307.8894981  +6.6165648     1548.166     2368.985     2486.333      77.8924     156.2183     311.8176      1.812     4.63     823.7433     54.94653     274.0393        16     1.544     0.664  36.49   0
       546    770.2505    162.2890 307.6253369  +6.6385168     573.2197      735.735     1004.827     78.14008     155.7228     311.8486      1.330     4.45       821.04     54.94653     104.8829         7     1.338     0.422  25.02   0
       547    231.6036    152.9422 307.8493685  +6.6243671     5381.138     8589.824     8941.849     77.51942     155.7848     311.4766      1.679     4.35     821.8296     54.94653     850.5553        29     1.588     0.900  31.31   0
       548    114.3568    152.7777 307.8980684  +6.6205018     2041.665     3117.378     3543.175     77.64394     155.7848     311.5386      1.560     4.29     824.0719     54.94653     319.1606        19     1.522     0.730  31.20   0
       549    693.4536    151.6375 307.6575899  +6.6403533     6016.675     9259.435     9940.594     78.01634     155.9707     311.7556      1.668     4.32     820.6798     54.94653     1112.588        30     1.612     0.866  32.92   0
       550    841.8002    151.4053 307.5959815  +6.6453953     997.0872     1665.953     1458.793     77.51942     155.5986     311.5386      1.825     5.31     820.2278     54.94653     192.5142        11     1.300     0.613  46.81   0
       551    645.6509    148.9321 307.6775350  +6.6398750      9090.87     14007.72     15558.48     78.01634     155.7848     311.6626      1.670     4.28     819.9328     54.94653     1501.001        34     1.642     0.880  34.36   0
       552    280.5220    149.5118 307.8291667  +6.6274231     779.3352      1059.17      1510.76     78.01634     156.1565     311.8486      1.661     4.69     821.8578     54.94653     129.6108         8     1.079     0.578  36.35   0
       553     44.3527    148.6976 307.9272787  +6.6198357     853.1311     1417.247     1424.684     78.14008     155.7848     311.8795      1.751     2.82       826.88     54.94653     156.5255         6     0.832     0.484  39.95   0
       554    584.0925    148.2490 307.7031258  +6.6381013     594.9017     768.6859     916.7196     78.01634     155.7848     311.8486      1.354     4.07     818.9936     54.94653     118.3244         6     0.837     0.565  36.50   0
       555    372.7205    144.6520 307.7910370  +6.6325178     3459.875     5904.697     6342.065     78.14008     155.9088     311.7246      1.882     4.29     821.0514     54.94653     568.8422        32     1.596     1.216  43.15   0
       556    598.4629    145.2018 307.6972590  +6.6398395     505.4509     624.2975     853.6066     77.51942     155.7228     311.4766      1.186     2.79     818.9885     54.94653     94.34662         5     0.722     0.452  67.98   0
       557    554.5249    143.8772 307.7155527  +6.6389185     1827.444     2732.394     2711.463     78.38696     156.1565     311.7866      1.568     4.15     818.7549     54.94653      323.475        17     1.405     0.812  41.92   0
       558    649.0419    140.3947 307.6764118  +6.6435132     50857.33     79820.98     85426.56     77.51942     155.5986     311.4456      1.682     4.76     819.5721     54.94653     9602.369        81     1.950     1.062  26.55   0
       559    328.2706    134.2071 307.8098484  +6.6353419     3495.488     5457.496     5508.302     77.64394     155.4744     311.6316      1.646     4.22     821.8333     54.94653     501.9491        23     1.506     0.834  35.38   0
       560     25.2925    117.2283 307.9362523  +6.6321884       708743      1537148      1741658     78.26362     155.6607     311.6316      2.285     6.27      827.923     54.94653     60750.71       444     2.604     1.772  24.07   4
       561    728.1030    128.7132 307.6439635  +6.6509747     862.5948     1127.405     735.6044     78.14008     156.2802     311.7556      1.261     3.97     819.3226     54.94653     190.7336         6     1.342     0.336  41.56   0
       562    699.7407    127.5780 307.6557819  +6.6504973     1346.942     2160.015     2299.246     77.76827     155.8468     311.6006      1.698     4.70     819.2635     54.94653     270.7237        17     1.714     0.726  35.85   0
       563    713.7018    124.4113 307.6500888  +6.6522706     3226.387     4783.029     4720.481      77.8924     155.5986     311.5386      1.595     4.29     819.0275     54.94653     496.3041        19     1.399     0.735  34.00   0
       564    455.2839    115.4204 307.7577240  +6.6473503     4051.169     6322.579     6540.184      77.8924     155.5986     311.6626      1.638     4.32     818.5451     54.94653     750.8658        25     1.596     0.812  36.83   0
       565    927.8661    110.7845 307.5615867  +6.6650340     3542.941     5734.736     5707.261     77.64394     155.7848     311.6626      1.661     4.47     818.3208     54.94653      574.794        25     1.626     0.785  37.04   0
       566    909.9288    111.6199 307.5690095  +6.6640919     1925.307     2898.718     2670.566     77.76827     155.7848     311.6626      1.569     4.14     818.3748     54.94653     327.7087        17     1.450     0.717  29.95   0
       567    608.1773    111.4214 307.6943531  +6.6541118     767.8519     1119.063     560.1301      77.8924     155.7228     311.6936      1.564     3.42     818.1141     54.94653     137.1282         6     0.822     0.582  35.56   0
       568    619.9935    109.3339 307.6895149  +6.6553683     1546.495     2447.916     2306.256     77.64394     155.6607     311.5386      1.597     4.34      818.075     54.94653     306.7709        15     1.502     0.638  37.33   0
       569    639.4495    108.7278 307.6814540  +6.6562682     555.1539     919.9486     1004.597     78.14008     155.9707     311.7556      1.814     7.20     818.0991     54.94653     101.0648        10     1.749     0.829  10.39   0
       570    265.9835    108.8835 307.8365673  +6.6437108     913.4998     1435.859     2395.336     77.76827     155.5986     311.6316      2.091     5.89     821.7727     54.94653     117.1044        11     1.247     0.783  28.12   0
       571    109.6352    108.8340 307.9015052  +6.6384868     460.1667      698.395     600.2627      77.8924     155.6607     311.4766      1.381     2.91      822.058     54.94653     105.1183         5     0.748     0.430  69.30   0
       572    418.8638    107.4473 307.7731179  +6.6494238     1884.674      2567.59     2746.471     78.01634     155.7848     311.7866      1.493     4.47     818.8298     54.94653     304.9804        15     1.425     0.616  35.87   0
       573    166.6165    104.2709 307.8779925  +6.6422832     3076.885     4645.039     4855.538     77.64394     155.8468     311.6316      1.641     4.25     821.0864     54.94653      450.666        22     1.530     0.781  34.95   0
       574     48.4304    102.0544 307.9271528  +6.6392307     11717.58     18860.58     20599.91     78.01633     155.9707     311.6626      1.722     4.26     826.0569     54.94653     1797.852        46     1.780     0.989  35.19   0
       575    314.7811    102.5835 307.8165110  +6.6479471     1292.696     2143.219     2912.113      77.8924     155.6607     311.6626      1.781     4.52     821.8613     54.94653     207.3899        13     1.421     0.598  32.39   0
       576    588.6498    102.0631 307.7027768  +6.6573236     663.5397     830.1174     760.1103     78.14008     155.8468     311.7866      1.453     3.44     817.8599     54.94653     150.3404         7     1.071     0.583  43.82   0
       577   1006.6078    100.4102 307.5292247  +6.6719375     609.5479     863.5608       573.08     77.64394     155.7228     311.6316      1.569     4.72     816.0909     54.94653     72.96619         7     1.103     0.572  44.41   0
       578    783.8885    101.1122 307.6217133  +6.6642315     609.6007     916.4214     1438.593      77.8924     156.4037     311.8176      1.609     4.51     817.8157     54.94653     116.0444         7     1.064     0.543  34.43   0
       579    968.8943    100.1167 307.5448999  +6.6708041     498.3464     596.1172     758.7864      77.8924     156.2802     311.8486      1.323     4.02      816.929     54.94653     87.61615         6     0.984     0.469  37.74   0
       580    918.0366     98.3298 307.5660845  +6.6698493     723.9312     954.6079     1395.261     78.01633     155.9707     311.7866      1.388     3.25     817.7246     54.94653     123.5955         8     0.949     0.621  73.64   0
       581    850.2787     96.5201 307.5942899  +6.6683401     5775.595     8797.008     9577.861     78.38696     156.1565     311.8486      1.650     4.02     817.6996     54.94653     1063.757        30     1.602     0.883  39.21   0
       582    795.4359     96.8950 307.6170576  +6.6663577     3306.496     5118.711     5222.753     78.26362     155.7848     311.8176      1.648     4.34       817.65     54.94653     550.6588        22     1.557     0.794  35.64   0
       583    440.3217     97.2962 307.7645452  +6.6543331     949.4918     1437.099     1237.118      77.8924     156.1565     311.7866      1.722     5.54     818.4797     54.94653     234.1522        12     1.762     0.595  44.97   0
       584    941.4345     96.3904 307.5564302  +6.6714290     605.6601     754.7311     608.1782     77.64394     155.7228     311.5696      1.378     4.33     817.3507     54.94653     114.2518         7     0.978     0.546  29.08   0
       585    558.1497     95.2072 307.7156746  +6.6591353     1010.795     1831.391     2430.492     77.64394     155.6607     311.3835      1.972     5.70     817.6898     54.94653     147.1936        15     1.534     0.862  28.84   0
       586     88.7534     93.9186 307.9106790  +6.6439440     3087.001     4865.722     5186.191     78.14008     155.9088     311.7556      1.703     4.36     822.1807     54.94653     450.8672        26     1.737     0.858  31.69   0
       587     73.5017     95.1494 307.9169721  +6.6429237     849.8331      1592.12     1188.403     78.14008     155.9088     311.8795      1.893     4.71      823.527     54.94653     132.7491         9     1.120     0.563  27.46   0
       588    450.7955     93.8025 307.7603118  +6.6561260     836.6842     1258.149     1341.895     77.51942     155.4744     311.5076      1.620     3.54      818.351     54.94653     120.5745         8     1.004     0.534  35.18   0
       589    612.5724     90.3696 307.6932312  +6.6629508     1186.183     1548.829     1674.289     77.64394     155.6607     311.5076      1.561     4.99     817.5696     54.94653     234.2758        11     1.385     0.529  35.01   0
       590     31.3007     89.3904 307.9346928  +6.6438839     2441.759     3792.709     3648.139      77.8924     155.5365     311.5386      1.672     4.00     826.4327     54.94653     397.5807        23     1.563     0.824  40.03   0
       591    283.5736     90.6442 307.8298731  +6.6518311     485.2241     801.6618     820.6895     77.76827     155.9707     311.6316      1.805     3.82      822.119     54.94653     80.46198         5     0.992     0.421  14.68   0
       592    790.0757     84.4869 307.6196980  +6.6713024     1791.055     2892.223      2972.91     78.14008     156.2183     311.7866      1.645     4.35     817.2574     54.94653       302.04        16     1.462     0.709  40.76   0
       593    103.5202     84.9508 307.9048471  +6.6481425     791.4762     1161.421     929.0074     78.14008     155.9707     311.7246      1.683     6.02     821.0763     54.94653     128.1326        11     1.550     0.658  36.90   0
       594    430.8408     84.7912 307.7689018  +6.6591791     1041.491     1715.269     1737.606     77.51942     155.7228     311.4456      1.571     5.35     818.6332     54.94653     165.4774        12     1.502     0.565  30.77   0
       595    127.9720     83.8066 307.8947299  +6.6494357      812.296      1329.82     1232.011     77.64394     155.7848     311.5386      1.469     4.46     820.8801     54.94653     135.4763         8     1.105     0.513  49.40   0
       596    116.5149     78.2557 307.8996749  +6.6513430     9240.369     14551.67     15563.64     78.14008     155.9088     311.8486      1.706     4.26     820.7532     54.94653     1388.229        37     1.697     0.945  32.61   0
       597    445.7220     77.8873 307.7629519  +6.6625275     2539.607     4112.176     4236.571     78.14008     156.2183     311.8486      1.634     4.46     818.3452     54.94653     408.3635        22     1.671     0.739  39.38   0
       598    659.2405     70.1361 307.6745228  +6.6728633     17639.34     27614.31     29571.13     78.14008     155.8468     311.8176      1.664     4.26     816.9173     54.94653     2847.785        54     1.807     0.990  33.92   0
       599    283.2864     72.3960 307.8306043  +6.6593559     1400.652     2233.722      3316.73     77.64394     155.5365     311.4456      1.901     5.45     822.9686     54.94653     215.9146        14     1.426     0.684  34.19   0
       600    689.1045     71.7205 307.6620651  +6.6732059      530.525     673.0974     451.9385      77.8924     156.1565     311.7866      1.290     3.86     816.8888     54.94653     94.92767         5     1.273     0.335  48.59   0
       601    559.0226     66.1933 307.7162822  +6.6711442     4873.542     7781.862     8123.848     77.64394     155.7228     311.5696      1.692     4.48     817.0529     54.94653     855.8554        29     1.719     0.820  32.74   0
       602    795.4859     65.6342 307.6180797  +6.6792670     431.2378     693.0493     654.5676     78.14008     155.7848     311.7246      1.799     4.20     816.7379     54.94653     71.58942         6     1.110     0.453  35.44   0
       603     26.3824     64.5169 307.9375716  +6.6539884     1298.757     2013.115     1851.588     77.76827     155.5986     311.6626      1.592     5.22     823.4478     54.94653     170.0101        16     1.465     0.732  34.08   0
       604    647.2544     64.5517 307.6796880  +6.6747690     892.7216      1039.01      1915.98     78.14008     155.9088     311.8176      1.174     3.23     816.8723     54.94653     151.9191         7     0.821     0.645 -27.71   3
       605    645.5440     60.1175 307.6805467  +6.6765428     3148.774     5173.394     5864.117     78.14008     155.9088     311.8176      1.874     4.58     816.7708     54.94653     540.2188        27     1.646     0.926  37.20   2
       606    464.5149     61.8260 307.7556837  +6.6697878     22089.86     34424.17     36530.96     78.26362     155.6607     311.6006      1.701     4.69     817.6759     54.94653     3588.939        54     1.870     0.997  30.29   0
       607    285.2436     62.2915 307.8301301  +6.6635935     8942.394     13910.04     15302.07     78.14008     155.8468     311.8486      1.665     4.31     823.5126     54.94653     1513.534        34     1.627     0.912  33.58   0
       608    942.3676     61.7138 307.5571978  +6.6857781     1846.527     2779.431      2679.21     78.14008     155.7228     311.7246      1.628     4.39     816.1059     54.94653     315.1396        16     1.457     0.679  42.97   0
       609    345.1777     62.4482 307.8052310  +6.6655367     915.9376     1454.473     1678.479     77.76827     155.9088     311.6006      1.700     5.52     823.6938     54.94653     164.6733        12     1.444     0.643  35.99   0
       610     50.7481     62.0314 307.9275353  +6.6558332     2189.325     3263.167     3206.911     78.01634     156.0327     311.6626      1.553     4.38     822.0177     54.94653     322.6757        18     1.434     0.745  35.26   0
       611    578.4247     61.7926 307.7083703  +6.6736095     610.7313     799.1489     984.1418     77.64394     155.7848     311.5696      1.440     3.90     816.9818     54.94653     107.2752         6     1.334     0.327  49.26   0
       612    277.4396     66.7050 307.8332235  +6.6615097     1953.938     3042.788     4553.828     78.14008     155.7848     311.8486      1.962     4.80     822.9581     54.94653     317.3172        20     1.594     0.780  38.34   1
       613    273.2480     58.9126 307.8352259  +6.6645866     2965.412     4837.081     6334.226     78.14008     155.7848     311.7866      1.808     4.30     823.0703     54.94653     485.9092        25     1.581     0.842  35.52   0
       614    326.1932     57.1561 307.8132937  +6.6670859     918.6666      1522.09     1770.153     77.64394     155.6607     311.4145      1.765     5.64     823.9551     54.94653     137.2437        11     1.509     0.595  34.83   0
       615    963.2601     51.8521 307.5488477  +6.6905454     1030.568     1540.725     1340.654     78.14008     155.8468     311.7246      1.659     5.64     815.3784     54.94653     152.6602        11     1.295     0.708  31.33   0
       616    714.6337     51.4061 307.6521392  +6.6824455      1768.53     2727.772     3191.588     77.51942     155.7228     311.5076      1.716     4.57     816.4306     54.94653     304.8254        15     1.435     0.687  37.55   0
       617    280.2902     46.4551 307.8327186  +6.6699662     751.5875     1590.507     2528.401     78.01634     155.7228     311.8486      2.601     5.68     823.9561     54.94653      155.541        12     1.575     0.674  50.17   0
       618    225.7876     47.1914 307.8553319  +6.6678350     813.0941     1137.752     1056.534     77.76827     155.7228     311.6626      1.587     4.53     820.5329     54.94653     171.7182         8     1.283     0.454  41.84   0
       619    202.7136     44.3382 307.8650115  +6.6682393     10368.66     16008.27     16997.94     78.14008     156.0946     311.7246      1.687     4.39      820.301     54.94653     1483.782        40     1.732     0.929  33.34   0
       620     16.3313     44.4625 307.9424204  +6.6619306     841.5255     1159.555     753.7109     78.14008     155.9088     311.7866      1.569     3.88     820.6482     54.94653     131.1605         9     1.110     0.564  43.60   0
       621    948.4451     42.0623 307.5553278  +6.6940946     3805.649     5991.059     6785.089     78.01633     155.8468     311.7866      1.713     4.27     815.2907     54.94653     585.1147        25     1.567     0.827  39.32   0
       622    547.0103     42.4433 307.7220661  +6.6805490     2752.786     4332.956      3999.74     77.64394     155.7228     311.4456      1.667     4.47      816.509     54.94653     426.1194        20     1.503     0.778  36.48   0
       623    485.2184     40.9532 307.7477827  +6.6790984      1715.96     2729.225     2914.404     77.64394     155.8468     311.5386      1.673     4.42     816.6094     54.94653     295.4114        18     1.555     0.704  36.29   0
       624    749.2418     40.6674 307.6381220  +6.6880339     1750.937     2670.485     2673.924     78.14008     155.8468     311.7866      1.595     4.49     816.1689     54.94653     338.4598        15     1.497     0.629  31.85   0
       625   1013.2925     38.3941 307.5285124  +6.6977666     1707.872     3082.726     3130.758     77.76827     155.5986     311.5076      1.906     4.78     814.1367     54.94653     251.4709        22     1.523     1.036  26.50   0
       626    808.3528     37.7973 307.6136636  +6.6911897      423.017     696.8149     294.5956     77.51942     155.5986     311.3214      1.616     4.28     815.8903     54.94653     75.09216         5     0.943     0.554  40.18   0
       627    732.4127     34.6973 307.6453119  +6.6899376      6974.87     10690.26     11273.21     78.01634     155.6607     311.4766      1.675     4.62     816.0815     54.94653     1250.195        37     1.735     0.926  34.22   0
       628    652.7014     33.9220 307.6784488  +6.6875977      3683.78     5565.103     5591.635     77.76827     156.1565     311.7556      1.631     4.36     816.1753     54.94653     605.6251        25     1.533     0.856  33.94   0
       629    354.7260     33.7714 307.8022260  +6.6776967     825.1921     1235.781     1367.341     78.01634     155.9088     311.6936      2.048     4.87     824.9838     54.94653     153.3641         8     1.467     0.458  41.03   0
       630    408.4044     32.4672 307.7799733  +6.6800323     813.1353     1105.818     1533.154     77.51942     155.5986     311.5076      1.626     4.30      820.426     54.94653     125.8843         8     1.096     0.526  39.54   0
       631    452.8308     30.2224 307.7615949  +6.6824457     6005.757     9235.722     10026.66     77.64394     155.7228     311.5696      1.642     4.43     817.7886     54.94653     983.6743        30     1.683     0.811  35.10   0
       632     53.7480     29.9212 307.9273685  +6.6691915     8083.012     12646.14     13907.77     78.14008     155.9088     311.7246      1.692     4.35     818.6437     54.94653     1205.007        35     1.733     0.899  33.30   0
       633    700.0079     29.1867 307.6589565  +6.6911318     870.4182     1277.732     911.4752     77.76827     155.6607     311.6006      1.621     5.10     815.9506     54.94653      169.174        11     1.480     0.522  31.48   0
       634    528.4952     27.1228 307.7302693  +6.6862559     854.6501     1425.793     1835.058      77.8924     156.0327     311.8176      1.877     5.86      816.193     54.94653     137.8804        13     1.513     0.639  39.94   0
       635    444.4915     26.0222 307.7651995  +6.6839010     849.7938     1354.293     2056.705     78.14008     155.7228     311.5696      1.767     5.27     818.2464     54.94653     158.1388        10     1.450     0.581  37.12   1
       636    349.4069     25.1971 307.8047227  +6.6810588     12294.77     19608.85     21055.68     77.51942     155.5986     311.6006      1.712     4.47     825.6276     54.94653     1885.096        44     1.760     0.969  31.54   0
       637    122.9679     25.5084 307.8987663  +6.6733379     2422.445     3899.024     3866.366     78.26362     155.7228     311.7556      1.783     4.86     819.1402     54.94653     373.0453        25     1.695     0.863  30.24   0
       638    114.5346     24.5635 307.9023008  +6.6734449     1600.674     2429.993     2863.669     78.01634     155.9088     311.7866      1.694     4.02      818.957     54.94653      240.486        17     1.370     0.763  35.40   0
       639    818.4067     24.0123 307.6099471  +6.6972167     924.5113     1327.867     1238.305     77.76827     155.7228     311.6316      1.637     4.17     815.4657     54.94653      135.649        10     1.018     0.732  27.38   0
       640    484.0798     23.4175 307.7488426  +6.6863007     479.7803       692.64     811.3706     77.76827     155.5986     311.6316      1.586     3.82     816.1448     54.94653     90.19983         5     1.299     0.323  49.00   0
       641    415.5621     23.1508 307.7773122  +6.6841185     2125.206     3316.464     3675.619      77.8924     155.9088     311.6006      1.665     4.77     819.8568     54.94653     343.4335        18     1.492     0.852  30.56   0
       642   1011.1363     20.4245 307.5300064  +6.7051146     628.4424     998.4506     975.8065     77.76827     155.9088     311.6626      1.627     4.23      813.694     54.94653     111.2173         9     1.213     0.584  30.41   0
       643    935.5771   1019.2011 307.5281440  +6.2901935     6673.612     12959.89     14765.97     77.76827     155.5986     293.6593      2.129     4.91     843.4301     54.94653     794.4864        51     1.935     1.321  38.70  16
       644    653.8235   1020.3580 307.6450513  +6.2803298     469.6943     777.3197     915.6827     77.76827     155.7848     281.0858      1.806     4.46     847.0491     54.94653     66.33923         5     1.194     0.473 -56.74  16
       645     95.0035     19.7240 307.9105757  +6.6747873     675.2737     1051.831     914.0977     77.64394     155.4123     311.6006      1.561     4.39     818.3683     54.94653     101.3089         6     1.017     0.540  48.54   0
       646    554.0749     18.2686 307.7199401  +6.6907666     1231.136     2087.216     2053.369     78.26362     156.0327     311.7246      1.733     5.33     815.9886     54.94653     213.8173        14     1.561     0.628  37.29   0
       647    909.1340   1015.2617 307.5392508  +6.2909403     9565.952      18179.2     20503.62     78.14008     155.8468     311.7246      2.081     4.64      843.526     54.94653     1136.336        56     1.921     1.343  33.31  16
       648    621.9583   1015.7444 307.6584312  +6.2811716     1151.572     1983.915     1791.774     78.01634     155.8468     311.7246      1.920     5.38     847.0455     54.94653     171.5451        15     1.308     0.878  45.53  16
       649    553.5286   1014.4160 307.6868776  +6.2794359     3754.409     6445.937     7631.895     77.64394     155.8468     311.6316      2.019     4.23      847.449     54.94653     512.0608        38     2.078     1.008  27.74  24
       650    663.2345   1013.9177 307.6413600  +6.2833030     1283.358     2340.479     2877.519     78.14008     155.9088     311.6936      2.092     5.37     846.9612     54.94653     179.4839        19     1.496     0.942  43.27   0
       651    506.4898   1011.0464 307.7065138  +6.2792562     2027.485     3613.858     3779.304     78.14008     155.7848     311.8486      1.986     6.07     847.5121     54.94653     315.1113        28     2.028     0.902  33.40  16
       652     88.5343   1013.1587 307.8799109  +6.2643929     800.3444     1252.517     2014.586     78.14008     155.8468     311.8176      1.768     4.98     843.7014     54.94653     108.7627         9     1.060     0.661  23.05   0
       653    818.9448   1012.2536 307.5767857  +6.2891800     573.4064      867.243     1539.415     78.38696     155.8468     311.7246      1.383     3.76     843.2297     54.94653     78.19598         5     0.829     0.490 -53.54   0
       654    940.7845   1002.8078 307.5265279  +6.2971357     33509.44     64487.18     72003.14     77.76827     155.6607     311.5696      2.075     4.61      842.994     54.94653     3896.563        94     2.154     1.408  28.92   0
       655     13.6942   1002.8173 307.9113183  +6.2661514     2391.618      3924.02     3854.416     78.01634     155.7228     311.6006      1.765     4.80      842.196     54.94653     296.1088        26     1.635     0.967  38.13   0
       656    248.1972   1001.2723 307.8140441  +6.2746521     1593.064     2480.781     2078.003     77.64394     155.4744     311.5696      1.758     4.52     846.1635     54.94653     217.7913        19     1.405     0.926  36.92   0
       657    136.6403   1000.6592 307.8603648  +6.2711671     581.7399     992.7529     944.8818     78.14008     155.9088     311.7866      1.744     3.97     843.9902     54.94653     91.52924         6     0.843     0.553 -45.46   0
       658    787.1809    994.6842 307.5905552  +6.2953765     5666.133     10294.95     11926.22     77.76827     155.5986     311.6936      2.001     4.42     843.6342     54.94653     718.3153        44     1.850     1.325  51.82   0
       659    647.1330    999.3889 307.6485278  +6.2887650     920.2938     1213.245     1216.919     77.64394     155.7848     311.5696      1.551     5.06     846.8301     54.94653     131.3406        11     1.293     0.675  38.73   0
       660    839.0133    996.6550 307.5689753  +6.2962892     1864.682     3379.372     4387.378     77.51942     155.8468     311.4766      2.079     5.26     843.2722     54.94653     260.8881        24     1.635     1.002  39.84   0
       661    573.9716    993.9886 307.6790747  +6.2885531     872.1915     1560.494     1817.671     77.64394     155.7228     311.5696      1.669     6.22      847.209     54.94653     120.1168        12     1.336     0.815  23.94   0
       662    256.6427    993.5117 307.8107988  +6.2781393     1273.659     2183.377     1684.076     78.14008     155.8468     311.7556      1.843     7.07     846.2036     54.94653     178.0951        17     1.685     0.831  41.18   0
