#   1 NUMBER                 Running object number                                     
#   2 X_IMAGE                Object position along x                                    [pixel]
#   3 Y_IMAGE                Object position along y                                    [pixel]
#   4 ALPHA_J2000            Right ascension of barycenter (J2000)                      [deg]
#   5 DELTA_J2000            Declination of barycenter (J2000)                          [deg]
#   6 FLUX_APER              Flux vector within fixed circular aperture(s)              [count]
#   9 FLUXERR_APER           RMS error vector for aperture flux(es)                     [count]
#  12 FLUX_RADIUS            Fraction-of-light radii                                    [pixel]
#  13 FWHM_IMAGE             FWHM assuming a gaussian core                              [pixel]
#  14 BACKGROUND             Background at centroid position                            [count]
#  15 THRESHOLD              Detection threshold above background                       [count]
#  16 FLUX_MAX               Peak flux above background                                 [count]
#  17 ISOAREA_IMAGE          Isophotal area above Analysis threshold                    [pixel**2]
#  18 A_IMAGE                Profile RMS along major axis                               [pixel]
#  19 B_IMAGE                Profile RMS along minor axis                               [pixel]
#  20 THETA_IMAGE            Position angle (CCW/x)                                     [deg]
#  21 FLAGS                  Extraction flags                                          
         1   1000.3880     19.5865 307.5285051  +6.6977466     2097.861     2945.184     2697.753     78.30357     156.1715       312.81      1.497     3.58     823.5277     55.14882     299.4865        18     1.296     0.837  81.44   0
         2    719.7061     15.9867 307.6452646  +6.6898630     8190.817     11297.04     12096.85     78.17917     156.2338     312.7167      1.435     2.96     827.1202     55.14882     1238.324        30     1.338     0.936  80.79   0
         3    639.8799     15.2192 307.6784619  +6.6875101     4131.604     5743.511     5690.475     78.05458     156.1715     312.7789      1.455     3.10     827.7171     55.14882     635.0295        26     1.246     1.000  84.08   0
         4    395.4578     13.3312 307.7800926  +6.6801011     768.3006     1079.544     827.6325     78.55175     156.4206       312.81      1.484     3.69     831.4807     55.14882      118.246         6     0.986     0.397  70.54   0
         5    440.0923     11.4671 307.7616081  +6.6823675     7129.997     9811.499     10328.24     78.30356     156.6693     312.9034      1.494     3.11     829.2544     55.14882     1010.918        30     1.326     0.983  78.69   0
         6     41.0676     11.1114 307.9274245  +6.6691080     9239.271     13096.87     13711.54     78.55175     156.6693     312.8723      1.483     3.16     831.6578     55.14882     1383.083        36     1.375     1.040  81.16   0
         7    687.0703     10.4031 307.6590136  +6.6910769       1011.9     1387.337     1270.533     77.92979     156.1092     312.7167      1.625     3.66     826.9218     55.14882     165.2723        10     1.027     0.637  67.13   0
         8    515.9095      8.8514 307.7301910  +6.6859883     926.3612     1284.565     820.6382     78.42776     156.2961     312.9966      1.498     3.29     828.5814     55.14882     137.8628         9     0.942     0.655  76.39   0
         9    431.7052      7.6335 307.7652222  +6.6836688     983.6342     1444.874     2013.835     78.55175     156.3583     309.7145      1.601     4.29     829.2435     55.14882     146.0806        10     1.148     0.612  80.07  16
        10    336.6749      6.4050 307.8047519  +6.6809879     14538.12     20154.84     20963.53     78.05459     155.9844     300.6253      1.499     3.04     835.5658     55.14882     1991.335        38     1.353     1.026  83.97  16
        11    110.1874      6.7465 307.8988515  +6.6732361     2843.587     3987.362      4541.28     77.80481     156.4206     303.1079      1.445     3.14     831.5832     55.14882      420.184        18     1.222     0.809  79.31  16
        12    101.4321      5.5536 307.9025297  +6.6734340     1686.574     2333.195     2799.994     78.17918     156.4828       292.32      1.640     3.75     831.5103     55.14882     219.2116        16     1.170     0.896  78.47  16
        13    471.2991      5.0684 307.7488556  +6.6860551     582.0409     679.3582     327.0593     78.42776     156.6071     287.2486      1.239     4.72     829.0975     55.14882     118.6356         7     1.112     0.568 -68.08  16
        14    805.1513      4.8311 307.6101313  +6.6973236     943.3637     1253.484     1445.292     78.05458     156.4828     284.4225      1.410     3.80      825.752     55.14882     171.9333        11     1.070     0.907 -58.93  16
        15    402.9428      4.3281 307.7772851  +6.6840687     2566.271     3827.743     4014.236     78.55175     155.9844     278.5097      1.595     3.46     830.6208     55.14882        376.1        16     1.145     0.842 -86.08  16
        16    998.0321      1.5484 307.5300872  +6.7051147     646.8918     914.4698     852.0817     70.45248      127.488     238.8549      1.399     2.72     822.3903     55.14882     138.8295         7     0.735     0.681   3.43  24
        17    663.8176      1.3977 307.6689784  +6.6940168     5072.266     5787.411     6261.286      68.7748     124.9434     236.2327      0.973     1.85     826.7859     55.14882     1569.128        13     0.931     0.600   3.33  24
        18     81.8517      1.4266 307.9108050  +6.6744787     528.0309     652.0949     875.5861     69.19804     126.0292     236.9731      1.303     2.72     831.2544     55.14882     127.6428         5     0.790     0.655 -40.47  24
        19    609.1624    996.9479 307.6583012  +6.2811958     1232.505     1897.241     1693.881     78.30356     156.4828     312.8723      1.582     5.37     860.4641     55.14882     161.3918        15     1.423     0.838  70.78   0
        20    967.9751   1021.7726 307.5084844  +6.2829267     5894.024     10100.03     10791.52     77.92979      148.177     264.0517      1.819     4.00     854.6567     55.14882     669.8376        36     1.436     1.294  66.58  24
        21    722.3925   1022.3275 307.6104363  +6.2745031      1054.28     1727.378     2215.163     78.05459     142.2113     256.0046      1.819     3.52     858.8348     55.14882      149.949        12     1.101     0.746  61.07  26
        22    727.8874   1020.0420 307.6082313  +6.2756302     2614.996     4325.652     4856.533     78.42776     156.4828     285.8901      1.784     3.77     858.7854     55.14882     318.5691        27     1.371     1.140  67.70  18
        23    252.4486   1021.9062 307.8055722  +6.2589411     1223.975     1666.451     1411.979     78.30356     146.7912     262.3879      1.461     3.61     859.9559     55.14882     175.3489        11     1.199     0.610  86.67  24
        24    540.2634    995.6118 307.6869540  +6.2794422     4220.567      6586.52     7305.975     77.92979     156.2961     312.6855      1.690     3.43     860.4451     55.14882     540.4813        30     1.418     1.064  74.53   0
        25    805.5355    993.0724 307.5768925  +6.2893572     556.8652     979.8729     1233.589     78.42776     156.4828     312.9034      1.727     5.57     857.1315     55.14882     79.78333         7     1.241     0.704  85.63   0
        26    493.5178    991.9841 307.7064850  +6.2793749     2311.232     3756.049     4059.737     78.05458     156.1715     312.7478      1.706     4.17     860.3443     55.14882     270.1793        25     1.477     1.033  77.23   0
        27     74.9755    993.9122 307.8801991  +6.2645361     939.6252      1256.31     1064.016     78.42776     156.2961     312.7478      1.428     3.52     854.6589     55.14882     155.4579         9     0.924     0.740 -72.45   0
        28     36.3599    990.7622 307.8963379  +6.2645379     560.9412      912.866     674.9466     78.17918     156.4828     312.7478      1.622     3.52     853.5474     55.14882     92.79028         5     0.793     0.452 -75.61   0
        29    927.9800    984.1458 307.5263482  +6.2971273     40556.55      68271.8      73156.2     77.92979     156.4828     312.6855      1.804     3.59     856.0081     55.14882     4936.777        78     1.693     1.382  76.60   0
        30    649.8399    995.0840 307.6414736  +6.2833254     1340.085     1881.436     2046.283     78.42776     156.4206       312.81      1.491     4.46     859.4287     55.14882     180.4493        13     1.200     0.732 -83.80   0
        31      1.5160    983.9169 307.9110353  +6.2661917     2311.135     3220.083     3442.973     70.31421      127.488     238.4879      1.392     3.80     852.6026     55.14882     424.6655        14     1.346     0.654  88.81  24
        32    333.6298    984.8910 307.7731102  +6.2769453     438.1498     746.4323     747.9036     78.55175     156.2338       312.81      1.409     3.44     859.6725     55.14882     83.00616         5     0.805     0.424  70.25   0
        33    235.3010    982.7044 307.8140102  +6.2745489      1734.09     2679.311     2568.711     78.42776     156.9796     312.7167      1.646     3.25     857.8968     55.14882     238.4179        17     1.170     0.881  89.27   0
        34    825.9127    977.8831 307.5689393  +6.2963080     2287.635     3647.616     4420.147     78.17917     156.6693     312.9034      1.783     5.75     856.7842     55.14882     281.3057        26     1.685     0.980  61.42   0
        35    634.3026    980.7117 307.6484065  +6.2887393     992.2683     1465.845     578.9233     78.42776     156.9175     312.9034      1.278     5.55     859.6402     55.14882     163.0139        10     1.433     0.606  50.96   0
        36    774.1093    975.9064 307.5905158  +6.2953947     6609.177     10769.26      11885.4     78.42776     156.9796     312.8723      1.774     3.54     857.6011     55.14882     857.0428        42     1.627     1.205 -89.94   0
        37    560.6212    975.3834 307.6791793  +6.2884743     1065.825      1403.88     1392.349     78.17918     156.2338     312.7789      1.513     2.98     860.0977     55.14882     164.7782        10     0.946     0.722 -67.44   0
        38    243.6631    974.9102 307.8108004  +6.2780472     1481.031     2297.136     2504.603     78.42776     156.6071     312.9344      1.578     4.09     857.8294     55.14882     219.2422        17     1.221     0.945  86.18   0
        39    207.6824    974.9054 307.8257399  +6.2768412     836.4393     1230.089     1415.375     78.17917     156.7934     312.9966      1.566     4.86     856.9056     55.14882      125.714         9     1.141     0.587 -76.16   0
        40     68.3738    972.9016 307.8836479  +6.2729876     2646.551     4111.297     4349.566     78.55175     156.2338     312.8412      1.628     3.70     854.0377     55.14882     307.0274        21     1.370     0.913  80.82   0
        41    962.3225    970.9492 307.5125287  +6.3037202     6313.764     10620.69     11093.87     78.42776      156.545     312.8723      1.805     3.80     854.4233     55.14882     703.1275        38     1.520     1.242  71.12   0
        42    218.7720    966.8729 307.8214057  +6.2805295     693.8377     831.5514      694.231     78.30356     156.4206       312.81      1.286     4.32     856.9603     55.14882     111.8937         6     1.062     0.502  66.66   0
        43    644.5797    965.6802 307.6446428  +6.2952884     685.3011     657.5781      651.356     78.17918     156.1715     312.8412      1.324     3.29     859.2278     55.14882     114.1156         6     0.874     0.466  -1.78   0
        44    936.1718    962.3708 307.5236740  +6.3063900     2023.469     3260.763     3109.214     77.92979     156.2338     312.6233      1.719     4.34     855.2416     55.14882     239.9677        21     1.304     1.092  58.61   0
        45    656.7305    958.5447 307.6398364  +6.2986404     4796.573     7070.757     7422.361     78.42776     156.3583       312.81      1.610     3.22     858.9228     55.14882     660.4104        31     1.437     1.062  70.64   0
        46    795.6863    959.1356 307.5821174  +6.3030387     1306.711     1933.007     2424.932     78.55175     156.6693     312.8723      1.582     3.63     857.2001     55.14882     194.7446        14     1.185     0.800  74.20   0
        47    268.9956    958.6482 307.8008291  +6.2856107     4609.758     6858.361     6710.325     77.80481     156.2961      312.561      1.563     3.36     857.6962     55.14882     643.0286        27     1.310     1.045  81.36   0
        48    479.1468    956.7992 307.7136327  +6.2934190      1182.85     1787.131     1732.771     77.80481     156.1092     312.4365      1.464     3.80     859.5999     55.14882     179.2779        11     1.159     0.687  89.11   0
        49     37.5901    956.1510 307.8969936  +6.2788673     2232.278     2959.696     3166.229     77.92979     156.2961      312.561      1.480     3.26     853.1351     55.14882     263.1777        17     1.111     0.946  73.60   0
        50    888.7861    954.7708 307.5436045  +6.3079473     989.7302     1487.255     1289.164     78.05458     156.2961     312.7789      1.576     5.23     855.5818     55.14882     134.8253        11     1.261     0.613  74.94   0
        51    960.6208    951.9297 307.5138704  +6.3115155     721.5125     1196.955     1224.467     78.05458     156.3583     312.8412      1.684     6.11     854.2401     55.14882     117.6334         9     1.131     0.929  89.14   0
        52    304.8718    951.8996 307.7861597  +6.2896004      949.241     1487.423     1597.589     78.17917     156.6693     312.8723      1.871     5.06     858.1189     55.14882     155.7992        11     1.292     0.621  86.71   0
        53    581.2715    950.8586 307.6714270  +6.2992899     1692.107     2542.704     2620.137     78.55175     156.4828     312.8723      1.546     3.53     859.6979     55.14882     243.8579        15     1.166     0.785  83.22   0
        54   1012.7527    950.5294 307.4922696  +6.3138307     959.7185     1729.138     2134.651     78.42776     156.4206     312.8723      2.029     5.81     852.5969     55.14882     125.6609        12     1.105     0.859 -58.55   0
        55    620.9755    947.7140 307.6550460  +6.3019161     1360.513     1962.676     2317.938     78.42776     156.2961     312.7167      1.610     3.76      859.441     55.14882     201.7596        14     1.107     0.882  87.14   0
        56     70.3965    948.0737 307.8836446  +6.2833049     644.7757     935.6433     1093.514     77.92979     156.0468     312.7167      1.595     4.46     853.5606     55.14882     103.7694         7     1.093     0.519 -62.77   0
        57    300.5389    945.0470 307.7881892  +6.2922839     1383.602     2151.783     1961.938     78.30356     156.4206     312.9344      1.626     4.21     857.7016     55.14882     202.0106        14     1.109     0.923  89.51   0
        58    568.1978    942.9087 307.6771221  +6.3021344     632.8205      843.884     596.7936     77.80481     156.1715     312.6544      1.326     4.33     859.5646     55.14882     96.12738         5     0.765     0.698  59.34   0
        59    767.5688    941.2626 307.5943908  +6.3094785     813.9949     1203.135     950.9175     78.17918      156.545     312.8412      1.593     4.05     857.4526     55.14882     120.1283         6     0.850     0.551  48.30   0
        60    905.0168    937.7938 307.5374321  +6.3154974     6745.111     10911.75        11170     78.05458     156.2338     312.7167      1.703     3.56     855.1039     55.14882     847.2188        36     1.487     1.164  75.04   0
        61    440.7697    934.9525 307.7303012  +6.3011525     2312.004     3381.086     3752.157     78.05458      156.545     312.7789      1.504     3.50     859.1203     55.14882     350.0206        18     1.214     0.850  87.77   0
        62    342.5020    933.3819 307.7711573  +6.2985071     10178.78     14516.53     15315.45     78.42776     156.3583     312.6233      1.556     3.03     858.7079     55.14882     1339.062        35     1.431     1.018  85.38   0
        63    610.0440    935.4341 307.6599967  +6.3066200     560.8701     679.6572     821.3614     78.17917     156.4828     312.7478      1.295     4.12     859.4161     55.14882      86.5387         5     0.782     0.620  83.66   0
        64    262.6201    932.3117 307.8043620  +6.2962690      7637.87     10995.91     11330.82     78.30357     156.2338     312.7478      1.573     3.08     856.3779     55.14882     1037.729        32     1.370     1.039  85.46   0
        65    590.7972    926.8838 307.6682753  +6.3095061      1196.29     1505.531     557.4581     77.80481     156.1092      312.561      1.428     3.82     859.2642     55.14882     182.4443        12     1.135     0.692  81.25   0
        66    920.7180    922.5324 307.5314221  +6.3223215      1057.24     1870.136     2270.848     78.55175     156.7314     312.9344      1.981     4.68     854.6947     55.14882     155.7177        13     1.207     0.928 -86.95   0
        67    152.7905    922.7591 307.8502866  +6.2965245     606.2131     787.1918     1024.758     77.80481     156.2961     312.5922      1.484     4.66     854.9385     55.14882     90.25055         8     1.222     0.504  43.17   0
        68    876.5317    921.3509 307.5498101  +6.3213356      821.334     1217.714     1014.561     78.30357     156.4206     312.8723      1.693     5.06      855.073     55.14882     105.0746         9     1.120     0.646 -58.25   0
        69    988.2778    918.9058 307.5034886  +6.3260707     738.8998     1378.587     1323.993     78.17917     156.6693     312.9344      1.882     5.20     853.0656     55.14882     107.3447         6     1.007     0.926  88.27   0
        70    757.0168    916.1038 307.5996144  +6.3195125     1745.687     2320.004     2807.614     78.30356     156.2961     312.7167      1.414     3.24     857.2807     55.14882     245.2765        16     1.145     0.845  71.98   0
        71    580.7076    916.7236 307.6728055  +6.3133629     811.7797     1069.472     597.4908     78.17918     156.6693     312.8723      1.412     3.06     858.9326     55.14882      143.605         8     0.879     0.647  65.88   0
        72      7.6271    913.2856 307.9108793  +6.2955548     1009.485      1377.84     1075.236     78.55175     156.2338     309.4945      1.532     5.79     852.2595     55.14882     155.6726        12     1.372     0.688  83.91  16
        73    988.7240    911.5795 307.5035479  +6.3291102      1296.03     2059.675     2302.031     78.05459     156.2338       312.81      1.782     4.43      852.846     55.14882     177.1333        17     1.327     0.971  71.50   0
        74    621.1559    912.5030 307.6561510  +6.3164584     897.4546     1039.527     1095.409     78.42776     156.4206     313.0277      1.303     3.61     858.6545     55.14882     128.8794         8     0.888     0.650  51.36   0
        75    542.0748    911.7747 307.6890134  +6.3141133     1118.612      1610.89     1666.673     78.05458     156.2961     312.8412      1.548     5.00     858.7779     55.14882     187.0037        12     1.297     0.672  72.96   0
        76    675.5971    909.1998 307.6336551  +6.3196423     2659.724     3972.729     4270.678     77.80481     156.0468     312.6233      1.562     3.50     857.9901     55.14882     387.2242        23     1.338     0.968  89.38   0
        77    965.9241    907.5205 307.5131514  +6.3300261     676.3705     1168.979     1116.006     78.67555     156.7314     312.9966      1.678     4.64     853.3682     55.14882     98.58813         7     1.226     0.499   1.05   0
        78     72.1353    905.2839 307.8843644  +6.3010277     3101.177     4715.882     4593.885     78.55175     156.7314     312.9344      1.672     3.20     852.9146     55.14882     456.1122        28     1.619     1.022  86.58   0
        79    836.2066    905.9607 307.5670699  +6.3263437      668.562     861.1271     1328.166     77.80481     156.1715     312.5922      1.465     3.93     855.7433     55.14882     105.6296         8     0.846     0.731  83.69   0
        80    215.7970    904.2564 307.8247477  +6.3062790     2347.193     3376.109     2886.281     77.80481     156.2961      312.561      1.513     3.30     855.7263     55.14882      341.975        19     1.275     0.867  84.15   0
        81     89.6127    904.7396 307.8771259  +6.3018401     2115.301     3010.807     2564.111     77.80481     156.3583      312.561      1.497     3.11     853.1202     55.14882     318.0113        19     1.188     0.955  73.88   0
        82    954.0004    904.3644 307.5182082  +6.3309316     637.2491     1020.142      844.899     77.55423     156.2961     312.6855      1.734     5.34     853.6154     55.14882     96.66724         7     1.057     0.761  40.13   0
        83    249.9492    901.1188 307.8106723  +6.3087208     896.8118     1589.623     1645.731     78.42776      156.545     312.8723      1.813     4.68     856.1103     55.14882     139.3586         9     0.973     0.832 -49.31   0
        84    354.7693    900.5037 307.7671683  +6.3124913     1014.234     1513.811     1766.085     78.55175     156.2338     312.9344      1.791     5.25     857.9225     55.14882     121.2693        10     1.077     0.724  89.18   0
        85    807.4691    899.2278 307.5792285  +6.3281641     802.3683     1049.281     1245.681     78.17918     156.4206     312.7789      1.632     5.81     856.1964     55.14882     126.2502         9     1.355     0.702  51.46   0
        86    670.2634    898.3792 307.6362324  +6.3239311     7268.361     10492.13     10645.75     78.05458     156.4828     312.7478      1.546     2.98      857.819     55.14882     1018.844        29     1.277     1.025  83.01   0
        87     30.1479    896.7448 307.9020860  +6.3031407     1386.506     2033.306     1871.327     78.42776     156.4828     312.8412      1.601     3.75     852.3533     55.14882     179.8002        15     1.176     0.829  83.25   0
        88    907.9141    894.4346 307.5376779  +6.3334944     2785.982      4357.65     4880.194     78.42776     156.3583     312.8723      1.709     4.38     854.4641     55.14882     341.9095        28     1.612     1.094  69.42   0
        89     42.9901    894.8835 307.8968165  +6.3043410     966.3115     1653.854     1700.943     78.05458     156.1715     312.7167      2.054     5.23     852.4777     55.14882     134.0333        13     1.154     0.929 -87.25   0
        90    353.2463    891.5792 307.7681006  +6.3161245     17475.13     25302.71     27236.57     78.05458     156.4828     312.7167      1.577     3.14     857.5682     55.14882     2361.485        45     1.394     1.145  83.72   0
        91     87.6590    892.1753 307.8783604  +6.3069611      1378.41     2125.993     2547.995     78.05458     156.4828     312.7167      1.722     4.40     852.9431     55.14882      178.912        17     1.290     0.930 -79.29   0
        92    403.7464    890.7093 307.7471602  +6.3181766     760.6699     1197.044     1266.835     78.30357     156.2961     312.9966      1.595     5.61     857.5381     55.14882     116.3646        10     1.325     0.669  87.75   0
        93    224.2706    891.1211 307.8216712  +6.3119861     1234.887     1811.652     1402.295     78.67555     156.7314     312.8412      1.516     4.13      855.844     55.14882     206.4022        12     1.271     0.736  89.78   0
        94    430.9195    882.2960 307.7361592  +6.3225605     1194.619     1671.422     1601.724     78.17917     156.7314     312.9655      1.481     3.46     857.3116     55.14882     194.0062        11     0.957     0.854 -54.17   0
        95    116.5965    882.2019 307.8666808  +6.3120510     1870.311     2660.004     2866.996     77.80481     156.0468     312.6233      1.559     3.69      853.446     55.14882      226.795        18     1.244     0.900  64.58   0
        96     94.1845    880.7016 307.8760374  +6.3119170     389.9283      473.468     989.1976     78.42776     156.2338     312.6233      1.140     3.64      852.877     55.14882     78.34137         5     1.180     0.323  79.07   0
        97    684.4924    878.2706 307.6309972  +6.3327082      997.376     1514.135     1875.604     78.42776     156.6071     312.9034      1.451     4.08     857.3637     55.14882     158.1868         8     1.031     0.624  53.53   0
        98    511.6779    879.1498 307.7027300  +6.3265642     701.1219     955.8355     1459.474     78.42776      156.545     312.8412      1.470     2.85     857.6998     55.14882     133.6972         7     0.814     0.612  58.78   0
        99    898.4226    876.2483 307.5422272  +6.3406858     1974.735     3076.646     2852.938     78.05458     156.4828     312.7789      1.677     3.84     854.4247     55.14882     236.4678        22     1.294     1.082  76.08   0
       100    100.0541    875.9680 307.8737597  +6.3140684      2526.68     3637.183     3955.253     78.30357      156.545     312.8412      1.599     3.36     852.9268     55.14882     360.4109        19     1.227     0.926  87.88   0
       101    868.9761    875.8730 307.5544679  +6.3398585     1994.918     3116.028     3391.195     78.05458     156.2961       312.81      1.600     3.74     854.9332     55.14882     296.9683        21     1.357     0.971  74.04   0
       102    832.4893    875.3666 307.5696367  +6.3388500     3036.362     4461.589     5325.025     78.55175     156.3583     312.8723      1.660     3.66     855.3555     55.14882     355.8909        20     1.334     0.882  77.83   0
       103    348.3241    874.4023 307.7707217  +6.3230505     776.8281     1129.346     1437.866     77.92979     155.9844     312.7789      1.540     3.92     856.8312     55.14882     115.7634         6     0.945     0.466  87.25   0
       104    463.0189    873.2647 307.7231332  +6.3273642     665.4438     1089.597     1325.376     78.05458     156.4828     312.7167      1.238     3.31      857.317     55.14882     117.8262         6     1.055     0.426  73.76   0
       105    568.3466    866.7422 307.6796142  +6.3335832     362680.9     514632.1     539309.7     78.55175     156.4828     312.8723      1.542     3.01     857.2997     55.14882     50184.61       179     1.622     1.305  81.78   4
       106    412.6161    869.4230 307.7441920  +6.3272615     8472.242     12146.71     12788.55     78.17918     156.2961     312.7789      1.585     3.07     856.6806     55.14882     1151.559        39     1.393     1.121  77.56   0
       107    656.3647    869.7896 307.6429617  +6.3352692     1330.861     1780.562     2042.254     77.92979     156.2961     312.6544      1.425     4.10     857.2579     55.14882     202.1282        12     1.211     0.706  71.21   0
       108    355.7776    867.7535 307.7678501  +6.3260453     13502.33     19509.86     20416.34     78.05458     156.4828     312.7478      1.538     3.06      856.625     55.14882     1973.225        42     1.400     1.119  86.72   0
       109    674.2413    864.0845 307.6357293  +6.3382221     3951.118      5578.85     5872.765     78.42776     156.3583     312.8412      1.513     3.09     857.1117     55.14882     558.0041        23     1.290     0.908  81.44   0
       110    906.6353    862.9570 307.5392609  +6.3464469      5117.92     7857.433     8124.066     78.17917     156.4828     312.6855      1.619     3.39     854.0988     55.14882     647.6731        31     1.404     1.098  82.60   0
       111     50.1266    865.8454 307.8948320  +6.3165684     2640.209     2706.189     2552.202     78.30356      156.545     312.9034      0.542     0.00     852.2438     55.14882     1743.294         5     0.442     0.350 -19.71   0
       112    746.0007    860.8813 307.6060373  +6.3419423     895.9411     1248.498      1311.13     77.67962     155.9844     312.5922      1.629     4.83     856.7373     55.14882     157.9276        11     1.100     0.707  88.42   0
       113    837.3459    857.4164 307.5682202  +6.3464226     1543.211     2200.416     2383.653     77.92979     156.4828     312.5922      1.578     3.54     855.0089     55.14882     224.6589        15     1.172     0.831  70.36   0
       114    649.0692    858.0094 307.6463859  +6.3398885      3692.26     5541.288     6236.495     77.92979     156.2961     312.7478      1.581     3.25     856.9352     55.14882     563.2971        26     1.287     1.047  67.62   0
       115    639.3564    856.9534 307.6504547  +6.3399997     1122.544     1729.543     2484.678     78.42776     156.4828       312.81      1.811     4.57     856.8978     55.14882     170.0433        12     1.318     0.716  71.46   0
       116    192.4050    858.0038 307.8360174  +6.3245875     570.9003     857.5437     1311.891     77.80481     156.1092     312.7167      1.250     3.49     854.8694     55.14882     105.2405         6     0.804     0.490  87.21   0
       117    964.2750    856.2996 307.5155469  +6.3511171     836.0314       1199.8     1407.333     77.92979     156.6071     312.7789      1.483     4.77     852.2908     55.14882     121.2315         8     0.931     0.692  24.39   0
       118    641.9480    852.4452 307.6495295  +6.3419475     2296.117     3475.667     4150.961     78.55175     156.4206     312.8723      1.617     3.91     856.7509     55.14882     319.1613        19     1.283     0.921 -83.51   0
       119    925.5844    850.7555 307.5317995  +6.3521160      3300.49     5002.449     5992.648     77.92979     156.2961     312.6855      1.650     3.45     853.5556     55.14882     404.7932        24     1.387     0.992  85.30   0
       120    335.6616    851.6681 307.7767439  +6.3320111     1131.945     1690.016     1460.116     78.42776     156.4206     312.8723      1.537     3.50     856.3014     55.14882     187.1576        10     1.006     0.738 -80.91   0
       121    383.7185    846.8696 307.7569493  +6.3356035     2814.529     3993.298     4237.396     78.67555     156.7314     312.9034      1.508     3.19     856.2263     55.14882       431.84        19     1.178     0.915 -89.51   0
       122    864.5444    842.3593 307.5574287  +6.3535464     522.4177     679.5341     1328.972     78.30357      156.545     312.9034      1.660     4.22     854.2889     55.14882     86.96893         5     0.983     0.517  45.63   0
       123    805.0657    841.4084 307.5821608  +6.3519539     430.7318     584.3268     789.6071     77.92979     156.2338     312.7478      1.629     4.65     855.1923     55.14882     80.62628         5     1.045     0.587  72.50   0
       124    352.1131    839.6559 307.7703160  +6.3375218     584.7198     846.6163     629.4722     78.42776     156.4206     312.9966      1.623     4.50     856.1199     55.14882     132.7328         7     1.252     0.460  72.59   0
       125    519.8923    836.5189 307.7007492  +6.3444386     3288.826     4371.153     4237.895     78.17917     156.7314     312.9344      1.436     3.29     856.4854     55.14882     490.0887        21     1.227     0.919  74.54   0
       126    864.5059    835.5099 307.5576738  +6.3563728     1044.202      1665.37     1896.486     78.42776     156.9796     312.9034      1.672     3.95     854.1141     55.14882     148.1534        11     1.033     0.848  72.42   0
       127    584.9720    834.3270 307.6737972  +6.3475216     928.1292     1167.544     1552.582     78.30356     156.4206       312.81      1.483     3.47      856.217     55.14882     124.5966         9     0.892     0.694  74.95   0
       128    566.7631    832.5655 307.6814178  +6.3476395     6604.222     9375.354     10194.05     78.17918     156.2961     312.6544      1.542     3.15     856.2689     55.14882     933.7787        27     1.330     0.937  79.96   0
       129    573.7628    832.1038 307.6785265  +6.3480643     1347.808     1955.318      2661.72     78.42776     156.3583     312.9966      1.371     3.95     856.2056     55.14882     237.0431        10     1.101     0.593  71.58   0
       130    278.2943    832.4373 307.8012123  +6.3380255      793.535     1155.224     712.1409     78.55175     156.3583     312.9966      1.474     4.78     855.7465     55.14882     142.5773         9     1.349     0.617  88.90   0
       131    902.3466    830.5652 307.5421244  +6.3596764     1407.721     2195.458     2014.621     78.30357     156.4828     312.8412      1.629     5.12     853.5356     55.14882     210.0682        18     1.369     1.001 -85.69   0
       132    484.4656    831.6322 307.7156247  +6.3452697     1717.109      2483.09     2232.674     78.30357      156.545     312.8412      1.504     2.97     856.3421     55.14882     268.2992        14     1.038     0.828  39.97   0
       133    126.2246    830.4719 307.8644252  +6.3337297     1349.827     1945.338     1989.833     78.05458     156.3583       312.81      1.544     3.65     852.8633     55.14882     240.5782        14     1.132     0.889 -50.45   0
       134    702.4285    829.7105 307.6251752  +6.3533549     753.7504     1143.596     1205.382     78.55175     156.2338     312.7789      1.328     3.73     856.0897     55.14882     133.9039         6     1.085     0.455  46.02   0
       135    537.4535    826.4504 307.6937944  +6.3491830     21788.29     30415.98     31356.52     78.55175     156.4206     312.9034      1.535     3.02     856.1702     55.14882     2803.515        49     1.448     1.098  87.65   0
       136    378.4687    827.3883 307.7597838  +6.3434699     659.1071     771.5591     295.8537     77.92979     156.2961     312.7478      1.123     3.06     855.9077     55.14882     143.7018         7     0.938     0.486  82.00   0
       137    951.0298    824.6998 307.5221029  +6.3637212     3777.409     5652.134     5778.583     78.42776     156.2338     312.9344      1.561     3.44      852.272     55.14882     511.9572        25     1.368     0.970  72.51   0
       138     71.1521    823.6459 307.8875237  +6.3346961     490.7766     929.3904     793.1315     78.42776     156.3583     312.8723      1.785     4.13     851.8583     55.14882     92.34625         6     0.767     0.635  74.30   0
       139    423.6332    822.0891 307.7412066  +6.3471714     652.4745     1000.817     1184.682     78.55175     156.3583     312.8723      1.628     4.47     855.8331     55.14882     108.1288         6     0.854     0.666 -66.39   0
       140    705.5012    818.7812 307.6242653  +6.3579696     545.1566     724.2103      704.528     78.42776     156.3583     312.6233      1.558     3.35     855.7476     55.14882     93.75598         5     0.794     0.684 -40.88   0
       141     47.7680    816.9205 307.8974604  +6.3366860     1749.743     2728.201         2501     78.30356     156.4828     312.8412      1.612     3.93     851.3461     55.14882       220.75        17     1.290     0.839  78.56   0
       142    330.0199    815.1217 307.7803150  +6.3469092     3589.477     4849.306     5171.696     78.05458     156.1715     312.8412      1.431     3.31     855.7325     55.14882     542.8918        21     1.193     0.891  79.66   0
       143    795.6282    810.9821 307.5870980  +6.3641999     58438.28     84562.67     88563.45     78.05458     156.2961       312.81      1.541     3.03     855.0565     55.14882     8300.536        72     1.503     1.169  78.39   0
       144     30.0248    813.2682 307.9049513  +6.3375969     2289.957      3530.93     3701.469     78.05458     156.3583     312.7789      1.620     3.25     850.9404     55.14882     308.2154        17     1.131     0.912  76.36   0
       145    734.2582    812.7603 307.6125245  +6.3614161     723.0783     1082.514     1301.634     78.42776      156.545     312.9344      1.587     5.19     855.4151     55.14882     107.3472        10     1.074     0.707  49.91   0
       146    438.9734    809.7035 307.7352523  +6.3527985     857.8936     1150.075     1070.152     78.55175     156.2338       312.81      1.400     5.18     855.6417     55.14882     136.1983        10     1.207     0.639 -80.42   0
       147    252.4185    787.3959 307.8134725  +6.3557510     770276.8      1688116      1868735     78.05459     156.0468     312.6855      2.228     5.70     853.9348     55.14882     63934.86       637     2.798     2.088  86.54   4
       148    917.8206    797.5467 307.5368017  +6.3738238      7020.61     10261.72     10861.84     77.92979     156.4828     312.6855      1.573     3.18      852.785     55.14882     961.8377        31     1.403     1.012  75.79   2
       149    540.3568    806.8397 307.6932465  +6.3573761     555.9474     607.5526     337.9477     78.17917     156.4828     312.7478      1.380     4.00      855.626     55.14882     86.99255         6     1.115     0.410  76.21   0
       150    411.5306    803.3054 307.7468633  +6.3545202     1588.219     2401.901     2429.344     78.30357      156.545     312.9034      1.642     4.20     855.4924     55.14882       242.25        16     1.326     0.865 -69.47   0
       151    362.4309    802.9568 307.7672647  +6.3530181     22182.18     31950.83     33196.38     78.05458     156.4206     312.7167      1.522     3.14       855.54     55.14882     2931.004        45     1.400     1.109  82.27   0
       152    723.8243    805.6492 307.6170957  +6.3640032     22980.54     33435.49      35571.6     78.05458      156.545     312.7789      1.549     3.00     855.2514     55.14882     3490.152        51     1.480     1.127  74.69   3
       153    651.5093    802.6072 307.6472289  +6.3628420     962.2808     1233.293     2018.154     78.05459     156.1715     312.6544      1.421     4.47     855.3507     55.14882     160.3503        12     1.278     0.816  89.75   0
       154    424.3172    800.7983 307.7416376  +6.3559837     24007.59     34080.21     35805.38     77.67962     156.0468     312.5922      1.512     3.02     855.4542     55.14882     3429.265        48     1.416     1.070  78.73   0
       155    961.4666    799.8929 307.5185973  +6.3743104     2099.287     3203.039     3267.918     78.30356     156.6693     312.8723      1.557     3.62     851.4596     55.14882     287.4184        20     1.283     0.939  76.74   0
       156    890.5621    798.4197 307.5480929  +6.3725543      689.996     760.3654      723.382     78.05459     156.2961      312.561      1.249     3.91     852.9332     55.14882     109.3069         8     0.934     0.663 -84.85   0
       157    658.3788    796.7140 307.6445736  +6.3655046     6987.379     9896.396     10175.85     78.42776     156.2338     312.7789      1.520     3.12     855.1544     55.14882     996.4697        30     1.370     0.991  68.99   0
       158    398.5328    796.9055 307.7524760  +6.3567266     523.9568     574.5126     300.8942     78.30356     156.6693     312.8723      1.487     3.96     855.2864     55.14882     91.48413         5     0.905     0.495  85.20   0
       159    447.1046    794.7281 307.7323785  +6.3592532     1942.237     2885.149     2865.858     78.17917     156.6071     312.8723      1.572     3.59     855.1774     55.14882     299.6902        15     1.166     0.792  78.73   0
       160    172.2219    794.0751 307.8465504  +6.3503005     855.4228      1181.27     926.2944     78.05458     156.3583       312.81      1.378     4.16     852.5291     55.14882     123.4059        12     1.047     0.853  85.99   0
       161    886.4866    788.7668 307.5501081  +6.3764034     671.7651     931.7294     907.0579     78.42776     156.3583     312.8723      1.448     4.02     852.8599     55.14882      103.128         7     0.968     0.480  80.40   0
       162    611.4384    788.9620 307.6643271  +6.3671351     947.4969     1246.428     1594.802     78.17917     156.3583     312.7478      1.452     3.20     854.5458     55.14882      152.952         8     0.837     0.691 -52.52   0
       163    693.4168    787.0009 307.6303481  +6.3706857     2707.172      4016.38     4064.391     78.05458     156.0468      312.561      1.514     2.92     854.6984     55.14882     390.8892        19     1.169     0.932  73.25   0
       164    162.4542    787.4140 307.8508308  +6.3527222     1195.662     1337.493      1167.86     77.80481     156.4206     312.6233      1.280     3.98     852.0219     55.14882     166.1041        10     1.006     0.685  86.56   0
       165    137.8051    787.2938 307.8610707  +6.3519436     1114.414     1510.341     1649.882     78.17917     156.1715     312.6233      1.449     4.51     851.8133     55.14882     137.5695        13     1.180     0.853 -84.48   0
       166    427.2391    783.4838 307.7410057  +6.3632295     59303.54      83001.8     87105.97     78.42776     156.4206       312.81      1.526     3.03      854.624     55.14882     8113.057        73     1.447     1.198  82.37   0
       167    969.9182    785.3303 307.5155738  +6.3806041     744.9651     1087.198     1147.689     78.67555     156.7314     312.9034      1.575     2.77     850.8491     55.14882     121.5634         7     0.805     0.609  25.68   0
       168     79.6454    784.9942 307.8852994  +6.3509378     552.7135     627.8621     63.53508     77.80481     156.2338     312.5299      1.315     3.88     851.2093     55.14882     104.8264         5     0.981     0.541 -15.87   0
       169    544.9397    782.5586 307.6921578  +6.3675535       7882.5     10937.46     11041.34     78.42776     156.4828     312.9344      1.482     3.16     854.6179     55.14882     1205.082        28     1.270     0.988  84.55   0
       170    461.8575    781.1381 307.7267082  +6.3653578     4989.293     7031.402     7761.306     78.55175     156.4206     312.9034      1.466     3.06     854.5317     55.14882     778.8055        27     1.266     1.015  78.29   0
       171    790.2292    779.0938 307.5904072  +6.3771843     12125.65     17655.39     17933.02     78.55175     156.2338     312.7789      1.557     3.24     854.1906     55.14882     1712.651        39     1.407     1.073  76.26   0
       172    685.0611    779.2246 307.6340786  +6.3736168     588.8804     955.0909     1239.092     78.05458     156.4206     312.7789      1.751     3.85     854.3798     55.14882     102.3453         5     0.825     0.514 -49.33   0
       173    458.3251    774.4973 307.7283980  +6.3679810     2486.088     3534.028     4274.364     78.05459     156.6071     312.9034      1.609     3.83     854.2089     55.14882     340.6589        21     1.342     0.862  71.53   1
       174     19.6596    775.3842 307.9105328  +6.3528873     1195.075     1687.688     1309.331     77.92979     156.4206     312.6233      1.509     3.84     850.6136     55.14882     190.4816        10     1.046     0.726  56.32   0
       175    811.9626    773.4951 307.5815686  +6.3802212     1254.062     1789.231     1928.008     78.55175     156.3583     312.9966      1.346     3.93     853.7936     55.14882     203.8979        12     1.236     0.630  80.67   0
       176    717.5438    802.1036 307.6198226  +6.3652571      94979.7     135034.5     141353.1     78.30356     156.4206     313.0899      1.507     3.00     855.1653     55.14882     13046.37        87     1.517     1.177  84.96   3
       177    920.8794    806.2414 307.5352409  +6.3703363     8673.673     13157.13      14165.2     78.30356     156.4828     312.8723      1.636     3.19     852.9088     55.14882     1238.004        38     1.438     1.124  75.59   2
       178    155.9956    771.3307 307.8540544  +6.3591447      3103.68     4546.075     4472.727     77.92979     156.1092     312.6855      1.554     3.27     851.1394     55.14882     431.5143        23     1.261     1.009  78.55   0
       179    147.9245    771.1420 307.8574124  +6.3589514     12308.64     17785.88     19168.08     78.55175     156.4828     312.8412      1.522     3.18     851.0946     55.14882     1799.714        41     1.329     1.201  81.81   2
       180    140.1229    768.4960 307.8607413  +6.3597816     3085.052     4614.632     4961.547     78.17917     156.6693     312.9344      1.670     3.35     850.9035     55.14882     447.4362        24     1.366     0.988  79.57   3
       181    140.0883    761.9876 307.8609748  +6.3624672     2110.613     3308.413     3482.989     78.17917     156.2338     312.7478      1.699     4.00      850.611     55.14882     343.3958        19     1.402     0.868 -84.86   3
       182    935.8052    767.6893 307.5303304  +6.3867498     6497.179     9601.786     9805.417     77.92979     156.1715     312.6233      1.592     3.19     851.8162     55.14882     887.9235        31     1.311     1.114  72.96   0
       183    984.7502    767.5056 307.5100093  +6.3884572      1597.07     2233.835     2816.303     78.30357     156.3583     313.0277      1.539     3.82     850.0262     55.14882     220.4122        13     1.079     0.819  63.28   0
       184    691.1664    765.3171 307.6320090  +6.3795623     1952.777     2758.881     3190.464     78.42776     156.4828     312.8412      1.417     3.41     853.7556     55.14882     283.8321        15     1.282     0.665  76.58   0
       185    577.9611    764.5902 307.6790471  +6.3760765     2541.283     3469.601     3717.574     77.80481     156.2961     312.5922      1.485     3.17     853.6812     55.14882     362.8548        18     1.168     0.894  77.17   0
       186    425.8638    763.9540 307.7422328  +6.3712459     1306.259     2150.747     2434.805     78.30356     156.4206     312.9034      1.817     4.74     853.7477     55.14882     223.1851        13     1.295     0.784  89.63   0
       187    709.5367    762.6813 307.6244681  +6.3812644     680.4601     643.6371     183.9393     78.55175      156.545     312.8723      1.283     4.08      853.658     55.14882     112.5667         7     1.003     0.474 -79.95   0
       188    959.3202    759.2898 307.5208451  +6.3910014     3236.137     4583.778     4967.383     78.17918     156.6693     312.9655      1.544     3.29      850.817     55.14882      437.351        21     1.307     0.939  86.19   0
       189    929.9162    759.6593 307.5330445  +6.3898685     3042.643     4721.228     5127.021     78.55175      156.545     312.9344      1.629     3.59     851.8624     55.14882     422.2184        24     1.327     0.979  79.88   0
       190    990.2752    758.9702 307.5079998  +6.3921650      1976.74     2957.958      2926.75     78.30356      156.545     312.8723      1.567     3.75     849.7225     55.14882     283.4265        18     1.224     0.919  84.09   0
       191    682.2042    758.7260 307.6359518  +6.3819838      1521.06     2145.741     2854.601     78.05458     156.0468     312.7478      1.608     3.92     853.4955     55.14882     245.7768        15     1.257     0.790  67.33   0
       192    829.8750    757.4052 307.5746678  +6.3874616     1016.801     1224.509     917.3538     78.05458     155.9844       312.81      1.420     5.94     853.1468     55.14882     134.1273        13     1.346     0.737  74.62   0
       193    905.0704    755.0238 307.5435181  +6.3909537     706.1762     861.7742     1365.893     78.05458     156.3583       312.81      1.284     4.95     852.1741     55.14882      99.3924         8     1.044     0.664  64.42   0
       194    254.6975    753.9100 307.8136526  +6.3696513     2031.509      2971.25      3643.83     78.42776     156.9175     312.8723      1.594     3.87     853.1385     55.14882     269.5123        18     1.310     0.868  87.78   0
       195    691.9250    751.3243 307.6321627  +6.3853644     772.2477     964.5289     1552.262     78.67555     156.7314     312.9655      1.447     4.21     853.1512     55.14882     118.5428         7     0.872     0.606 -77.28   0
       196    947.8620    749.1989 307.5259409  +6.3947853     1011.485     1836.732     1860.405     77.80481     156.2961      312.561      1.690     4.45     851.0135     55.14882     148.2757        15     1.501     0.747  50.60   0
       197    921.6959    747.8094 307.5368545  +6.3944865     1209.247     2057.438     2103.499     78.17917     156.1092     312.6544      1.776     4.69      851.761     55.14882     192.9595        16     1.551     0.813  88.00   0
       198    274.7770    750.0005 307.8054455  +6.3719392     825.5317     1177.322     641.0596     78.05458     156.1715     312.6544      1.529     5.50     853.2007     55.14882     121.7213         9     1.068     0.798 -58.67   0
       199    170.5045    748.9648 307.8487824  +6.3688653     917.3182     1237.456     1306.846     78.55175     156.3583     312.9655      1.454     3.72     850.4484     55.14882     159.9115         8     1.091     0.496  86.32   0
       200    974.3574    746.9586 307.5150118  +6.3965934     2361.561     3577.334     3243.377     78.17917     156.4828     312.7478      1.552     3.94     850.0999     55.14882     331.5994        21     1.344     0.945  82.19   0
       201    693.7762    746.1846 307.6315660  +6.3875481      1013.41     1526.132     1489.308     78.17917     156.2961       312.81      1.751     3.66     852.9399     55.14882      146.214         9     1.004     0.627 -61.37   0
       202    484.9128    741.8784 307.7184515  +6.3823376     543.6104     638.0698     646.9873     78.30356     156.7934     312.9966      1.226     3.33     852.7318     55.14882     95.76672         5     0.784     0.515 -52.45   0
       203   1016.0840    740.4933 307.4978980  +6.4006530     1601.142     2316.142      2877.41     78.17917     156.9175     312.9966      1.545     3.21     848.6165     55.14882     277.0582        16     1.101     0.947  75.87   0
       204    817.4189    739.1436 307.5804519  +6.3945849     1187.077     1626.677     1629.282     77.92979     156.4206     312.6855      1.632     4.23     852.7629     55.14882      165.353        12     1.213     0.745  82.32   0
       205    642.0726    740.0137 307.6532455  +6.3883671     803.6895     881.4406     658.9803     77.92979     156.2338     312.6855      1.510     4.39     852.6093     55.14882     126.8153         9     1.131     0.778  63.05   0
       206    414.9198    741.1588 307.7475433  +6.3802896     741.1421     1093.395     932.5361     78.42776     156.4828       312.81      1.444     4.30     852.6871     55.14882      109.929         8     0.966     0.711  15.04   0
       207    903.7339    736.2151 307.5447019  +6.3986741     1542.254     2369.221     2383.734     77.92979     156.3583       312.81      1.713     5.09     851.8708     55.14882     239.8558        16     1.509     0.751  66.08   0
       208    878.1234    731.4722 307.5554969  +6.3997778      988.784      1501.71     1417.185     78.67555     156.7314     312.8723      1.670     4.92     852.2114     55.14882     135.2761        12     1.268     0.715 -85.30   0
       209    664.1349    730.9631 307.6443862  +6.3928412     734.7467     1032.188     887.5933     78.30356     156.4828     312.9344      1.481     4.35     852.4297     55.14882     101.5117         6     0.810     0.665  87.02   0
       210    860.5546    727.2595 307.5629344  +6.4009308     1699.196     2474.956     2119.169     78.30357     156.4206     312.9655      1.540     3.30     852.3286     55.14882     230.1102        17     1.160     0.862  73.36   0
       211     59.5504    726.4552 307.8956172  +6.3744278     2725.772     3667.982     3897.377     78.42776     156.4828     312.9034      1.553     3.30     849.6977     55.14882     366.9174        20     1.259     0.877  85.49   0
       212    123.6620    725.1904 307.8690357  +6.3771057     888.2224     2095.064     2370.753     77.80481     156.2961     312.6855      2.465     7.33     849.1686     55.14882     131.2223        14     1.806     0.832  86.57   0
       213    472.1837    725.7581 307.7242790  +6.3885662     641.5748     581.5591     805.5628     77.92979     156.2961     312.6544      1.236     4.14      852.191     55.14882     101.4493         6     0.785     0.624  76.95   0
       214    715.3903    718.6434 307.6235119  +6.3996404     530.3346     492.5644     126.5175     77.92979     156.2961     312.6233      1.271     3.50     852.2869     55.14882     92.42535         5     1.057     0.334  69.25   0
       215    672.2701    714.9171 307.6415452  +6.3997375     6997.758     9907.979     10794.33     78.67555     156.7314     312.9034      1.481     3.08     852.2853     55.14882      978.108        28     1.349     0.934  71.48   0
       216    619.1042    714.3512 307.6636447  +6.3981933     1661.286     2331.865     2721.104     78.30356     156.3583     313.0277      1.546     3.01     852.3378     55.14882     271.0569        14     1.103     0.790  81.15   0
       217    540.8078    714.8319 307.6961458  +6.3953748     743.5811     1118.631     1185.928     77.92979     156.3583     312.6855      1.596     3.74     851.8956     55.14882     104.1384         8     0.831     0.679 -47.30   0
       218    529.9336    714.6859 307.7006668  +6.3950711     1058.081     1279.766     1114.362     78.42776     156.7314     312.9344      1.341     3.10     851.8934     55.14882     184.8096         9     0.978     0.656 -79.22   0
       219   1009.3453    710.3132 307.5017045  +6.4128880     2740.287     4091.265     3842.864     78.42776     156.3583     313.0277      1.587     3.54     848.8096     55.14882     386.1186        21     1.348     0.905  74.30   0
       220    646.2400    710.6443 307.6524991  +6.4006311     2320.045     3281.871     3524.144     78.17918     156.4828     312.7789      1.505     3.20     852.2838     55.14882     335.9761        17     1.191     0.826  88.45   0
       221    135.2950    710.8708 307.8646871  +6.3834081     3913.695     5718.849      6006.05     78.30356      156.545     312.8412      1.544     3.36     848.9122     55.14882     536.8763        23     1.288     1.017  65.78   0
       222    321.5926    710.3811 307.7873360  +6.3898659      675.066     871.2255     678.5441     78.05459     156.1715     312.7167      1.511     4.04      851.361     55.14882     117.8989         7     1.002     0.465  79.76   0
       223    257.8371    710.6001 307.8138059  +6.3876360     722.2909     853.6152     626.7036     77.42863     156.2338     312.6855      1.207     3.76     850.9533     55.14882     126.0053         6     0.992     0.453  61.87   0
       224    789.1949    707.0947 307.5932462  +6.4068735     21571.07      30489.1     32159.84     78.17917     156.1715     312.6233      1.473     3.04     851.8333     55.14882     3214.868        47     1.405     1.077  82.88   0
       225    919.1848    706.8191 307.5392674  +6.4113252     3886.837     5571.279       5761.5     78.17917     156.2338     312.7789      1.489     3.11     850.4614     55.14882     544.2489        24     1.309     0.909  70.54   0
       226    516.8100    707.2838 307.7063656  +6.3976875     973.4826     1161.156      1138.96     78.05458     156.1715     312.7167      1.328     3.52     851.6728     55.14882     164.0989        11     1.023     0.720 -80.70   0
       227    488.2144    707.4301 307.7182366  +6.3966695     1656.291     2087.962     1974.079     78.05458     156.2338       312.81      1.351     3.07     851.6613     55.14882     235.3412        13     0.996     0.811  79.94   0
       228    334.2152    707.2122 307.7822003  +6.3915976     571.5985     968.2724     995.6223     78.30356     156.1715       312.81      1.440     3.50     851.3748     55.14882     108.1221         5     0.905     0.398  44.92   0
       229    290.3048    706.3433 307.8004654  +6.3904830     664.8701     833.3638     666.8066     78.30357     156.4828     313.0588      1.400     3.49     850.7437     55.14882     131.1714         6     0.760     0.648 -39.13   0
       230    560.4708    705.7863 307.6882830  +6.3997673     537.3177     801.3153     913.7959     77.92979     156.2961     312.7478      1.341     3.79     851.8089     55.14882     77.54175         5     1.041     0.396   6.27   0
       231    979.1470    703.3636 307.5144788  +6.4147508     529.9966     845.8599     860.2654     78.30356     156.4828     312.9034      1.391     3.51     849.2955     55.14882     110.1824         5     1.014     0.350 -86.61   0
       232    669.8060    699.8866 307.6430722  +6.4058602     7590.932     10836.72     11093.64     77.92979     156.1715     312.5922      1.486     3.12     852.1558     55.14882     1122.037        30     1.366     0.984  84.02   0
       233    652.1760    700.9572 307.6503584  +6.4048288     1025.971     1260.651     1475.362     78.05458     156.3583     312.7167      1.325     4.46     852.1973     55.14882     139.7056        10     1.058     0.675  78.57   0
       234    262.6733    700.6899 307.8121308  +6.3918895     6698.918       9527.8     9675.267     78.42776     156.7314     312.9034      1.518     2.99     850.3032     55.14882     938.9424        26     1.268     0.967  84.28   0
       235    365.0987    699.8505 307.7696218  +6.3956725     679.1805     807.3606      530.036     78.42776     156.4828     313.0588      1.356     3.70     851.4133     55.14882     128.0556         6     0.982     0.599 -83.24   0
       236    929.6813    692.4435 307.5353883  +6.4176100     1211.257      1808.91      1821.71     78.42776     156.4828     312.8412      1.680     4.39     849.6782     55.14882     150.2114        14     1.234     0.775 -88.38   0
       237    741.3666    688.3210 307.6137389  +6.4130265     3959.372     5541.723     5677.398     78.30357     156.4828     312.8723      1.469     3.21      851.498     55.14882     514.4172        23     1.343     0.878  73.41   0
       238    696.7439    688.7957 307.6322559  +6.4113394      1129.58     1386.405     1179.508     77.80481     156.2961     312.5922      1.288     3.47     851.8602     55.14882     169.8434        11     1.057     0.708  78.95   0
       239    946.1830    685.5297 307.5287656  +6.4210145     2568.557      3688.64     2056.578     77.92979     156.3583     312.7478      1.526     3.24     849.3223     55.14882     384.6287        23     1.379     0.930  78.70   0
       240      6.8892    686.9437 307.9188185  +6.3889670     778.2014     1073.697     1190.155     78.42776     156.3583     304.6452      1.440     4.76     848.2951     55.14882     114.0745         7     1.028     0.626  68.66  16
       241   1007.7573    684.8796 307.5032134  +6.4233351     9380.075      13676.2     14334.37     78.42776     156.4828     312.8412      1.545     3.13     848.8143     55.14882     1347.661        36     1.415     1.050  82.84   0
       242    996.3810    685.5046 307.5079175  +6.4226981     620.1984     855.5133     554.7318     78.30357     156.2961     312.6855      1.664     3.39     848.9131     55.14882     97.42401         5     1.060     0.313  68.51   0
       243    748.7924    685.7849 307.6107396  +6.4143216     464.3037      533.632     366.5002     78.05458     156.2338     312.7167      1.221     4.41     851.4108     55.14882     76.74951         5     0.755     0.734 -24.21   0
       244     26.5942    684.8726 307.9107052  +6.3904851     1943.015     3285.852     3900.335     78.05458     156.0468     312.7789      1.897     4.70     848.2331     55.14882      301.602        23     1.502     1.090  -9.99   0
       245    560.2841    683.3875 307.6891119  +6.4090080     552.0939      580.848     430.8212     78.05458     156.3583     312.7167      1.133     3.41     851.3105     55.14882     84.70959         5     0.761     0.441  19.39   0
       246    443.4652    683.1483 307.7376367  +6.4051946     628.8486     693.2203     630.8081     78.42776     156.4206     312.8723      1.300     2.86     850.9415     55.14882      122.887         5     0.737     0.470  72.77   0
       247     85.1015    679.7224 307.8865814  +6.3945792     27333.27     39736.04     41855.73     78.05458     156.7314     312.9034      1.540     3.19     848.2524     55.14882     4051.197        56     1.481     1.154  81.89   0
       248    546.3179    680.6795 307.6950032  +6.4096584     2335.158     3084.481     3224.158     78.55175     156.7314     313.0277      1.461     3.26     851.0117     55.14882       323.09        19     1.240     0.865 -86.95   0
       249    515.1998    677.9138 307.7080199  +6.4097584     1451.115     2270.617     2280.848     77.67962     155.9844     312.5299      1.643     3.36     850.8805     55.14882     200.7072        15     1.091     0.906  70.23   0
       250    935.9763    676.9622 307.5332912  +6.4242112     1108.336     1707.849     2076.155     78.05458     156.2338     312.6544      1.611     3.21     849.0923     55.14882     206.5952        10     1.165     0.577  73.26   0
       251    555.3518    674.5466 307.6914570  +6.4124927       1305.1      1829.66     1622.779     78.42776     156.4828     312.8723      1.493     3.83     851.0361     55.14882     198.4374        13     1.177     0.785 -78.28   0
       252    731.0530    672.0582 307.6185670  +6.4193958     3844.298     5388.274     5380.179     78.42776     156.4828     312.8723      1.433     3.00     851.2042     55.14882     653.6931        22     1.296     0.882  72.44   0
       253    753.0779    670.2003 307.6094816  +6.4208986      4504.93     6222.249     6159.234     77.67962     155.8596     312.5922      1.432     3.17     851.0056     55.14882     659.6548        22     1.194     0.949  87.63   0
       254    584.6286    668.0872 307.6795143  +6.4161391     3627.038     5313.289     5786.059     78.55175     156.2338     312.7478      1.549     3.24     851.4225     55.14882     525.2562        25     1.296     0.997  87.39   0
       255    420.5481    668.6173 307.7476426  +6.4104253     1398.673      1785.12      1947.36     77.92979      156.545     312.6233      1.356     2.72     850.4348     55.14882     237.4285        12     0.925     0.784  82.85   0
       256    245.1617    667.5201 307.8205195  +6.4049948     1764.819     2479.027     2093.427     78.30357      156.545     312.8412      1.456     3.51     848.2172     55.14882      268.522        14     1.197     0.752  79.14   0
       257    991.3689    665.3253 307.5106732  +6.4308619     8332.055     12077.98     12725.04     78.30357      156.545     312.8723      1.576     3.15     848.7202     55.14882     1150.829        38     1.445     1.181 -84.48   0
       258    328.7259    667.3659 307.7858197  +6.4078630     1548.013     2199.931     2592.967     78.30357     156.4828     312.8412      1.548     3.51     849.5804     55.14882     210.1842        14     1.111     0.799  78.15   0
       259   1024.0000    666.1987 307.4970909  +6.4315885      415.388     578.2986     932.3748     62.85998     118.6302     229.5887      1.104     3.66     848.6281     55.14882     143.2484         5     1.333     0.289  90.00  24
       260    711.2664    663.9659 307.6270560  +6.4220754     1095.312     1688.296     1731.093     78.30356      156.545     312.9034      1.488     4.05     851.2299     55.14882     172.8556         9     1.045     0.667 -84.31   0
       261    102.9534    661.9700 307.8797659  +6.4025079     1009.228     1423.171     1657.976     77.92979      156.545     312.7789      1.498     3.40     847.9144     55.14882      166.524        11     1.049     0.686  88.69   0
       262    149.8160    658.6530 307.8604156  +6.4054526     26016.93     37447.57     38627.34     77.80481      156.545     312.5922      1.533     3.21     847.8805     55.14882     3786.701        48     1.431     1.096  84.07   0
       263    436.6484    659.5786 307.7412595  +6.4146964     3163.407     4794.817     5327.022     78.05459     156.4828     312.7478      1.666     3.15     850.1064     55.14882     449.6182        27     1.302     1.070 -77.47   0
       264    818.1263    659.3795 307.5828268  +6.4275381     1260.613     1514.273     1744.036     78.05458     156.3583       312.81      1.309     3.46     850.3644     55.14882     225.1354        11     1.121     0.628  75.12   0
       265    369.4132    653.3278 307.7693936  +6.4150230     791.5116     1155.758     557.3497     77.92979     156.1715     312.6855      1.507     5.17     849.5186     55.14882     113.4512         9     1.172     0.699 -63.81   0
       266    986.3370    648.1963 307.5133353  +6.4377657     7084.697     11117.19      11817.7     77.80481     156.2338     312.6233      1.671     3.38      848.494     55.14882     928.9539        38     1.550     1.098  63.54   0
       267     30.6716    647.5488 307.9102705  +6.4060301     1320.365     1950.666     1738.968     78.42776     156.4828     312.9034      1.622     4.39     847.4641     55.14882     183.2866        16     1.335     0.851  70.54   0
       268    579.8583    643.5295 307.6823192  +6.4261177     53651.37      73713.6     76781.42     78.55175     156.4828     312.8723      1.491     3.14     850.4369     55.14882     7769.959        64     1.428     1.135  79.27   0
       269    944.1674    645.1386 307.5309526  +6.4376223      737.653     1170.835     1283.412     78.17917      156.545       312.81      1.530     4.21     848.7405     55.14882     136.1859         9     1.197     0.670  86.94   0
       270    539.0455    644.0935 307.6992511  +6.4245188     739.2621     958.4789     989.9055     78.30357     156.4206     312.9966      1.362     4.33     850.0071     55.14882     122.4162         7     1.108     0.483 -89.75   0
       271    223.3307    644.5073 307.8303606  +6.4137620     620.0723     980.2165     1114.907     78.42776     156.6071     312.8723      1.806     4.11     847.5413     55.14882     99.12103         6     1.063     0.453  54.19   0
       272    804.6959    642.8759 307.5889573  +6.4339030      647.757     918.8323     525.8036     78.05458     156.6071     312.9344      1.312     4.97     850.1692     55.14882     122.0834         6     1.244     0.563 -52.79   0
       273    509.8295    640.4603 307.7115074  +6.4250405     699.5611     1111.888     1178.837     78.17918     156.4828     312.8412      1.557     3.58     849.8841     55.14882     109.3392         8     0.950     0.599  65.31   0
       274    187.0429    639.9588 307.8455845  +6.4144208     2970.686     4067.799     4447.797     78.17917     156.4828     312.7478      1.488     3.37     847.4169     55.14882      423.162        22     1.407     1.000  46.40   0
       275    990.8030    639.0992 307.5117842  +6.4416701     667.5854     675.2139     678.2959     78.17917     156.2338      312.561      1.263     4.44     848.3254     55.14882     99.02893         6     0.950     0.591  69.06   0
       276     79.9977    634.4316 307.8902276  +6.4131044     1264.048     1778.581     2027.074     77.80481     156.2961     312.6544      1.445     3.27     847.2653     55.14882     197.8983        12     1.108     0.650  82.47   0
       277    477.1045    627.2907 307.7255412  +6.4293812     68977.66      96619.5     101015.5     78.42776     156.9175     312.8412      1.509     3.15     849.4652     55.14882     9935.622        75     1.465     1.152  80.87   0
       278     20.5260    628.9877 307.9151100  +6.4133510     1821.662     2634.515     2980.081     77.92979     156.1715     312.6855      1.488     3.57     847.3107     55.14882     256.5787        17     1.166     0.903 -77.24   0
       279    663.1182    624.4935 307.6483763  +6.4367614     893.2106     1165.247     832.5881     78.17917     156.7314     312.9655      1.405     5.11     849.9872     55.14882     132.3402         9     1.029     0.718  51.98   0
       280    151.4588    622.3652 307.8609556  +6.4204881     1822.043     2597.339      3003.39     78.30357     156.4828     312.8412      1.512     2.84     846.9672     55.14882     267.0515        16     1.083     0.831  72.02   0
       281    946.5541    620.6766 307.5307788  +6.4478007      616.483     658.7164     196.2255     78.30357      156.545     312.9034      1.425     4.38     848.5385     55.14882     96.58771         6     1.137     0.480 -82.80   0
       282    430.8579    620.2457 307.7449856  +6.4307400     885.4046     1381.099     1374.968     78.42776     156.4828     312.9655      1.784     4.55     848.3262     55.14882     133.1916         8     1.085     0.541  58.22   0
       283    623.1788    618.9042 307.6651523  +6.4377331     948.9026     1475.791     1677.167     78.30356     156.2961     312.6855      1.614     3.47      849.683     55.14882     135.4392        11     0.883     0.863  88.01   0
       284    322.5535    616.5248 307.7900928  +6.4286443     2388.477     3412.093     3428.211     78.30357      156.545     312.8723      1.603     3.45     847.3016     55.14882     324.7235        22     1.344     0.946 -89.10   0
       285     23.6037    617.8185 307.9142085  +6.4180653     644.5882     665.2365     752.4068     78.05458     156.0468     312.6855      1.296     4.13      847.217     55.14882      97.2431         7     1.008     0.482 -84.73   0
       286    474.3765    615.3777 307.7270743  +6.4342079     940.5031     1458.214     1843.853     78.05459     156.2961     312.8412      1.923     4.81     849.0763     55.14882     134.3693        11     1.127     0.813  79.42   0
       287    749.1550    610.7665 307.6131009  +6.4453040     5898.463     8284.527     8518.955     78.05458     156.4206     312.7789      1.479     3.19     850.0347     55.14882      863.688        26     1.336     0.924  77.62   0
       288    802.7193    606.0866 307.5910094  +6.4490249        14888     20827.57     21592.78     78.17917     156.7314     312.9966      1.462     2.97     849.4417     55.14882     2312.298        40     1.393     1.027  77.07   0
       289   1019.9401    606.7515 307.5007623  +6.4559955     960.1691     1253.918      1153.17     78.42776     156.4828     287.2147      1.493     5.14     847.3949     55.14882     150.6853        12     1.256     0.809  60.01  16
       290    545.1058    605.7975 307.6980190  +6.4405314     1311.096     2098.074     2477.637     78.05458     156.1715      312.561      1.825     5.64     848.9676     55.14882     211.7964        17     1.592     0.914 -84.37   0
       291     47.6214    604.7719 307.9046737  +6.4242593     657.9529     1045.513     1145.272     77.80481     156.2961       312.81      1.751     4.33     846.9706     55.14882     138.2115         7     1.152     0.464  82.25   0
       292    626.6356    604.1754 307.6642103  +6.4439293      3108.46     4287.204     4214.832     78.05458     156.2961     312.6544      1.483     3.13     849.0652     55.14882     455.4417        22     1.253     0.945  66.09   0
       293    943.8948    600.1976 307.5325677  +6.4561666     1211.492     1947.306     2451.918     78.05458     156.1715      312.561      1.859     3.65     848.1811     55.14882     196.2146        12     1.164     0.684  57.79   0
       294    385.1207    597.8527 307.7647343  +6.4384512     1147.458     1475.384     1826.251     78.42776     156.4828     312.8723      1.508     4.43     847.0106     55.14882      155.447        12     1.165     0.697 -85.15   0
       295    238.9686    597.7740 307.8254388  +6.4335796     1388.631     1935.719     2289.338     77.92979     156.2338     312.7167      1.467     2.79      846.379     55.14882     232.1005        11     0.907     0.788  69.82   0
       296    878.8131    589.3127 307.5599642  +6.4584896     3174.406     4342.625     4465.769     78.05458     156.2961     312.7789      1.468     3.19     848.3879     55.14882     446.7696        23     1.347     0.958  84.46   0
       297    173.9139    589.3069 307.8527430  +6.4348897      961.678     1409.947     1899.714     78.42776     156.9175     312.9655      1.743     4.09     846.2467     55.14882     135.7657        11     1.046     0.785  33.91   0
       298    837.6245    586.8149 307.5771561  +6.4581463     2911.608     4139.123      4433.29     78.17917     156.2961       312.81      1.478     3.14     848.5963     55.14882     423.6428        21     1.246     0.894  81.81   0
       299    265.4922    581.7073 307.8149634  +6.4411028     8415.821     11734.48     11909.62     78.42776     156.9796     312.8723      1.513     3.10     846.1051     55.14882     1105.542        33     1.413     0.995  84.53   0
       300    808.3171    582.8342 307.5894625  +6.4588113     2661.346      3780.69     5124.105     78.42776     156.4828       312.81      1.496     2.94     848.6481     55.14882     386.7723        16     1.138     0.787  70.26   0
       301    750.8704    583.2610 307.6133095  +6.4567164     721.9773     1081.859     1484.583     78.55175     156.4828     312.9344      1.644     3.49     849.0169     55.14882     125.6687         7     0.983     0.574  82.73   0
       302    818.0886    577.9452 307.5855674  +6.4611559     170875.3     239805.3       251436     78.42776     156.3583     312.9966      1.482     3.11     848.4375     55.14882     26928.08       117     1.546     1.211  78.69   0
       303    869.7787    580.1898 307.5640219  +6.4619545     523.5675     552.1553     740.2672     78.05458     156.2338     312.7167      1.100     4.34     848.2238     55.14882     87.89789         5     0.805     0.666  57.81   0
       304    199.6807    576.2263 307.8424817  +6.4411554     62924.43      90548.7     95615.27     78.30357     156.2961     312.9034      1.560     3.19     845.7789     55.14882     8392.379        77     1.515     1.189  86.37   0
       305    748.1591    578.4740 307.6145959  +6.4586021     745.3125     918.4134     1186.991     78.30357      156.545     312.9034      1.394     4.36     848.8496     55.14882     97.85101         7     0.912     0.593  81.94   0
       306    123.6305    572.5016 307.8741932  +6.4401373     6984.744     9865.428     10353.73     78.42776     156.2338     312.9034      1.562     3.19     846.1398     55.14882     889.1679        29     1.303     1.017  89.83   0
       307    988.7520    569.5159 307.5149606  +6.4703285     1397.995     2123.467     1921.168     78.42776     156.4828     312.9034      1.703     4.35     846.2694     55.14882     191.8694        14     1.230     0.826  75.55   0
       308   1009.9791    568.7158 307.5061701  +6.4713662     748.4561     1130.927     925.2316     78.17917     156.1715     312.7789      1.698     3.64     845.8082     55.14882     124.2216         8     0.963     0.646  74.82   0
       309    238.3921    567.8742 307.8266846  +6.4459035     884.8693     1301.145     1697.883     78.05458     156.0468     312.7167      1.550     5.21     845.4503     55.14882     120.8597        10     1.158     0.663  74.42   0
       310    854.7202    565.3149 307.5707744  +6.4675929     4834.187     6820.152     7014.939     78.30357     156.7934     312.9655      1.486     3.17     847.9257     55.14882     687.9188        24     1.319     0.877  77.51   0
       311    373.0874    563.3892 307.7708906  +6.4522751     18206.94     25977.79     27505.23     78.05458     156.2338     312.7167      1.528     3.18     846.1298     55.14882     2613.263        45     1.410     1.072  82.14   0
       312    463.4023    563.5497 307.7333727  +6.4552362     761.3933     1086.729     1349.589     77.80481     156.1092     312.4676      1.578     3.80     847.2014     55.14882     116.5771         8     1.048     0.490 -89.28   0
       313    174.9610    562.3264 307.8532167  +6.4460630     1966.353     2840.075     3213.743     78.30356     156.4828     312.9344      1.480     3.70     845.6962     55.14882     276.7445        18     1.360     0.794  75.52   0
       314    539.4344    558.3925 307.7019654  +6.4599118     7101.226     9934.541     10463.46     77.92979     156.2961     312.6544      1.509     3.00      847.136     55.14882     941.7075        30     1.354     0.975  76.88   0
       315    250.2809    560.1970 307.8220051  +6.4494720     845.0439     1136.213     874.1019     77.80481     156.0468     312.6233      1.443     4.95     845.3366     55.14882     132.6335        10     1.136     0.716 -89.16   0
       316    180.9572    560.3397 307.8507932  +6.4470846     812.7473     1090.321     2009.693     78.42776     156.4828     312.9655      1.408     3.62     845.5844     55.14882     121.8576         8     1.079     0.554  67.96   0
       317    112.4435    559.4948 307.8792779  +6.4451306     1028.149     1279.464     1066.259     78.42776     156.4206     312.9966      1.437     4.35     845.9874     55.14882     158.9241        11     1.288     0.620  74.95   0
       318    808.6015    558.6008 307.5901554  +6.4688252     6375.268     8750.987     9253.415     77.80481     156.0468      312.561      1.430     2.96     847.8641     55.14882     1026.715        28     1.294     0.950  76.45   0
       319    397.7786    554.6964 307.7609272  +6.4566917     1463.815     2119.859     2299.252     78.30357     156.2961     312.6855      1.532     3.51     846.3442     55.14882     193.4719        12     1.026     0.757  63.64   0
       320    584.2361    551.3340 307.6835933  +6.4643253     2595.219     3916.326     3887.599     78.30357     156.4828     312.9344      1.639     3.58     846.8751     55.14882     370.8304        23     1.341     0.995 -64.46   0
       321    186.4291    551.3826 307.8488222  +6.4509662     7105.508     10231.59     11063.57     78.05459     156.2961       312.81      1.579     3.25      845.319     55.14882     899.7197        33     1.354     1.094  87.36   0
       322     58.0515    550.1480 307.9021837  +6.4471598     5291.026     7815.105     8059.906     78.55175     156.3583     312.8723      1.567     3.29     846.6354     55.14882     738.3035        31     1.443     1.045  79.12   0
       323    281.6724    547.8951 307.8093807  +6.4556044     92234.59     132633.1     138238.6     78.30356     156.6071     312.8723      1.520     3.11     845.3856     55.14882     13212.37        85     1.501     1.179  84.02   0
       324    867.4594    551.1042 307.5659582  +6.4738847     636.4513     865.2576      684.116     78.30356     156.4828     312.9655      1.375     3.45     847.5342     55.14882     106.8967         6     0.782     0.498 -88.44   0
       325    825.1829    550.6673 307.5835335  +6.4726540     1407.944     1770.718     2209.889     77.92979     156.4206     312.7789      1.265     2.91     847.5907     55.14882     259.8214        10     0.968     0.628  81.97   0
       326    571.0292    545.2690 307.6892824  +6.4663872     1111.805      1340.42     1779.847     78.17917     156.4828       312.81      1.419     3.16       846.64     55.14882     179.1602        10     0.937     0.699  80.31   0
       327    265.5060    543.0784 307.8162575  +6.4570501     1720.749     2535.777     2788.015     78.17917     156.6693     312.9034      1.545     3.77     845.0132     55.14882     245.0679        15     1.271     0.749  72.12   0
       328    804.8213    540.3755 307.5923356  +6.4762230     17363.17     24204.85     25295.13     78.05458     156.2961     312.8723      1.483     3.11      847.287     55.14882     2613.562        39     1.359     1.020  81.03   0
       329    508.4801    538.6993 307.7154836  +6.4670052      43437.7     66502.81     70784.27     78.30357     156.8555     312.9034      1.685     3.29      846.433     55.14882     5902.831        72     1.530     1.335  56.87   0
       330    658.9346    537.1381 307.6530419  +6.4726847     1007.566      1504.25     1658.212     78.42776     156.4828     312.8723      1.541     5.18     846.8662     55.14882     125.2913        10     1.112     0.683  82.52   0
       331    220.7131    535.2905 307.8351243  +6.4587610     2025.307      3022.13      2845.95     78.17918     156.9175     312.9966      1.539     3.72     844.3572     55.14882     284.3088        19     1.334     0.843 -87.46   0
       332     56.3449    535.3735 307.9033907  +6.4532015     1241.463     1615.046     1662.437     78.05459      156.545     312.7167      1.423     4.79     846.4514     55.14882     173.5803        14     1.292     0.686  73.93   0
       333    730.7090    533.2180 307.6233599  +6.4767023     1418.911     2229.226     1895.817     78.17918     156.2338     312.7478      1.618     6.48     847.1826     55.14882     224.0307        16     1.658     0.711  64.55   0
       334    981.2045    541.7065 307.5190248  +6.4815578     1681.964     2509.247     2354.945     78.05458     156.1715     312.6233      1.583     3.55     845.3879     55.14882     251.1503        13     1.178     0.723  65.12   0
       335    678.6472    533.7917 307.6449659  +6.4747254     1436.723     1989.596     2613.808     77.92979     156.3583     312.5299      1.402     3.26       846.94     55.14882      203.018        12     1.075     0.725  75.90   0
       336    668.3436    533.7547 307.6492470  +6.4743961     3486.984      4774.09     5422.404     78.42776     156.4828     312.9034      1.464     2.93     846.8576     55.14882     505.2922        18     1.149     0.844  78.36   0
       337     87.6595    531.4966 307.8905153  +6.4558553     900.3317     1379.925     1236.626     78.17918     156.4828     312.9655      1.527     4.09     845.7489     55.14882      133.463        11     0.987     0.907 -22.46   0
       338    405.9533    529.5446 307.7583770  +6.4673490     1915.099     2629.986     2169.157     78.42776     156.4828     312.9344      1.490     3.34      845.507     55.14882     275.2938        16     1.137     0.889  64.05   0
       339    337.5151    527.6290 307.7868679  +6.4658446      4142.16     5971.585     6231.099     78.42776     156.1715     312.7167      1.584     3.29     844.4642     55.14882     526.0899        24     1.312     0.959  82.23   0
       340    152.7480    526.2646 307.8636574  +6.4602035     27365.35        39094     40436.62     78.42776     156.4206     312.8412      1.535     3.14     845.0173     55.14882      3738.03        52     1.417     1.130  83.96   0
       341    517.5557    527.0864 307.7121038  +6.4721033      2238.76     3174.676     3294.776     78.42776     156.3583     312.8723      1.495     3.47     846.0161     55.14882      292.827        17     1.187     0.817  80.29   0
       342    880.7383    526.2897 307.5612724  +6.4845721     1755.291     2325.562     2031.201     78.42776     156.6071     312.9344      1.410     3.27     846.7605     55.14882     269.9047        15     1.155     0.789  71.53   0
       343    117.8974    524.5170 307.8781914  +6.4597534      2738.64     4011.221     4141.538     78.42776     156.8555     312.9344      1.560     3.42     845.2728     55.14882     387.9397        19     1.308     0.832  73.84   0
       344    354.7757    522.7890 307.7798613  +6.4684217     1028.798     1582.292     1469.447     78.05458     156.2961     312.7789      1.599     3.50     844.2249     55.14882     163.8847        10     1.034     0.622  76.98   0
       345    978.4412    520.8339 307.5208700  +6.4900827     5509.689     7754.836     8005.108     78.17917     156.4828     312.7167      1.463     3.07     845.2216     55.14882     712.1258        23     1.242     0.908  72.82   0
       346    551.3901    513.3661 307.6985103  +6.4789003     1635.576      2481.31     2855.603     77.92979     156.2961     312.7167      1.691     4.01     845.5201     55.14882     204.8103        16     1.247     0.839  81.52   0
       347     17.0636    510.6024 307.9205413  +6.4621055     26906.92     39165.47     41099.09     77.80481     156.2961     312.6544      1.537     3.22     846.7661     55.14882     3900.514        53     1.433     1.166  84.89   0
       348      1.4530    504.9822 307.9272147  +6.4639002     42367.08     56114.96     60136.52      69.6187     126.1836     237.1374      1.284     3.34     846.9847     55.14882     11361.56        55     1.727     0.831 -89.75  24
       349    449.7683    507.3725 307.7409227  +6.4779709     45514.86     64482.07     67171.26     77.92979     156.2338     312.6855      1.516     3.13      844.938     55.14882     6460.416        60     1.459     1.105  80.19   0
       350    426.4182    510.3122 307.7505228  +6.4759747     465.4374     714.2701     588.1719     78.17918     156.2338     312.7478      1.318     3.49     844.7714     55.14882      90.9433         5     0.780     0.450  71.52   0
       351    657.8210    507.0133 307.6545142  +6.4850840     13112.59     18237.52     18860.18     78.17917     156.1715     312.7789      1.458     3.08     845.8657     55.14882     2022.783        37     1.354     0.994  82.56   0
       352    297.8438    507.7528 307.8040144  +6.4727188     979.6001     1365.799     1510.553     78.42776     156.4206     312.8412      1.537     3.31     843.3635     55.14882     149.0753         9     0.943     0.654  77.88   0
       353    214.9199    504.9444 307.8385522  +6.4710939     19907.32      30404.5     31227.82     78.55175     156.4828     312.9034      1.620     3.37     843.5907     55.14882     2628.037        48     1.486     1.165  69.99   0
       354    180.6696    506.0055 307.8527426  +6.4695051     1737.185     2221.554     1868.388     77.92979     156.1092     312.7167      1.397     3.56     844.0501     55.14882     259.9932        16     1.262     0.780  84.43   0
       355    991.7675    505.4713 307.5158477  +6.4968692     1302.997     1826.374     2182.622     78.30357     156.4828     312.8412      1.642     4.11     844.8511     55.14882     183.0242        11     1.151     0.710  86.98   0
       356    920.9069    505.1373 307.5452940  +6.4946446     783.8625     1093.578     1312.598     78.42776     156.4828     312.9344      1.598     6.79      845.798     55.14882     113.7215        13     1.173     1.102 -53.00   0
       357    831.9300    504.6826 307.5822696  +6.4918634     913.0059     1313.315     1381.192     78.67555     156.7314     312.9034      1.497     4.38     846.4263     55.14882     124.3759        11     1.099     0.760  81.64   0
       358    579.5983    503.9128 307.6871105  +6.4837471     3161.439     4511.076     4565.307     77.67962     156.1092     312.5922      1.496     3.30      845.224     55.14882      446.256        21     1.239     0.932  86.13   0
       359    953.4712    500.9825 307.5319058  +6.4974457     5099.484     7171.977     6944.684     77.92979     156.4206     312.7789      1.460     3.03     845.3105     55.14882     701.9675        26     1.401     0.880  78.62   0
       360    626.6265    499.3850 307.6677277  +6.4871898     7049.798     9676.043     10237.65     78.05459     156.3583       312.81      1.464     3.11     845.2668     55.14882     1009.335        27     1.311     0.956  85.61   0
       361    114.1855    500.1409 307.8805547  +6.4696914     1133.871     1505.328      1902.96     77.80481     156.4206     312.6233      1.403     3.60     844.6956     55.14882     178.0305        13     1.180     0.805  62.25   0
       362    879.5551    495.6341 307.5627892  +6.4971884     506.9857     830.6461     981.8005     78.05459     156.3583     312.7789      1.614     4.22     846.0378     55.14882     94.19983         5     1.173     0.433  53.22   0
       363    976.0640    493.2317 307.5227799  +6.5013987     3631.904     5184.489      5544.41     78.17917      156.545     312.8412      1.509     3.16     844.9276     55.14882     593.3042        26     1.365     1.011  82.01   0
       364    538.8026    490.7065 307.7044994  +6.4878334     8082.248     11271.92     11635.05     78.05458     156.1715      312.561      1.505     3.07     844.7502     55.14882     1158.436        33     1.319     1.023  81.47   0
       365    414.6907    492.2371 307.7560015  +6.4830435        680.4      806.892     885.0165     78.55175     156.4206     312.9034      1.310     4.00     843.6863     55.14882     119.7115         7     1.003     0.533  63.57   0
       366    384.8196    490.8383 307.7684562  +6.4826194     2816.284     3904.065     4112.915     78.05458     156.2961     312.5922      1.456     3.30     843.0505     55.14882     466.7222        17     1.232     0.783  77.67   0
       367    108.3326    490.6637 307.8833051  +6.4734070     603.7275     835.4528     683.8812     78.42776     156.4828     312.9344      1.589     4.54     844.5602     55.14882     98.24829         7     1.227     0.478  50.93   0
       368   1006.2122    489.6232 307.5103768  +6.5038932     585.9433     985.1825     604.4854     78.05458     156.2961     312.7789      1.979     5.01     844.6019     55.14882     85.57623         5     1.088     0.653 -64.19   0
       369    895.2629    486.5015 307.5565696  +6.5014827     3481.526     4632.598     5353.855     78.17918      156.545     312.9034      1.405     3.14     845.6514     55.14882     502.4337        20     1.234     0.805  79.04   0
       370    548.2553    487.1221 307.7006932  +6.4896296     834.7853     966.3116     1309.077     78.55175     156.4828     312.9034      1.275     4.28     844.6075     55.14882     121.9019         7     0.765     0.682  79.72   0
       371    243.5288    486.0631 307.8273048  +6.4798493     668.4044     877.4342     966.7956     78.42776     156.4828     312.9344      1.432     4.12     842.7042     55.14882     108.7719         7     0.879     0.773  33.07   0
       372    902.7162    480.8774 307.5536616  +6.5040532     2277.115     3031.286     2829.719     78.55175     156.7934     312.9655      1.343     3.01     845.4171     55.14882     353.6919        14     1.051     0.743  79.17   0
       373    942.0099    480.1891 307.5373619  +6.5056479     1256.837     1614.782     1669.413     78.05458     156.2961     312.8412      1.425     3.22      844.991     55.14882     208.2019        12     1.100     0.667  75.60   0
       374    121.6931    480.0791 307.8781125  +6.4782257      894.128     1323.171     709.2194     78.17917     156.6693     312.9344      1.485     4.10     844.0724     55.14882     134.6512         9     1.085     0.642 -88.43   0
       375    279.9237    478.8491 307.8124303  +6.4840494     665.9018      913.134     682.3248     78.30356      156.545     312.8723      1.410     5.32     841.9226     55.14882     85.46033         8     1.310     0.609  86.91   0
       376    753.3462    477.8158 307.6158123  +6.5003306     561.4748     708.3512     770.2111     77.80481     156.4828     312.5922      1.238     2.10     845.3204     55.14882     116.8398         5     0.698     0.447 -72.19   0
       377    726.5991    476.8781 307.6269544  +6.4998240      3175.37     4382.234     4596.097     77.67962      155.922     312.6544      1.383     2.96     845.1342     55.14882     498.2195        19     1.192     0.821  76.02   0
       378     88.3396    476.0204 307.8921030  +6.4787796     1963.119     2764.032     2896.601     78.05458     156.4206       312.81      1.535     3.15     844.5029     55.14882     259.7264        15     1.099     0.796  74.35   0
       379    438.0014    475.2993 307.7468878  +6.4908172      1228.87     1917.032     2509.221     77.92979     156.2338     312.5922      1.617     3.42     843.1978     55.14882     184.7247        11     1.096     0.645  73.68   0
       380    397.4514    475.0056 307.7637414  +6.4895791     4030.443      5706.98     5837.267     77.92979     156.2961     312.5299      1.483     3.05     842.4483     55.14882     581.7703        22     1.242     0.906  73.19   0
       381    787.9468    468.1881 307.6017617  +6.5054610     17664.59      24500.9     25857.55     77.80481     156.4206     312.5922      1.443     2.97     845.2027     55.14882     2940.656        40     1.327     1.041  83.52   2
       382    791.9885    463.5684 307.6002374  +6.5075032     1541.276     2218.134      2693.13     77.92979     156.2338     312.7478      1.677     3.85     845.0682     55.14882     213.5698        14     1.139     0.842  58.82   3
       383    307.5963    468.4980 307.8012840  +6.4892514       3142.1     4339.537      4543.17     78.17918     156.1715      312.561      1.502     3.00     841.3656     55.14882     479.7137        21     1.240     0.884 -85.12   0
       384    431.4961    468.4844 307.7498190  +6.4934125     672.5045     934.4364     969.8765     78.42776     156.8555     312.9655      1.460     3.75     842.6362     55.14882     91.02777         6     0.950     0.426  72.04   0
       385    390.6899    465.0604 307.7668843  +6.4934580     1744.481     2533.257     2951.371     78.30356     156.6071     312.9344      1.488     3.61      841.848     55.14882     226.2977        17     1.252     0.839 -84.22   0
       386    817.0397    465.4247 307.5897689  +6.5075734     1351.725     1779.794     1815.394     78.05458     156.2961     312.6544      1.363     3.00     845.1631     55.14882      242.088        11     1.020     0.653  76.81   0
       387    973.2850    463.2139 307.5249374  +6.5136986     2004.281     2582.465      2312.92     78.05458     156.2338     312.7789      1.400     3.13     843.9084     55.14882     334.2805        17     1.291     0.749  71.46   0
       388    625.2355    471.5997 307.6692372  +6.4986140     10846.57      14975.2     15727.41     77.55423     156.2961     312.6855      1.467     3.01     844.2955     55.14882     1532.824        31     1.327     0.967  83.92   0
       389    860.8516    462.8766 307.5716545  +6.5100878     512.9996     581.2304     723.4717     78.42776      156.545     312.8723      1.474     3.84     845.0587     55.14882     79.85229         5     0.963     0.438  44.29   0
       390    125.3138    460.1525 307.8772801  +6.4865735     4734.091     6953.481     7188.455     78.42776     156.4206     312.8723      1.574     3.35     843.3612     55.14882     603.8344        26     1.314     1.006  67.67   0
       391    763.5647    459.1078 307.6121941  +6.5083953     2484.489      3759.15     4125.884     78.55175     156.3583     312.9034      1.565     3.29     844.6934     55.14882     361.7651        23     1.308     1.003  84.96   0
       392    378.9199    460.8128 307.7719161  +6.4948168     721.5572     998.8525     1302.452     78.05458     156.2338     312.7167      1.379     2.72     841.4869     55.14882     110.2886         6     0.731     0.566  53.00   0
       393    361.3995    454.9981 307.7793893  +6.4966296     3394.474     4833.181     4794.188     77.80481     156.0468      312.561      1.463     3.10     841.0012     55.14882     444.7327        21     1.307     0.909  78.27   0
       394    282.9939    457.1983 307.8118835  +6.4930904     1520.708     2255.955     2811.279     77.80481     156.1715     312.6855      1.484     3.45     840.9663     55.14882     211.1751        14     1.138     0.795  62.98   0
       395    717.2499    452.7539 307.6316463  +6.5094708     1694.249     2208.018      2313.34     78.42776     156.3583     312.9034      1.461     3.74     844.2493     55.14882     265.3465        16     1.332     0.727  76.69   0
       396    991.3091    451.4883 307.5178417  +6.5191402     677.3494     1061.712     1311.111     78.42776     156.9796     312.9655      1.816     3.90     843.0754     55.14882     91.41528         6     0.948     0.460 -87.26   0
       397    249.1113    451.0400 307.8261649  +6.4944950     858.3916     1185.629     1181.862     78.42776     156.4206     312.9034      1.296     2.97     840.9809     55.14882     180.9948         9     0.989     0.591  60.84   0
       398    421.2804    451.4167 307.7546359  +6.5001161     490.1013     686.9518     574.6356     78.05459     156.1715     312.7167      1.449     2.97     841.4781     55.14882     105.2817         5     0.810     0.652 -46.79   0
       399    558.8102    445.3647 307.6977101  +6.5072217     1203.088     1713.857     1176.022     77.92979     156.2338     312.6544      1.518     4.41     842.4885     55.14882     193.7062        12     1.339     0.636  86.11   0
       400    707.6925    444.5565 307.6358911  +6.5125355     574.9643     915.0213     731.4846     78.42776     156.4828     312.9966      1.628     4.37     843.9255     55.14882     82.95264         7     0.997     0.545  59.89   0
       401    480.9279    443.6395 307.7301201  +6.5053257     1452.075     2020.286      1919.03     78.30356     156.4828     312.9344      1.507     3.59     841.5846     55.14882     235.7125        15     1.139     0.858  89.97   0
       402     55.0085    444.1801 307.9070211  +6.4908025     447.6093     561.3635     715.5262     78.05458     156.2338     312.6544      1.367     5.87     843.8538     55.14882     70.94269         6     1.390     0.697 -70.22   0
       403    843.4918    442.7281 307.5795401  +6.5178264     1488.748     1959.838     2096.485     78.30357     156.6693     312.8723      1.367     3.61     844.2124     55.14882     211.9133        14     1.265     0.711  77.58   0
       404    829.1288    441.8150 307.5855372  +6.5177239     2150.934     2627.603     2493.743     77.92979     156.4206     312.7789      1.353     3.19     844.1837     55.14882     332.9927        15     1.224     0.714  84.69   0
       405    726.4755    439.9376 307.6282433  +6.5150702     16347.42     22627.67     24118.75     78.67555     156.4828     312.8723      1.464     3.06     843.8196     55.14882     2195.971        39     1.371     1.004  81.14   0
       406    628.8210    441.8250 307.6687463  +6.5110258     739.8759     869.1882      1388.52     78.05458     156.2961       312.81      1.180     4.02     843.1967     55.14882     114.0269         6     0.787     0.587  50.71   0
       407    647.5895    435.9680 307.6611461  +6.5140716      2685.44     3939.584     5136.701     77.92979     156.2338     312.7167      1.662     3.10     843.1716     55.14882     371.9858        19     1.272     0.853  64.81   0
       408    720.7484    435.1644 307.6307823  +6.5168493     592.2708     845.4852     1150.271     78.30356     156.4828       312.81      1.907     4.52     843.6194     55.14882     96.35675         5     0.812     0.714  53.45   0
       409    622.5422    432.9504 307.6716522  +6.5144795     6153.938       8806.8     9114.613     78.42776     156.4828     312.9034      1.517     3.38     842.7897     55.14882     832.1323        22     1.302     0.886  82.64   3
       410    618.9612    430.4050 307.6732251  +6.5154105     15995.63     22771.13     23765.91     77.55423     156.2338     312.6233      1.502     3.15      842.633     55.14882     2381.727        37     1.389     1.014  78.85   3
       411    951.7700    429.8514 307.5349901  +6.5267546     4107.233      5726.72     5693.935     78.17917     156.6071     312.7789      1.453     3.04     842.6133     55.14882      593.815        24     1.291     0.921  83.02   0
       412    390.8455    425.7775 307.7681401  +6.5096802     31398.03     44337.77     46299.41     78.05458     156.4828     312.7167      1.492     3.07     839.9297     55.14882     4533.892        51     1.404     1.093  80.90   0
       413    907.5725    425.5889 307.5534932  +6.5270404     1661.374     2330.294     3080.729     78.05459     156.2961     312.7478      1.533     3.32     843.0384     55.14882     243.8124        15     1.130     0.833  77.88   0
       414    427.9779    427.0192 307.7526737  +6.5104125     598.2247     708.4079     494.6002     78.17917     156.4206       312.81      1.238     3.64      840.095     55.14882     98.71283         5     0.970     0.393  62.71   0
       415    136.9033    425.0581 307.8736489  +6.5014506     2623.395      3669.49     3561.112     78.30357     156.4828     313.0277      1.487     3.45     842.1005     55.14882     343.0623        21     1.230     0.967  83.08   0
       416    903.8594    421.9552 307.5551572  +6.5284166     728.3996     1244.989     1350.933     78.30356     156.4206     312.9655      1.647     5.00     842.9078     55.14882     102.3635         9     1.263     0.559  63.90   1
       417    920.5283    420.2209 307.5482906  +6.5296886     5452.461     7854.551     8098.625     78.05458     156.3583     312.8412      1.504     3.04     842.6609     55.14882     780.5944        29     1.425     0.908  72.55   0
       418    602.3522    421.6580 307.6804180  +6.5184658     687.1458     739.9417     1315.841     78.42776     156.4828     312.9966      1.170     4.12     842.0887     55.14882     97.14996         6     0.899     0.540  44.58   0
       419     70.2400    420.5930 307.9014898  +6.5010520     1715.367     2620.433     2996.115     77.80481     156.1715      312.561      1.635     3.38     842.6728     55.14882     285.1351        15     1.183     0.820  62.50   0
       420    248.3664    416.3827 307.8276409  +6.5087773     15132.81     21335.36     21596.63     78.05459     156.2961     312.7167      1.524     3.01     839.2809     55.14882     2082.958        42     1.402     1.063  82.69   0
       421    976.2615    417.7222 307.5252212  +6.5325785     788.5413     1057.296     1432.328     78.67555      156.545     312.8412      1.408     3.98     841.6013     55.14882     144.7208         8     1.044     0.578  57.36   0
       422     84.2783    410.4794 307.8959997  +6.5056993     963.1976     1481.299     1885.913     78.67555     156.7314     313.0277      1.683     4.29     842.1048     55.14882     128.7388         8     0.981     0.555 -76.25   0
       423   1020.7803    409.3299 307.5070072  +6.5375268     454.2398     715.4677     315.0568     78.05458     155.6096     277.3191      1.153     3.48     840.2903     55.14882     83.22253         5     1.270     0.275  55.17  16
       424    743.0471    409.7086 307.6223719  +6.5281034     719.8572     945.3043     1219.775     78.42776     156.4206     312.9966      1.364     2.00     842.8433     55.14882     147.9547         7     0.678     0.634  23.60   0
       425    711.5349    409.2985 307.6354764  +6.5272196     764.4288     860.8453     362.9514     78.42776      156.545     312.9034      1.351     4.59     842.5953     55.14882     106.4307         7     0.890     0.673 -87.19   0
       426    971.8962    408.6595 307.5273375  +6.5361744     1126.838     1741.276     1844.437     78.30356     156.4828     312.9655      1.572     3.30      841.297     55.14882     186.2346        11     1.035     0.666  81.33   0
       427    361.3342    406.1960 307.7810574  +6.5167741     1426.601     2083.281     2511.584     77.80481     156.2338     312.6233      1.602     3.58     838.9255     55.14882     194.9219        13     1.121     0.753  73.30   0
       428    194.1546    406.0081 307.8505093  +6.5112390      802.982     1084.398     1225.003     77.92979     156.3583      312.561      1.451     3.77     840.1313     55.14882     139.2449         9     1.081     0.566  89.61   0
       429    148.6704    405.0257 307.8694360  +6.5101159      5432.98     7841.111     8289.133     78.05458     156.3583       312.81      1.503     3.05     841.3864     55.14882     778.4948        27     1.327     1.004  84.70   0
       430    253.6789    403.7046 307.8258609  +6.5141894     1558.875      2201.79     2193.674     78.17918     156.7314     312.9034      1.531     3.22     838.8842     55.14882     220.4667        14     1.091     0.798  82.61   0
       431    446.2226    403.6733 307.7458792  +6.5206618     850.1305     1049.308     1134.332     78.05458     156.2961     312.8412      1.288     4.46     838.7843     55.14882     124.0344         8     1.004     0.564  72.53   0
       432    834.8018    401.7170 307.5845225  +6.5344671     841.8661      1167.32     767.8367     77.80481     156.1092     312.5922      1.410     4.57     842.5843     55.14882     141.9342         9     1.167     0.568  78.79   0
       433    734.0064    402.9763 307.6263531  +6.5305806     408.7478     394.6959     166.5025     77.92979     156.2961     312.7478      1.154     3.68     842.5731     55.14882     78.49945         5     0.987     0.394  61.22   0
       434    170.7195    400.6451 307.8604247  +6.5126655      2626.36     4235.755     4362.283     78.42776     156.4828     312.8723      1.705     4.50     840.8105     55.14882     341.1583        23     1.543     0.888 -83.61   0
       435    566.1413    399.7553 307.6961953  +6.5262959     1089.964     1405.403     1306.098     78.30356     156.4206     312.9655      1.445     3.45     840.1594     55.14882     166.3364        10     0.941     0.719  77.42   0
       436    394.1712    395.6432 307.7677716  +6.5222319     2341.945     3258.418     2869.632     78.05458      156.545     312.7789      1.506     3.39     838.3378     55.14882     305.9037        19     1.170     0.950  86.68   0
       437     12.9537    395.6655 307.9261262  +6.5094146     723.4833     1072.411      893.011     78.42776     156.4206     312.8723      1.793     5.34     842.6943     55.14882     95.09387        10     1.327     0.607  81.16   0
       438    282.1208    395.7960 307.8143124  +6.5184093     968.6229     1139.331     1234.491     78.05458     155.9844     312.6233      1.407     4.68     838.5249     55.14882     131.6206         9     0.963     0.645  66.58   0
       439    982.7985    394.7430 307.5232734  +6.5422831      965.157     1283.735      1173.12     77.80481     156.1715     312.6233      1.468     3.10     840.4684     55.14882     183.7531         7     0.959     0.515  75.55   0
       440    328.4069    393.3690 307.7951668  +6.5209646     566.7438      822.035      1284.34     77.80481     156.2961     312.6544      1.998     3.45     838.3236     55.14882     86.15045         5     1.013     0.339 -68.14   0
       441    601.6476    392.0409 307.6817042  +6.5306690     569.0607     743.8129     935.7055     78.30356     156.4828     312.7478      1.309     3.26     840.2437     55.14882     96.80072         5     0.867     0.478  89.80   0
       442    447.9513    389.1660 307.7456485  +6.5267087     7934.501        11476     12082.38     78.17917     156.4828       312.81      1.545     3.17     837.9797     55.14882     1205.073        34     1.389     1.031  85.14   0
       443     44.5000    389.8099 307.9132200  +6.5128936      3218.45     5009.676     5726.347     78.17918     156.1092     312.6544      1.702     3.49     842.0748     55.14882     481.2389        29     1.660     1.046 -62.05   0
       444    788.5575    386.5217 307.6042423  +6.5391961     14157.39     19179.53     20143.95     78.30357     156.4828     312.9034      1.452     3.12     842.1215     55.14882     1990.926        39     1.376     0.997  87.65   0
       445    780.6339    388.1199 307.6074805  +6.5382717     2000.552     2813.985     3071.498     78.30356     156.4828     312.9034      1.430     3.11     842.1487     55.14882     302.2609        17     1.153     0.836  75.30   0
       446    547.6519    387.9697 307.7042716  +6.5305424      552.158     834.7768      815.621     78.17917     156.6071       312.81      1.576     4.27     839.2101     55.14882     91.79071         5     1.119     0.464  83.83   0
       447    351.9457    384.5865 307.7856841  +6.5253801     1089.294     1501.909     1586.221     77.80481     156.4206     312.6233      1.427     4.41     837.8853     55.14882     154.8483        11     1.282     0.622  76.09   0
       448    963.2308    378.4796 307.5319461  +6.5483449     695.3008     943.4552     1070.175     78.30357     156.4206     312.8412      1.587     3.95     840.2414     55.14882     111.7914         5     0.801     0.705 -86.24   0
       449    196.8206    377.3987 307.8503655  +6.5231391      782.654     1165.026     769.9128     78.05458     156.1715     312.5922      1.351     3.49     839.1564     55.14882     137.2083         8     0.952     0.597  66.39   0
       450      2.2580    375.8015 307.9312393  +6.5172546      1132.47     2103.762     3027.325     76.92421     137.0534       249.77      3.053     9.68     842.2585     55.14882     135.4644        18     2.092     1.248 -33.58  26
       451    913.5483    376.4525 307.5526539  +6.5475249     519.2772     580.0652    -74.24654     78.55175     156.3583     312.9034      1.111     4.11     841.1609     55.14882     95.61267         5     0.982     0.492  -5.23   0
       452    496.1689    372.8983 307.7261646  +6.5350401     3323.004     4924.265     4846.041     78.42776     156.2338     312.9966      1.550     3.07     837.5362     55.14882     499.4795        22     1.261     0.918  80.12   0
       453    468.4641    373.3745 307.7376577  +6.5339153     2409.994     3343.389     3735.234     78.05459     156.4828       312.81      1.553     3.30     837.2165     55.14882     339.0037        19     1.168     0.941  78.61   0
       454    924.9882    372.9530 307.5480184  +6.5493512     695.4682     859.7325     818.9964     77.92979     156.2961     312.5922      1.287     3.65     840.9599     55.14882     116.4691         5     0.980     0.390  60.82   0
       455    853.9946    369.4168 307.5776301  +6.5484424     35577.04     51441.01     53947.19     78.05458     156.1715     312.7167      1.532     3.35     841.3667     55.14882      5277.32        58     1.558     1.057  87.66   0
       456    543.0104    368.3910 307.7068570  +6.5384696     359.9774     528.9558      461.997     78.05458     156.2961     312.7789      1.470     5.64     838.0735     55.14882     68.30005         7     1.475     0.607 -69.82   0
       457     71.5421    365.0079 307.9028235  +6.5240420     573.4991     934.7158     715.0027     77.80481     156.3583     312.6544      1.652     5.28     840.9278     55.14882     106.0428         7     1.146     0.687  79.85   0
       458    346.0547    365.2834 307.7887805  +6.5331512      1053.93     1339.585     1159.117     78.42776     156.4828     312.9966      1.305     4.23     836.9271     55.14882     145.4445         7     0.747     0.681  46.20   0
       459    966.0115    363.2463 307.5313001  +6.5547265     474.8962     855.2228     526.6769     77.92979     156.2961      312.561      1.990     5.00     839.5587     55.14882     78.35785         5     1.529     0.463  24.58   0
       460    625.8387    361.8862 307.6726661  +6.5439272     2884.225     4188.307     4510.697     78.42776     156.4206     312.8723      1.546     3.10     838.7007     55.14882     456.9476        18     1.151     0.840  79.27   0
       461     33.8973    362.1943 307.9185558  +6.5239368     1284.946     1749.523     1803.365     78.17917     156.1715     312.6544      1.449     3.70     841.3841     55.14882     204.1345        13     1.154     0.814  42.19   0
       462    710.4483    355.3931 307.6377342  +6.5494372     86637.35     119800.4     125344.6     77.92979     156.2961     312.4987      1.497     3.08      840.316     55.14882      12013.9        87     1.491     1.177  83.53   0
       463    868.7054    356.7498 307.5719425  +6.5541628     1289.094     1781.185     1889.262     78.30357     156.3583     313.0588      1.465     3.68     840.8715     55.14882     189.8307        13     1.227     0.676 -80.19   0
       464     89.5675    354.8647 307.8956778  +6.5288357     1374.278     1782.698      1698.93     78.30356     156.4828     312.8412      1.380     2.94     840.3692     55.14882     255.7941        14     1.133     0.764  84.38   0
       465    952.0798    351.9307 307.5374662  +6.5589335      875.098     1382.387     1459.791     78.67555     156.7934     312.8412      1.647     4.90     839.5331     55.14882     141.7125        10     1.095     0.835  84.10   0
       466    572.8630    352.0993 307.6950022  +6.5461947     2933.581      4180.72     4805.727     78.17917      156.545     312.9034      1.498     3.23     837.4627     55.14882     428.8799        19     1.171     0.890  75.65   0
       467    400.0381    352.5495 307.7667830  +6.5402187     580.8997     825.4183     595.3672     78.17917     156.4206       312.81      1.295     4.30     835.9417     55.14882     94.36725         6     1.118     0.471 -71.50   0
       468    110.0384    350.8822 307.8873085  +6.5311683     6713.588     9680.223     9774.884     78.42776      156.545     312.8412      1.517     3.12     840.0673     55.14882     937.1702        29     1.329     1.025  76.19   0
       469    556.1696    348.2329 307.7020669  +6.5472320     7657.237     10831.34     11195.14     77.92979     156.2338     312.5922      1.487     3.11     837.2252     55.14882     1128.558        34     1.353     1.006  79.73   0
       470    285.0940    346.0059 307.8147530  +6.5390634      2869.36     4407.279     4185.045     78.05458     156.1715     312.6855      1.596     3.29     836.7012     55.14882     425.1974        25     1.321     1.028  73.67   0
       471    419.0672    343.4777 307.7591828  +6.5446018     28525.92     39822.24     41624.48     78.55175      156.545     312.8412      1.504     3.17     835.6119     55.14882     4025.486        48     1.389     1.096  82.73   0
       472    597.5326    342.9803 307.6850596  +6.5507849     648.5674     827.0075     460.9264     78.05458     156.4828     312.7789      1.231     3.71     837.3975     55.14882     111.6759         6     0.808     0.490  81.77   0
       473    526.7006    342.3200 307.7145078  +6.5486863     1464.238     2021.906     2013.272     78.30357     156.8555     312.9034      1.510     3.23     836.6835     55.14882     216.7037        14     1.068     0.828  68.01   0
       474    686.1191    341.9845 307.6482909  +6.5541593     576.9156     767.9307     797.9057     78.05458     156.2338     312.7167      1.317     3.14     839.1936     55.14882     98.49054         5     0.793     0.496  29.14   0
       475    398.9366    341.4776 307.7676128  +6.5447525     1239.125     1721.047     1939.089     78.67555      156.545     312.8723      1.520     4.14      835.606     55.14882     174.4482        10     1.039     0.638  69.26   0
       476    498.2138    338.9389 307.7264556  +6.5491279     1281.857     1885.394     2376.234     77.92979     156.3583     312.6544      1.583     3.48     836.1771     55.14882     190.7502        12     0.983     0.911  73.61   0
       477    396.1767    335.9948 307.7689436  +6.5469234     794.9348     1196.652     1702.654     77.92979     156.2338     312.7167      1.750     4.65     835.4664     55.14882     134.5581         8     1.217     0.505  69.05   0
       478    813.8930    335.6757 307.5954194  +6.5610331     1128.918     1406.609     1665.794     78.30356     156.6071     312.8723      1.433     3.72      840.396     55.14882     167.4831        11     1.059     0.668  74.85   0
       479    649.6531    335.6041 307.6636542  +6.5555739     629.6753     897.4081     789.7729     77.80481     156.2338     312.5299      1.662     5.32     838.1981     55.14882     95.05756         7     0.988     0.809  44.50   0
       480    508.2237    333.8350 307.7224686  +6.5515703     9252.672     13224.69        14132     77.92979     156.2338     312.6544      1.495     3.13     836.1793     55.14882     1299.639        34     1.335     1.035  78.44   0
       481    777.3009    332.6814 307.6107218  +6.5610472      3511.33     4681.036     5105.606     78.42776     156.9175     312.9655      1.436     3.25     840.1865     55.14882     505.6493        18     1.222     0.802  80.73   0
       482    932.9061    332.5011 307.5460816  +6.5663153     885.3683     1310.034     1633.899     78.42776     156.9796     312.7167      1.581     3.50     839.4282     55.14882     146.7465         7     0.859     0.670 -68.77   0
       483    724.7944    332.2610 307.6325494  +6.5594663     858.8706      1049.12     1194.264     77.80481     156.2961     312.6544      1.424     4.30      839.645     55.14882     134.4312         9     1.132     0.575  84.26   0
       484    334.5717    330.5304 307.7947197  +6.5471127     1160.596     1596.224     1233.816     78.17918     156.4828       312.81      1.449     3.94     835.5507     55.14882     167.3124        10     1.003     0.706  80.83   0
       485     93.3290    327.6647 307.8950324  +6.5401907     381.8891     837.6441     630.3369     78.42776      156.545     312.8723      2.640     3.76     839.9645     55.14882     94.60913         5     1.012     0.401 -74.68   0
       486    447.1660    324.4514 307.7481492  +6.5533982     567.8994     981.9565     1258.951     78.30357     156.4206     312.7789      1.722     3.64     835.3593     55.14882     100.7256         5     1.057     0.360  84.68   0
       487    270.6116    325.0873 307.8214734  +6.5472128     667.8693     962.3235     1391.134     78.05458     156.2338     312.7478      1.478     4.20     836.3287     55.14882     102.4063         6     0.802     0.629  45.68   0
       488    170.3220    324.3800 307.8631594  +6.5441356      1301.21     1814.836     2070.425     78.05459     156.2338     312.8412      1.541     3.45     838.6677     55.14882     165.5701        12     1.021     0.773  62.86   0
       489    398.0341    318.1169 307.7687730  +6.5543661     8050.312     11403.16     12012.12     78.42776     156.4828     312.8412      1.506     3.31     834.9434     55.14882     1136.825        34     1.401     0.991  81.99   0
       490    253.7491    318.5291 307.8286992  +6.5493539     2388.276     3276.531     3589.451     78.30357     156.4828     312.9034      1.509     3.02     836.4697     55.14882     368.9003        16     1.116     0.863  69.48   0
       491    765.9091    313.9291 307.6160825  +6.5684082     58428.82     81152.52     84057.47     78.30357     156.6693     312.8723      1.457     3.13     839.3267     55.14882     9147.641        65     1.455     1.078  81.44   0
       492    751.6417    317.7726 307.6218812  +6.5663448     1048.487     1491.838     1624.578     78.05458     156.4206     312.7167      1.523     4.54     839.3458     55.14882     141.3649         8     0.972     0.602 -80.37   0
       493    437.4846    313.3033 307.7525458  +6.5576759     2562.526     3593.361     3447.821     78.42776     156.8555     312.9344      1.483     3.55     835.0462     55.14882     358.2754        19     1.266     0.856  78.65   0
       494   1000.7452    310.9667 307.5186172  +6.5774672     1843.482     2643.746     2649.182     78.30356     156.4828     312.8412      1.492     3.91     837.7513     55.14882      259.886        19     1.283     0.968  87.13   0
       495    583.8477    310.8181 307.6918241  +6.5636044     1347.747     1839.157     1473.213     77.92979     156.4828     312.6855      1.398     3.31     836.4083     55.14882     207.0189        14     1.042     0.907  57.58   0
       496    941.6525    310.1232 307.5431962  +6.5758454     2589.716     3424.287     3405.213     78.55175     156.4828     312.8723      1.362     2.91     838.5231     55.14882     436.2046        17     1.133     0.838  81.85   0
       497    474.6827    309.7156 307.7372128  +6.5604037     1245.932      1741.55     1597.054     78.17918     156.7314     312.9344      1.522     3.17     835.1898     55.14882     186.1696        12     0.994     0.775  76.79   0
       498    424.0623    309.0456 307.7582650  +6.5589836     2224.667     3335.572      3073.49     78.30357     156.4206     312.9344      1.573     3.20     834.8823     55.14882     353.5188        20     1.188     0.987  83.65   0
       499    845.2360    303.5810 307.5834722  +6.5753293     1195.363     1757.517     1403.561     77.92979     156.2961     312.6544      1.378     3.70     839.3954     55.14882     196.7684        12     1.199     0.691  75.74   0
       500    474.4629    303.9352 307.7374983  +6.5627826     819.7221     1032.672      654.703     78.42776     156.4828     312.9034      1.555     5.42     835.0386     55.14882     97.81311        10     1.087     0.762  88.35   0
       501    200.8016    300.3555 307.8513069  +6.5550776       2497.5     3753.557      3731.34     77.80481     156.0468     312.4987      1.565     3.71     837.2989     55.14882     361.3699        18     1.286     0.838  81.06   0
       502    454.7080    300.6574 307.7458154  +6.5634737     1423.099     1974.281     2161.049     78.30357     156.4206     312.9655      1.597     4.10     834.8658     55.14882     183.3964        12     1.066     0.796  86.36   0
       503    764.3408    298.4939 307.6172512  +6.5747279       6763.7     9246.041     9751.326     78.30357     156.4828     312.9655      1.500     3.09     838.6254     55.14882      924.744        28     1.287     0.961  78.45   0
       504    355.0063    298.0277 307.7873238  +6.5612161     816.7277     1195.781     1450.798     77.92979     156.2961     312.6855      1.522     4.17     833.8341     55.14882     105.4209         7     0.939     0.528  46.62   0
       505    236.1119    298.2565 307.8367087  +6.5571304     814.7482     1106.721      658.446     78.42776     156.3583     312.9966      1.416     3.51     836.4048     55.14882     124.6559         6     0.891     0.465  37.13   0
       506     96.9553    297.7038 307.8945363  +6.5526810     1096.792     1465.682     1654.341     78.42776     156.4206     313.0277      1.378     3.29     839.5947     55.14882     181.4033        11     1.030     0.686  74.70   0
       507    780.8118    296.2775 307.6104824  +6.5761931     2852.734     4167.439     4365.932     78.05458     156.1092     312.7167      1.498     3.17     838.8331     55.14882     451.9204        17     1.151     0.948  88.23   0
       508     83.9996    291.7885 307.9001178  +6.5546870     1376.042     2073.543     1584.023     78.05458     156.1715     312.6855      1.442     3.86     839.5365     55.14882     237.6289        13     1.220     0.672  75.68   0
       509    370.2511    291.1434 307.7812221  +6.5645695     1831.594     3387.449     3938.759     78.42776     156.4828     312.8723      1.962     5.15     833.7473     55.14882     234.6302        25     1.561     1.104  -5.65   0
       510   1019.0060    287.4504 307.5118162  +6.5877841     6342.683     8930.243     9699.771     77.92979     156.2961     296.4525      1.509     3.32      837.363     55.14882     955.5338        26     1.286     0.958  85.39  16
       511    497.0208    287.4487 307.7286806  +6.5703444     2372.103     3232.566     3030.875     77.92979      156.545     312.7167      1.512     3.38     834.7684     55.14882     329.1695        19     1.187     0.915 -89.19   0
       512    259.5776    282.8098 307.8274804  +6.5642952     6364.725     9166.428     9691.819     78.05458     156.2338     312.7167      1.540     3.15     835.5301     55.14882     850.8981        26     1.294     0.987  87.12   0
       513    267.9815    283.6165 307.8239620  +6.5642444     597.1188     788.1636     1375.691     78.17917     156.2338       312.81      1.271     4.16     835.3642     55.14882     87.17712         8     0.944     0.680  77.19   0
       514    927.7704    282.0037 307.5499040  +6.5869911     585.6398     624.7827     651.9489     77.92979     156.2961     312.7167      0.994     3.62     837.6006     55.14882     120.2764         5     1.077     0.351  76.82   0
       515    824.2354    281.2906 307.5929433  +6.5838304     735.4246      965.707     784.7642     78.55175     156.4206     312.9034      1.388     4.13     838.4092     55.14882     108.5703         8     0.948     0.603 -85.20   0
       516    799.0045    275.2803 307.6036271  +6.5854691     519.1068     663.6528     704.6037     78.05458     156.0468     312.6233      1.535     3.96     837.9688     55.14882     109.2982         5     1.038     0.433 -66.79   0
       517    778.8642    276.0475 307.6119691  +6.5844797     933.9897     1277.083     1433.953     78.30356     156.3583     312.9344      1.495     4.39     837.7469     55.14882     163.1237         8     1.064     0.616  55.22   0
       518    235.9309    275.6851 307.8375440  +6.5664422     730.2019     831.0098     686.5783     78.55175     156.7314     312.9034      1.352     5.05     835.9338     55.14882     105.7654         7     1.116     0.646  56.48   0
       519    393.6276    273.3203 307.7721098  +6.5727113     1848.252     2750.256     3378.213     78.30357     156.4206     312.8723      1.625     4.11     833.7041     55.14882     264.2429        17     1.374     0.809  76.75   0
       520    980.8564    272.3953 307.5281695  +6.5927279     1123.076     1402.803     1702.904     77.80481     156.3583     312.5922      1.427     4.60     836.8672     55.14882     154.6123        11     1.048     0.713 -83.07   0
       521    163.2029    269.5142 307.8679656  +6.5665457     1910.511     2638.333     2605.767     77.80481     156.1092     312.5922      1.466     3.42     837.2957     55.14882     249.0989        17     1.267     0.777  80.67   0
       522    315.8791    269.4292 307.8045409  +6.5717092     1170.865     1779.693     1803.272     78.30356     156.4828     312.8412      1.557     3.92     833.9548     55.14882     164.1054        12     1.137     0.707  81.24   0
       523    573.0562    265.0691 307.6978428  +6.5821296      2281.86     3172.841     2850.858     78.55175     156.3583     312.8412      1.507     3.59     835.0638     55.14882     317.6865        17     1.204     0.822  86.04   0
       524    916.8892    264.1794 307.5550210  +6.5939867     1891.019     2842.256     2940.355     78.30356     156.2338     312.7478      1.767     4.17     836.7698     55.14882     284.1343        16     1.294     0.882  71.11   0
       525    736.7853    262.7505 307.6298969  +6.5885632     5536.604     7432.745     7323.619     77.80481     156.4206     312.5922      1.410     3.05     836.5539     55.14882     852.2329        23     1.256     0.867  80.88   0
       526    677.5688    262.6482 307.6545028  +6.5866258     2363.508     3296.415      3605.27     78.05459     156.4828     312.7789      1.442     3.11     836.2545     55.14882     366.0473        17     1.229     0.813 -88.73   0
       527    974.8173    262.4710 307.5310104  +6.5966237     708.5655     930.7413     905.5207     77.92979     156.4206     312.7789      1.678     4.60     836.4194     55.14882     116.1173         8     1.049     0.736  76.29   0
       528    392.5830    256.6577 307.7731040  +6.5795550     737.6838     1048.812     960.9337     77.92979     156.4206     312.6233      1.586     5.44     833.3596     55.14882     90.56305        10     1.075     0.778 -79.01   0
       529    932.8382    254.4123 307.5487212  +6.5985508      1006.83     1274.041     1120.927     78.05458     156.2961     312.5922      1.387     4.66     836.1376     55.14882     152.0562         9     0.967     0.637  76.09   0
       530    236.2385    247.9099 307.8383515  +6.5779186     2538.322     3578.178     3426.057     78.42776     156.4206     312.9034      1.496     3.52     835.2656     55.14882     331.4122        20     1.291     0.882  76.79   0
       531    879.0602    246.9127 307.5713157  +6.5998528     1797.708     2428.388     2712.068     78.42776     156.6071     312.9655      1.389     3.04     836.0108     55.14882     315.7735        14     1.218     0.698  83.50   0
       532    769.3303    246.3288 307.6169256  +6.5964300     1764.896     2425.749     2705.168     78.42776     156.6071     312.8412      1.419     3.25     835.8973     55.14882     256.7288        15     1.171     0.754 -89.96   0
       533    796.2573    237.0193 307.6060499  +6.6011727     14364.89     20420.65     22216.93     78.05458     156.4206     312.6855      1.485     3.11     835.3865     55.14882       2268.5        47     1.361     1.242  86.97   0
       534    470.1934    237.8246 307.7414932  +6.5899316     24755.58     35615.52     36618.08     77.92979     156.3583     312.7167      1.516     3.20     832.9578     55.14882     3437.332        50     1.444     1.093  81.58   0
       535    331.3897    239.9195 307.7990899  +6.5844119     675.6727     1117.162      954.704     78.05458     156.1715     312.7167      1.678     3.65     833.2278     55.14882     112.7733         6     0.948     0.631 -64.57   0
       536    734.6008    232.5575 307.6318163  +6.6009547      682.512     1016.329       1008.7     77.80481     156.1715     312.4987      1.338     3.63     835.2033     55.14882     124.9371         7     1.087     0.489 -88.57   0
       537    475.9068    232.2748 307.7393059  +6.5924141     1582.007     2250.162     2249.437     78.42776     156.6071     312.8412      1.527     3.46     832.7507     55.14882     240.9668        14     1.131     0.810  82.35   0
       538    158.4491    231.1182 307.8712345  +6.5822363     2645.653      3819.25     4539.006     78.42776     156.4828     312.9034      1.594     3.03     835.9478     55.14882     343.2971        19     1.221     0.872  86.63   0
       539    133.1826    230.1041 307.8817655  +6.5818054     1222.693     1530.246     1519.713     78.30356     156.2961     312.7167      1.441     3.81     836.8394     55.14882     168.5591        12     1.017     0.805  85.58   0
       540    185.0012    229.6254 307.8602538  +6.5837451     681.2894     790.2267     920.7119     78.05458     156.1715     312.6544      1.337     4.46     835.5394     55.14882     87.54688         6     0.945     0.598  89.95   0
       541    932.4958    227.3091 307.5497699  +6.6097285     1501.853     1939.086     1978.014     78.42776     156.9796     312.8412      1.284     2.56     834.7589     55.14882     236.3301        12     0.954     0.736  65.69   0
       542    594.2562    223.6326 307.6904255  +6.5999453     5140.392     7088.963     7041.712     78.30357      156.545     312.8723      1.470     3.06     834.2053     55.14882     752.9645        25     1.271     0.952  80.08   0
       543    556.8842    223.4376 307.7059591  +6.5987748     2260.589     3084.982     3516.817     78.42776     156.4206       312.81      1.448     3.88     833.9355     55.14882     320.6274        15     1.294     0.722  84.78   0
       544    314.5219    224.5697 307.8066143  +6.5901825      1399.22     1571.211     1169.484     78.30357      156.545     312.8412      1.324     3.33     833.1587     55.14882     196.5668        12     1.014     0.776  70.91   0
       545    398.7890    222.6786 307.7716682  +6.5937904     1529.543     2118.229     1862.099     78.05458     156.1715     312.7478      1.558     3.27     832.6542     55.14882     238.2968        14     1.121     0.758  81.97   0
       546    955.2909    220.7973 307.5405166  +6.6131770     2870.099     4017.205     3692.113     77.80481     156.1715     312.5922      1.442     3.09     834.5314     55.14882     459.5907        20     1.171     0.897  80.03   0
       547    901.2928    220.1429 307.5629741  +6.6116461     12278.94     16852.63      17593.8     78.30356     156.4206     312.9966      1.434     3.02     834.4505     55.14882     1930.766        33     1.340     0.958  75.47   0
       548    699.4207    218.1573 307.6469156  +6.6057236     3088.083     4697.578      4913.05     77.92979     156.3583     312.7167      1.606     3.40     834.6323     55.14882     476.2355        22     1.343     0.879  75.63   0
       549    576.4246    220.4581 307.6979406  +6.6006590     1026.601     1285.349       822.03     78.05459     156.4828     312.7478      1.395     4.79     833.9406     55.14882     152.0782         9     1.127     0.578  75.88   0
       550    328.8019    220.6761 307.8008125  +6.5922691     992.1983     1553.186     1521.126     77.80481     155.9844     312.7478      1.577     4.95     833.0295     55.14882     176.1766        12     1.271     0.881 -47.86   0
       551    220.5568    220.7987 307.8457796  +6.5885837     613.9261     956.6733     735.7381     77.80481     156.1715     312.4987      1.384     4.13      834.996     55.14882      102.641         6     1.060     0.477  81.49   0
       552    987.9424    218.0151 307.5270431  +6.6154141      10232.6     14543.83     14973.43     77.80481     156.4206     312.5922      1.465     3.07     834.4426     55.14882     1640.559        35     1.354     1.009  81.79   0
       553    273.8552    217.6024 307.8237441  +6.5916934     1210.763      1742.56     1316.171     77.80481     156.2338      312.561      1.616     4.69     833.8012     55.14882     167.9786        15     1.368     0.798  71.86   0
       554     27.4408    216.7094 307.9261470  +6.5837771     27627.74     39492.12        41773     78.42776     156.4828     312.9034      1.545     3.09     838.7719     55.14882     3596.641        51     1.431     1.126  79.77   0
       555    507.9788    212.9769 307.7266292  +6.6014553     2078.812     2851.373     3157.619     78.17917     156.2961     312.8412      1.454     3.21     832.6569     55.14882     311.1118        14     1.152     0.744  83.33   0
       556    839.7958    209.6709 307.5888760  +6.6139168     2295.968     3243.411     3540.498     78.05458     156.1092     312.7167      1.512     3.05     834.1183     55.14882     375.4204        19     1.265     0.832  78.08   0
       557    892.2059    208.6405 307.5671345  +6.6160914     2216.789     3045.178     3315.407     77.67962     156.1715      312.561      1.425     3.20     834.0804     55.14882     352.7537        17     1.194     0.813  80.97   0
       558    751.4547    206.1116 307.6256999  +6.6124356     44140.61     60635.32     63437.08     78.42776     156.3583     312.9966      1.454     3.01     834.2225     55.14882     6034.362        63     1.438     1.074  81.91   0
       559    519.8740    208.8903 307.7218243  +6.6035408     2811.904     3879.959     3890.261     78.42776     156.7314     312.9034      1.445     3.25     832.7228     55.14882     419.0867        17     1.176     0.824  89.99   0
       560    354.5459    205.5451 307.7906259  +6.5993793     6262.022     11859.84     12823.31     78.67555     156.4828     312.8723      2.029     5.81     832.7354     55.14882      793.428        44     2.028     1.070 -81.31   0
       561    985.2449    204.9411 307.5286009  +6.6207216      2916.11     3943.347     3502.727     78.30356     156.4206     312.9655      1.394     2.83     834.0002     55.14882     498.0139        18     1.230     0.818  87.83   0
       562   1023.3651    203.6246 307.5128061  +6.6225356     1642.959     2110.569     2143.236     71.68499     128.8548     240.1552      1.269     3.42     833.9771     55.14882     261.3429        12     1.073     0.682  85.02  24
       563    919.4272    203.2017 307.5560061  +6.6192449      8013.19     11025.76     11380.54     77.92979     156.2338     312.6544      1.429     3.12     833.9082     55.14882     1210.953        28     1.311     0.909  81.85   0
       564    462.8371    202.2848 307.7457437  +6.6043567      5435.91     7613.635     7905.673     78.42776     156.4828     312.8412      1.486     3.27     831.9364     55.14882     776.7321        28     1.332     0.991  71.02   0
       565    329.3643    201.3570 307.8012289  +6.6002632     536.7249     421.9057      489.651     78.17918     156.4828     312.6855      1.341     4.15     833.0486     55.14882      91.9967         5     1.219     0.403  53.07   0
       566    237.5185    199.0785 307.8394643  +6.5981200     753.6418     975.6725     1059.192     78.55175     156.7314     313.0277      1.314     4.61     834.5448     55.14882     134.2788         9     1.079     0.630 -89.80   0
       567    120.2013    193.6153 307.8883888  +6.5964319     5106.151     7270.925     7475.667     78.05458     156.1715     312.6544      1.532     3.11     836.2978     55.14882     708.1847        25     1.273     0.976  84.13   0
       568    939.9141    192.7486 307.5478435  +6.6242436     866.9401     1069.084     1385.297     78.42776     156.3583     312.9344      1.483     4.15     833.5834     55.14882      146.534         8     1.076     0.571 -59.43   0
       569    616.8340    192.2195 307.6820989  +6.6136691     646.3899     950.4153     1386.373     77.92979     156.2961     312.6855      2.068     4.78     833.4424     55.14882     112.2853         6     1.052     0.616  83.32   0
       570    290.5467    190.2872 307.8177289  +6.6035300      37312.9     52921.48      55386.9     78.42776     156.3583     313.0277      1.549     3.15     833.6188     55.14882     4724.958        57     1.439     1.125  83.16   0
       571    265.8488    191.3341 307.8279549  +6.6022685     7168.835     10312.55     10393.71     78.30356     156.3583     312.9034      1.527     3.41     834.0318     55.14882     1004.742        31     1.373     0.991  82.63   0
       572    719.7110    189.9152 307.6394319  +6.6180610     1010.057     1207.789     1227.621     78.17917     156.7314     312.9966      1.347     3.29     833.7779     55.14882     174.5844        10     1.046     0.630  70.82   0
       573    204.4512    190.0428 307.8535069  +6.6007390     461.0767     426.2028      578.665     78.42776     156.4828     312.9034      1.131     3.94     834.8861     55.14882      80.3147         5     0.894     0.496  87.06   0
       574    170.5426    187.1860 307.8676908  +6.6007787     4405.826     6256.248     5958.754     77.80481     156.3583      312.561      1.512     3.13     835.1158     55.14882     624.0358        24     1.330     0.935 -87.48   0
       575    431.9088    186.6075 307.7591205  +6.6097919     1555.348     2143.164     1681.632     78.05458     156.1715     312.6855      1.509     4.12     831.9038     55.14882     251.8728        14     1.321     0.715  89.37   0
       576    414.6190    185.7838 307.7663317  +6.6095522      54684.3     77490.36     80692.72     78.17918     156.2338     312.7789      1.494     3.06     832.0834     55.14882     7519.007        60     1.436     1.124  81.57   0
       577    318.6509    183.4797 307.8062816  +6.6072837     20269.93     28518.67     29979.62     78.42776      156.545     312.8723      1.534     3.12     833.2235     55.14882     2710.854        45     1.389     1.099  83.92   0
       578    753.9172    181.9849 307.6254852  +6.6224781     35847.09     50149.07     52249.65     78.05458     156.1715     312.7478      1.452     3.09     833.5091     55.14882     5734.152        57     1.428     1.071  81.04   0
       579    701.9210    184.0772 307.6470193  +6.6198764     1237.258     1677.635     1968.459     78.67555     156.7314     312.9966      1.520     4.20     833.5948     55.14882     169.2552        12     1.091     0.735  87.06   0
       580    585.5554    184.8054 307.6953436  +6.6156829     594.7071     735.5327     928.4028     77.80481     156.1715     312.5299      1.424     3.16      832.765     55.14882     106.8022         5     0.728     0.468  72.63   0
       581    802.3085    182.4577 307.6053629  +6.6238995     1386.627      1940.29     2276.829     78.30357     156.4206     312.9655      1.521     3.65     833.4369     55.14882     201.4685        11     1.052     0.708  72.79   0
       582     70.7310    179.2389 307.9094264  +6.6007023     10056.21     14299.74      14530.1     78.30357     156.4828     312.9655      1.529     3.20      837.491     55.14882     1428.755        34     1.384     1.013  80.84   0
       583    326.0844    183.1937 307.8032028  +6.6076513     2232.432     3663.673     4677.317     78.05458     156.1715     312.7167      1.970     4.28     833.1131     55.14882     331.6221        23     1.567     0.886 -81.43   0
       584    104.6377    177.2762 307.8954058  +6.6026533     1668.925     2271.869      2150.71     78.30357      156.545     312.8723      1.435     3.45     836.0793     55.14882     236.3301        14     1.047     0.898 -84.41   0
       585   1012.3936    176.3278 307.5182770  +6.6334390     1086.461     1293.687     1541.261     78.05459     156.0468     312.7789      1.341     3.43     833.0186     55.14882     167.6924        10     1.094     0.603 -88.37   0
       586    738.5356    169.8574 307.6322826  +6.6269706     646.0815     880.3818     216.6859     78.55175     156.4206     312.9034      1.238     3.48     833.1664     55.14882     113.2872         5     0.799     0.439  69.22   0
       587    587.6978    166.7278 307.6950602  +6.6232176     796.1472     1061.878     933.2729     78.17918     156.6071     312.8412      1.335     3.35     832.1707     55.14882      121.501         8     0.891     0.637 -89.10   0
       588   1013.3112    162.7785 307.5183485  +6.6390632     2221.579     3449.772     4011.495     78.42776     156.2961     312.7789      1.823     4.25     832.5751     55.14882     328.4176        17     1.381     0.793  71.78   0
       589      3.9359    164.6627 307.9376688  +6.6044710     1032.217      1160.45     665.3406     78.42776     153.9749     273.6093      1.352     4.52     841.1022     55.14882     155.8735        10     0.985     0.697  88.70  16
       590    596.4846    159.9635 307.6916363  +6.6263041     1064.793     1485.689     1499.204     78.42776     156.4828     312.8412      1.465     4.70     832.1301     55.14882     167.0458         9     1.136     0.600  81.34   0
       591    289.4445    156.5309 307.8193232  +6.6174282     33884.85     47809.36     50226.33     78.42776     156.4206     312.9034      1.554     3.14      833.928     55.14882     4380.897        60     1.497     1.126  84.00   0
       592    604.6059    158.4664 307.6883122  +6.6271940     2126.702     2728.557      3097.55     77.92979     156.2338     312.6855      1.450     3.19     832.2777     55.14882      297.072        15     1.115     0.831  77.38   0
       593    348.8190    158.5476 307.7945863  +6.6185886     1092.363     1666.549     1700.027     77.92979      156.545     312.6855      1.601     3.39     832.7804     55.14882      164.649        11     1.021     0.712  80.24   0
       594     34.6821    155.0034 307.9252210  +6.6094936     4699.727     6667.016      6179.72     77.80481     156.1092     312.5922      1.474     3.26     839.1547     55.14882      710.436        23     1.285     0.916  68.58   0
       595    721.1921    153.1980 307.6400473  +6.6332684     8845.833     12278.28     12899.38     77.80481     156.1715     312.6544      1.443     3.03       832.58     55.14882     1436.731        32     1.269     1.027  76.39   0
       596    275.2964    151.1968 307.8253810  +6.6191551     832.4169     1293.797     1029.577     78.17917     156.1715      312.561      1.603     5.57     834.1224     55.14882     125.9904        11     1.290     0.679  80.83   0
       597    131.8312    150.2688 307.8850186  +6.6147169     5245.907     7516.117     7790.783     78.30356     156.4828     312.8412      1.518     3.30      834.947     55.14882     717.7008        26     1.350     0.928  75.52   0
       598    594.1374    148.6494 307.6929913  +6.6308963     780.1488     1181.248     1115.924     78.42776     156.4206     312.9344      1.607     3.17     831.6797     55.14882     142.2036         7     1.014     0.483  69.35   0
       599    470.9063    147.7613 307.7442232  +6.6271356     1446.659      2205.39     2378.928     78.55175     156.4206     312.9655      1.614     3.88     830.5532     55.14882     205.2251        14     1.263     0.712  85.50   0
       600    198.4834    154.4696 307.8571848  +6.6152236     1064.691     1478.606     1030.536     78.67555     156.7314     312.9034      1.575     4.14     834.5363     55.14882     143.6042         8     1.048     0.499  88.92   0
       601    659.4120    147.4798 307.6659088  +6.6335632     870.6442     1311.594     1338.311     78.05459     156.1715     312.7167      1.647     4.21     832.2445     55.14882     124.3436         9     0.984     0.767 -42.84   0
       602    402.5831    146.2185 307.7726628  +6.6254819     4122.824     6669.589     6871.434     78.17918     156.2338       312.81      1.726     3.57     831.8174     55.14882      571.459        34     1.623     1.111  81.34   0
       603    366.9803    145.0819 307.7874936  +6.6247569     3505.518     5132.022     5160.928     78.05458     156.1715       312.81      1.505     3.22      832.846     55.14882     534.2247        25     1.292     0.968  79.34   0
       604    579.2698    145.5815 307.6992717  +6.6316651     712.7182     1188.589     1348.163     78.05459     156.3583       312.81      1.659     4.42     831.2737     55.14882     96.08844         7     1.051     0.529 -62.76   0
       605    121.2718    145.1072 307.8895797  +6.6164925     1845.684     2604.522     2663.777     78.30356     156.6071     312.9034      1.485     3.23     834.9802     55.14882     288.9109        15     1.156     0.762  69.90   0
       606    853.5197    145.0311 307.5853376  +6.6410602     475.8513     691.0821     1100.764     78.30356     156.4828     312.8412      1.356     3.75     831.7498     55.14882     76.89191         6     0.810     0.498  86.27   0
       607    682.8685    142.8752 307.6563170  +6.6362486     736.3088     1092.977     1227.098     78.55175     156.6071     312.8723      1.394     4.21     832.1815     55.14882     121.7125         8     1.098     0.520  84.12   0
       608    757.4187    143.2677 307.6253277  +6.6385786     613.0866     917.0353     758.9184     78.05459     156.4206     312.7789      1.659     3.44     832.1879     55.14882     92.65381         5     0.729     0.469  74.08   0
       609   1013.7886    139.5500 307.5189265  +6.6486686     1687.036     2515.321     2510.529     77.80481     156.3583      312.561      1.614     3.67     831.2754     55.14882     240.3229        16     1.272     0.769 -87.75   0
       610    739.7150    139.0767 307.6328242  +6.6397172     664.8879     650.9589      298.997     78.55175     156.7934     312.9655      1.338     4.23     832.0352     55.14882     119.0193         7     0.798     0.639  71.92   0
       611    842.9568    137.9403 307.5899640  +6.6436349     468.0059     613.6811     380.2742     78.30357     156.4828     312.9655      1.371     3.72     831.5072     55.14882     71.73633         5     1.014     0.392  58.79   0
       612    218.8685    134.0996 307.8494016  +6.6243176     6006.131     8479.186      8371.36     78.42776     156.6071     312.8412      1.463     3.03     834.2074     55.14882     929.7898        30     1.287     1.025  83.54   0
       613    101.4983    134.0149 307.8981691  +6.6204064      2246.84     3199.035     3614.051     78.42776     156.2338     312.6544      1.553     3.37     835.0703     55.14882     282.3435        18     1.220     0.888  76.01   0
       614    857.5803    133.8524 307.5840246  +6.6458107      441.323     737.4254     1510.838     77.92979      156.545     312.6855      2.447     4.46     831.1245     55.14882     67.41827         5     1.158     0.489 -86.34   0
       615    828.7798    132.7379 307.5960289  +6.6453093     1153.514     1587.743     1447.176     78.05458     156.4828     312.7789      1.556     3.59     831.4333     55.14882      183.645        12     1.115     0.734  73.77   0
       616    680.6713    132.8704 307.6575654  +6.6403054     6885.757     9383.904      9551.39     78.42776     156.6071       312.81      1.439     2.93     831.7855     55.14882     1020.452        26     1.255     0.925  75.09   0
       617    632.8362    130.1926 307.6775312  +6.6398108     10392.72     14640.13      15429.7     77.80481     156.2961     312.6233      1.469     3.08     831.3677     55.14882     1550.429        38     1.403     1.029  84.36   3
       618    636.3655    121.7100 307.6763493  +6.6434307     59227.27     81868.98      85462.8     78.55175     156.3583     312.8723      1.491     3.04     831.0602     55.14882     8180.083        71     1.467     1.119  79.16   2
       619    268.0698    130.8203 307.8290696  +6.6273241     897.7029     1204.001     1324.264     78.05458     156.3583       312.81      1.422     4.62      834.358     55.14882     127.8649         9     1.015     0.768  83.42   0
       620     31.5015    128.6044 307.9274334  +6.6202842     969.2031     1755.797     2503.031     78.17918     156.1715     312.5299      2.210     6.76     838.3622     55.14882     134.2458        15     1.617     0.792 -80.88   0
       621    360.0313    125.8439 307.7910280  +6.6324655     3868.879     6252.478     6150.493     78.05458      156.545     312.7478      1.680     3.77     833.6641     55.14882     525.3705        33     1.614     1.074 -74.37   0
       622   1006.0535    124.9230 307.5226295  +6.6544493     932.5585      1202.22     598.2236     78.55175     156.4828     312.9034      1.493     4.14     830.3958     55.14882     145.8534        10     1.099     0.783  73.76   0
       623    541.7045    125.2160 307.7155640  +6.6388147     1943.819     2469.997     2516.197     78.17918     156.2961     312.7478      1.433     3.36     830.2474     55.14882     309.1828        16     1.144     0.833  87.62   0
       624    315.4198    115.4057 307.8099151  +6.6352774     4099.382     5953.056     6543.753     78.05459     156.1715     312.6855      1.607     3.07      834.613     55.14882     539.2328        25     1.322     0.937  80.07   0
       625    511.3351    112.9943 307.7285932  +6.6428428     767.8877     1085.792     822.1603     77.92979     156.2338     312.6544      1.531     4.80     830.0162     55.14882     89.38159         9     1.068     0.613  35.95   0
       626    686.7717    109.0227 307.6558304  +6.6503543     1501.225     2168.805     2205.578     77.92979     156.2961     312.7167      1.456     3.93     830.8394     55.14882     254.3508        13     1.196     0.769 -74.40   0
       627     12.9701     98.4544 307.9361504  +6.6321064     721454.1      1492224      1625157     78.17917      156.545     312.7789      2.133     5.17     837.9935     55.14882      61506.7       481     2.227     1.915  86.71  28
       628    715.2164    109.9041 307.6439815  +6.6509415     923.9747     1201.477     1017.247     78.30356     156.2961     312.7167      1.441     2.95     830.8941     55.14882     168.7246         8     0.957     0.569 -83.51   0
       629    700.7579    105.6754 307.6501311  +6.6522039     3483.287     4700.756     5095.519     78.30357     156.4828     312.9034      1.414     3.13     830.7291     55.14882     552.2256        20     1.282     0.796  77.11   0
       630    442.5002     96.7638 307.7577400  +6.6472362     4598.985     6287.622     6757.383     78.42776     156.3583     313.0277      1.448     2.88     830.2348     55.14882     657.4629        23     1.266     0.872  86.78   0
       631    915.0406     92.0771 307.5615464  +6.6649743     4305.256     6079.123     5944.571     78.30357     156.4828     312.9344      1.467     3.01     828.6342     55.14882     729.2394        25     1.281     0.917  76.81   0
       632    897.1866     92.9008 307.5689378  +6.6640385      2273.87      3265.97     3282.311     78.17917     156.2338     312.6233      1.402     3.22     828.7469     55.14882     388.5977        19     1.284     0.866 -87.51   0
       633    594.8062     92.8695 307.6945856  +6.6539460     776.1199     987.0622     814.8178     77.92979     156.1092     312.7167      1.294     2.94     829.7168     55.14882     145.4448         7     0.749     0.659 -84.04   0
       634    607.1280     90.5924 307.6895421  +6.6552984     2018.435     2633.512     2316.299     77.92979     155.9844     312.7789      1.427     3.26     829.6795     55.14882     297.2733        15     1.160     0.766  83.03   0
       635    252.6324     89.7267 307.8368676  +6.6437696     821.2302     1368.879      1716.74     78.30357     156.4828     312.8723      1.543     4.71     834.3243     55.14882     179.7106         9     1.367     0.460  83.49   0
       636    627.3795     90.2824 307.6811376  +6.6561041     575.7488     865.9485     1062.099     78.17918     156.1715       312.81      1.300     3.40     829.7791     55.14882     91.72083         5     0.754     0.444  71.32   0
       637     96.1673     89.6683 307.9018799  +6.6385337     514.5857     788.6503     332.8631     78.30356     156.4828     312.8723      1.468     3.56     834.3039     55.14882      91.9173         5     0.991     0.368  86.23   0
       638    405.9523     88.5333 307.7732027  +6.6494084     2240.663     2870.605     2534.831     78.42776     156.4206     312.9034      1.419     3.47     831.2343     55.14882      352.791        13     1.114     0.716  80.54   0
       639    153.7213     85.4299 307.8781096  +6.6422192     3716.998     5069.401     4978.997     78.30357      156.545     312.8412      1.458     3.11     832.8728     55.14882     542.9663        21     1.200     0.928  82.24   0
       640     35.7024     83.2129 307.9272201  +6.6391635     13324.65     19417.17     20712.26     78.30357     156.2338     312.6233      1.554     3.12     836.1345     55.14882     1923.102        46     1.460     1.132  76.11   0
       641    575.5912     83.7308 307.7028766  +6.6570754     637.1409     944.0217     847.6603     77.92979     156.1715     312.7478      1.628     3.45      829.549     55.14882     98.99597         5     0.789     0.435  69.68   0
       642    562.7919     83.1858 307.7082132  +6.6568718     811.1472     1090.216     1127.686     78.05458     156.2338     312.7167      1.320     4.21     829.5303     55.14882      130.817         8     0.974     0.623  61.57   0
       643    301.7190     83.5911 307.8166787  +6.6479510     1441.271     1972.597     2475.368     78.05459     156.1092     312.7478      1.441     3.57     835.1715     55.14882     240.0615        13     1.076     0.851  46.19   0
       644    770.6191     82.6284 307.6218745  +6.6640533     801.2444     1148.718     1691.217     78.05459     156.2961       312.81      1.551     2.95     829.7339     55.14882     134.3528         8     0.909     0.604  73.12   0
       645    837.4647     77.7997 307.5942598  +6.6682793     6806.125     9342.062     9774.952     77.67962     156.1092     312.5922      1.431     2.91     828.8622     55.14882     968.8289        29     1.311     0.933  76.83   0
       646    782.5704     78.0270 307.6170626  +6.6663521     3490.551     4834.693     4732.104     77.92979     156.2961     312.7167      1.447     3.14     829.4617     55.14882     522.0769        21     1.306     0.821  85.04   0
       647    904.4250     79.1678 307.5663895  +6.6699494     674.7969     970.5992     1008.164     77.92979     156.2961     312.7167      1.389     3.39      828.246     55.14882     114.7194         5     0.823     0.405  66.69   0
       648    427.7588     78.5325 307.7644781  +6.6542682     1233.777     1698.708     1273.832     78.42776     156.4206     312.9344      1.393     3.78     830.1746     55.14882     172.7152        10     0.989     0.772  77.85   0
       649    769.5902     77.2810 307.6224812  +6.6662264     700.3212     1075.517     1340.371     78.05459     156.1092     312.7167      1.944     6.05     829.4622     55.14882     89.67609         9     1.160     0.888 -74.10   0
       650    544.8004     76.4145 307.7159165  +6.6590647     1338.541     1652.723     2239.222     78.05458     156.1715     312.6544      1.360     3.86     829.3998     55.14882     211.4217        11     1.035     0.736  70.63   0
       651     75.9514     75.0806 307.9107715  +6.6438754     3494.319     4995.688     4864.987     78.42776      156.545     312.8723      1.490     3.17     834.4131     55.14882     504.1716        22     1.271     0.891  83.55   0
       652     60.2972     75.9417 307.9172466  +6.6429931     1096.115     1559.465     1142.684     78.17917     156.4206     313.0277      1.492     4.09     834.9534     55.14882     190.5554         9     1.044     0.685 -82.13   0
       653    664.8280     75.2688 307.6660805  +6.6635549     694.7459     756.8704     567.1298     78.17917     156.4206     312.7789      1.251     4.10     829.4784     55.14882     107.7267         8     0.938     0.674  62.31   0
       654    437.1560     74.4002 307.7607124  +6.6562892      1047.36      1580.63     1616.778     77.67962     156.1092     312.4987      1.736     5.15     830.0259     55.14882     150.5079        11     1.252     0.707  65.44   0
       655    599.9196     71.8407 307.6931667  +6.6627983      1411.88     1967.196     1813.638     78.42776     156.4828       312.81      1.406     3.17     829.3252     55.14882     219.7164        12     1.096     0.668  78.80   0
       656     18.3642     70.6431 307.9348482  +6.6437687      2914.06     4196.605     4913.695     78.17918     156.4828     312.6855      1.534     3.37     835.9048     55.14882     371.7936        19     1.226     0.904 -86.48   0
       657    776.9263     65.7319 307.6198198  +6.6712393     2142.062     3255.422     3587.826     78.55175     156.6071     312.8412      1.658     3.35     828.9214     55.14882     341.3572        18     1.326     0.842  84.04   0
       658    418.1073     65.8103 307.7689163  +6.6591965      1158.25     1618.439     1484.669     78.17917     156.1092     312.6855      1.448     3.45     830.0921     55.14882     236.7665        10     1.091     0.589  73.70   0
       659     90.5076     66.0376 307.9050285  +6.6480982     833.1804     1199.142     525.2077     78.55175     156.4206     312.9344      1.360     5.30      833.631     55.14882     121.1918        10     1.256     0.631 -89.28   0
       660    668.3228     65.4969 307.6649561  +6.6677059     454.5159     564.3533     398.0152     78.05459     156.6693     312.9344      1.306     4.15     829.1071     55.14882     89.04614         5     1.049     0.468  89.82   0
       661    115.1876     64.6498 307.8948209  +6.6495014     1048.234     1322.827     1240.116     77.80481     156.4206     312.5922      1.383     3.02     833.1729     55.14882      183.909        10     0.940     0.716  59.73   0
       662    103.7120     59.3721 307.8997670  +6.6512940     10381.84     14917.85     15030.62     78.55175     156.2338     312.7478      1.551     3.08      833.152     55.14882     1453.186        37     1.447     1.014  83.44   0
       663    432.9387     59.1333 307.7629780  +6.6624502     2823.001     3877.431     4100.906     78.42776     156.4206     312.8723      1.428     3.11     829.8763     55.14882     429.1303        20     1.173     0.922  78.62   0
       664    254.3208     58.5841 307.8372150  +6.6566824     653.5287      907.318     1034.073     78.05459     156.2338     312.7167      1.346     4.05     834.0295     55.14882     101.5283         6     0.886     0.530  39.11   0
       665    646.5463     51.3924 307.6744781  +6.6728001     20420.43     28153.83     29782.97     77.92979     156.2961     312.5922      1.464     3.01     828.7059     55.14882     2883.742        47     1.388     1.059  82.58   0
       666    270.4312     53.3541 307.8306970  +6.6593825     1686.955     2488.321     3333.176     78.05459      156.545     312.7478      1.730     4.14     834.5898     55.14882       221.12        14     1.140     0.790  77.35   0
       667    675.8517     52.5762 307.6622610  +6.6732916     706.6921     872.8647     1097.465     77.92979     156.4828     312.7789      1.416     3.89     828.6276     55.14882     118.0479         7     0.898     0.568  81.32   0
       668    955.8022     51.4087 307.5459688  +6.6831229     612.6522     976.7682      1278.15     77.80481     156.1715     312.6544      1.618     2.79     826.5295     55.14882     107.1538         6     0.700     0.634  68.71   0
       669    264.4766     47.9043 307.8333548  +6.6614323     2280.106     3492.496     4548.591     78.17917     156.6071     312.9655      1.758     3.51     834.3273     55.14882     281.9299        19     1.262     0.926  70.40   0
       670    546.4185     47.3959 307.7162186  +6.6710983     5809.065     8076.921     8519.641     78.05459     156.0468     312.6855      1.482     3.24     828.8591     55.14882     848.1412        29     1.327     0.999  73.53   0
       671    782.0518     46.6661 307.6183288  +6.6792814     590.1617     941.3226     957.3772     78.30356     156.4206     312.8412      1.687     4.24     827.9908     55.14882     92.02362         5     0.821     0.624 -82.99   0
       672    632.8569     41.9982 307.6804817  +6.6762202     3316.254     5536.873     7256.697     77.80481     156.1715     312.6233      2.021     5.29     828.5524     55.14882     527.0255        31     2.160     0.847  70.68   0
       673    272.4407     43.4495 307.8301956  +6.6635388     10332.95     14758.62     16149.66     78.55175     156.4828       312.81      1.576     3.13     834.6439     55.14882     1345.358        41     1.384     1.150  85.06   0
       674     13.5539     45.6068 307.9376920  +6.6539418     1171.523     1877.022     1538.291     77.92979     156.2338     312.5299      1.659     3.09     834.2026     55.14882     170.9235        10     0.979     0.723 -82.37   0
       675    451.8492     43.0644 307.7556605  +6.6697177     25186.44     35598.82     37247.57     78.30356     156.3583     312.9344      1.478     3.14     829.5554     55.14882     3800.564        50     1.388     1.119  82.97   0
       676    332.3011     44.0120 307.8053036  +6.6653164     1182.339     1879.529     1973.199     78.17917     156.2338     312.6544      1.585     4.14     835.3737     55.14882     177.5881        13     1.142     0.776  78.28   0
       677    929.6028     43.0732 307.5571348  +6.6856903      2139.14     2800.558      2893.15     77.92979     156.0468     312.7167      1.370     2.98     826.7653     55.14882      333.911        15     1.092     0.785  81.68   0
       678    537.4410     44.0365 307.7200619  +6.6721845     493.4902     755.0731     456.7378     78.17917     156.4828     312.7478      1.250     4.54      828.875     55.14882     103.4105         7     1.155     0.600  51.58   0
       679     37.8124     43.1449 307.9276958  +6.6557749     2559.249     3360.662      3368.45     77.80481     156.4206      312.561      1.428     3.24     833.6169     55.14882     330.1812        17     1.112     0.869  84.65   0
       680    564.6863     43.1747 307.7087695  +6.6734527     595.7957     977.3099      849.415     78.55175     156.2961     312.7167      1.672     4.57     828.7845     55.14882     92.20667         6     0.974     0.610 -30.03   0
       681    260.3440     40.0851 307.8353353  +6.6645214     3346.994     5113.055     5836.678     78.42776     156.4828     312.9966      1.642     3.27     834.1022     55.14882     486.6169        23     1.338     0.894  84.01   0
       682    313.4656     38.5156 307.8133152  +6.6669531     1172.894     1622.125     1294.007     78.55175     156.7314     312.9344      1.473     4.13      835.399     55.14882     176.6074        12     1.244     0.687  68.71   0
       683    950.2141     33.0972 307.5489034  +6.6904961     1015.699     1270.035     1299.988     78.30356     156.2338     312.6544      1.389     3.92     825.8293     55.14882     161.6846         9     1.039     0.598  88.01   0
       684    701.6832     32.6946 307.6521937  +6.6823630     2120.579     3022.488     3409.794     78.17918     156.8555     312.9966      1.525     3.49     827.8203     55.14882      312.957        16     1.209     0.815  79.55   0
       685    106.4359     32.9229 307.8995274  +6.6623041     581.4432     809.0422     519.5256     78.30356      156.545     312.9034      1.345     3.74     832.3456     55.14882     95.65332         6     0.812     0.495  87.65   0
       686    212.9076     28.3445 307.8554414  +6.6677742     782.5071     1092.972     533.9436     78.30356     156.3583     313.0277      1.491     4.52     832.2292     55.14882     136.5281         8     1.114     0.602  45.78   0
       687    267.3943     27.6366 307.8328250  +6.6698970     873.2919     1258.261     2030.812     77.55423     156.2338     312.6855      1.612     4.78     834.3593     55.14882     127.4293         9     1.037     0.623  80.07   0
       688    189.9420     25.5074 307.8650796  +6.6681735     11805.93     16827.42     17909.07     78.30356     156.4206     312.9966      1.523     3.27      832.121     55.14882     1681.142        36     1.378     1.045  83.61   0
       689      3.1559     25.3707 307.9426956  +6.6619451       1066.9     1391.353     1056.684     78.05458     147.4527     263.0177      1.433     3.25     832.7502     55.14882     197.9275        10     1.044     0.636  76.01  16
       690    935.4907     23.2217 307.5553522  +6.6940819     4493.945      6214.15     6955.029     78.42776     156.2961     312.7478      1.467     3.04     825.8647     55.14882     615.1126        24     1.291     0.888  81.20   0
       691    534.1661     23.7034 307.7221057  +6.6804687     3370.906     4655.384     4859.344     78.55175     156.3583     313.0277      1.459     3.04      828.566     55.14882     491.0131        18     1.168     0.868  88.32   0
       692    736.4651     21.8566 307.6381036  +6.6880001     2259.858     2942.493     2923.187     78.55175     156.4206     312.8723      1.377     2.93     827.3455     55.14882     343.0445        17     1.192     0.825  70.54   0
       693    472.3803     22.0347 307.7478360  +6.6790874     1944.327     2631.896     2835.125     77.92979     156.2961     312.6544      1.430     3.10     829.2437     55.14882     280.2651        17     1.190     0.816  82.57   0
       694    450.9087   1021.2269 307.7231953  +6.2658757     1026.199     1463.366     1737.381     78.55175      152.578     271.2874      1.469     3.56     860.6125     55.14882     163.6238        12     1.148     0.676  82.63  16
       695    795.1750     18.6148 307.6138153  +6.6913001     557.6172     779.3212       787.65     78.17917     156.2961       312.81      1.653     3.66     826.4963     55.14882     78.50385         5     1.031     0.373  85.80   0
       696    743.3770   1019.2869 307.6018250  +6.2764594      1115.43     1679.817     1285.189     78.42776     156.2961     293.8806      1.601     4.77     858.5907     55.14882     149.0226        14     1.243     0.841  21.30  16
       697    374.3560   1017.3058 307.7551117  +6.2649292     1865.777     3109.095      3021.19     78.42776     156.4828     309.9972      1.738     4.05       860.19     55.14882     254.5068        23     1.474     0.955  86.02  16
       698    342.0797     14.8932 307.8022203  +6.6776653      1082.57     1454.334     1974.106     78.17917     156.6693     312.9344      1.368     3.28     835.5203     55.14882     168.5173         8     0.834     0.650  62.52   0
       699    222.6298   1015.9561 307.8181527  +6.2603965     494.5123      711.412     526.4292     78.05458     156.4828     312.7478      1.437     4.14     858.6228     55.14882     88.68506         5     0.798     0.612   6.07   0
       700    984.5485   1014.7834 307.5018361  +6.2863644     614.7084     816.6322     1101.728     77.92979      156.545     312.5922      1.596     4.47     853.6623     55.14882     83.29132         7     0.899     0.632  13.01   0
       701    527.0264   1009.1846 307.6919949  +6.2733959     1252.022     1780.446     1450.595     78.05458     156.3583       312.81      1.483     4.31      860.671     55.14882     152.3232        14     1.128     0.944 -75.78   0
       702    556.7496   1007.6561 307.6797048  +6.2750216     4279.124     6642.381     7513.232     78.42776     156.4828     312.8723      1.697     3.32     860.6473     55.14882     569.3151        32     1.498     1.063  83.39   3
       703    553.9899    999.7847 307.6811146  +6.2781788     8494.281      12989.4     13781.11     78.17917     156.2338     312.7478      1.632     3.26      860.514     55.14882     1173.306        38     1.484     1.116  86.33   3
       704    761.2948   1007.0354 307.5947952  +6.2821156     7784.483     12140.79     12572.72     78.55175     156.3583     312.9655      1.658     3.40     858.0687     55.14882     1006.914        35     1.425     1.136  73.74   0
       705    307.0832   1006.1898 307.7834166  +6.2672623     15013.63     22981.52     25158.75     78.05458     156.2338     312.7167      1.650     3.31     860.4118     55.14882     2115.451        61     1.657     1.361 -47.31   0
       706    431.4605   1006.8066 307.7317543  +6.2711773     1030.318     1694.338     1488.022     77.80481     156.2961     312.6544      1.736     4.67     860.1865     55.14882      140.169        13     1.312     0.799 -80.31   0
       707    822.4246   1006.3024 307.5694373  +6.2844591     1089.255     1787.421     1518.894     78.55175     156.2338     312.7478      1.722     4.96     857.0576     55.14882     147.2626        12     1.281     0.688  68.47   0
       708      3.2146   1007.1301 307.9095474  +6.2566661     625.6052     1097.312     1384.058     77.92979     148.2427     264.0517      1.914     3.83     852.7434     55.14882     97.27576         5     0.922     0.456  42.53  16
       709    278.1755   1003.8849 307.7954965  +6.2672440       1053.3     1565.597     1632.283     78.42776     156.2338     312.7478      1.598     5.21     860.0835     55.14882     134.8298        13     1.167     0.836  57.75   0
       710    922.5833   1000.5191 307.5280421  +6.2901878      8079.66     13811.88     14448.18     78.05459     156.1715     312.7167      1.840     3.88     856.4242     55.14882     895.4885        41     1.600     1.223  77.32   0
       711    896.2290    996.5665 307.5391172  +6.2909408     11497.57     19447.38     21236.65     77.92979     156.2338     312.6544      1.843     3.67     856.4448     55.14882     1340.089        53     1.584     1.372  81.40   0
       712   1017.9612    996.0357 307.4885880  +6.2952174     4223.664     7529.844     8307.104     78.17917     156.3583     305.5384      1.934     4.11     852.0294     55.14882     472.6888        35     1.577     1.216  69.64  16
