#   1 NUMBER                 Running object number                                     
#   2 X_IMAGE                Object position along x                                    [pixel]
#   3 Y_IMAGE                Object position along y                                    [pixel]
#   4 ALPHA_J2000            Right ascension of barycenter (J2000)                      [deg]
#   5 DELTA_J2000            Declination of barycenter (J2000)                          [deg]
#   6 FLUX_APER              Flux vector within fixed circular aperture(s)              [count]
#   9 FLUXERR_APER           RMS error vector for aperture flux(es)                     [count]
#  12 FLUX_RADIUS            Fraction-of-light radii                                    [pixel]
#  13 FWHM_IMAGE             FWHM assuming a gaussian core                              [pixel]
#  14 BACKGROUND             Background at centroid position                            [count]
#  15 THRESHOLD              Detection threshold above background                       [count]
#  16 FLUX_MAX               Peak flux above background                                 [count]
#  17 ISOAREA_IMAGE          Isophotal area above Analysis threshold                    [pixel**2]
#  18 A_IMAGE                Profile RMS along major axis                               [pixel]
#  19 B_IMAGE                Profile RMS along minor axis                               [pixel]
#  20 THETA_IMAGE            Position angle (CCW/x)                                     [deg]
#  21 FLAGS                  Extraction flags                                          
         1    178.9765     20.0862 307.8649339  +6.6680768     9489.126     16259.58      17363.2     78.24432     155.9305     312.0163      1.830     3.96     828.1013     55.01984     1312.943        46     1.676     1.190  47.14   0
         2    924.6701     17.8679 307.5551930  +6.6939577     3767.342     6124.331     6223.341     78.24432     156.2408     312.1095      1.729     3.89     812.6721     55.01984      554.103        31     1.554     1.055  49.46   0
         3    523.2072     18.1662 307.7219842  +6.6804180     2676.428     4577.434     4994.698     77.74753     155.9305     311.9232      1.883     4.01     816.6683     55.01984     395.0785        25     1.418     1.003  46.57   0
         4    725.6513     16.3499 307.6379340  +6.6879403     1735.306     2711.278     3146.767     78.36803     155.9926     312.0784      1.717     3.92     816.1317     55.01984     303.7888        18     1.373     0.925  47.94   0
         5    461.4146     16.8381 307.7477019  +6.6788961      1692.09     2640.523     2648.409     77.99632     155.9305     311.8611      1.723     4.21     818.3129     55.01984     230.6775        17     1.366     0.818  49.08   0
         6    989.3820     14.1658 307.5284297  +6.6976433     1701.642     2918.466     3652.634     77.74753     155.9305     311.9542      1.951     4.35     809.7125     55.01984     251.6514        15     1.320     0.740  55.09   0
         7    708.6941     10.5610 307.6451741  +6.6897631     6801.455        10949     11357.87     78.36803     156.0547     312.2336      1.738     3.93     816.0558     55.01984     906.5885        34     1.556     1.046  44.45   0
         8    628.9685      9.8785 307.6783217  +6.6873789     3281.004     5323.906     5512.971     78.12042     156.1168     312.1095      1.754     3.91     816.1876     55.01984     483.9343        25     1.596     0.863  51.57  16
         9    330.7916      9.5051 307.8022186  +6.6775428     951.8213     1719.097     1815.009     77.99632      155.744     311.8921      1.804     4.91     826.8019     55.01984     161.9797        16     1.374     0.960  59.60   0
        10    429.1395      6.1598 307.7614711  +6.6822222     5674.648     9412.567     9942.889     78.24432     156.1168     297.6527      1.746     3.97     820.2936     55.01984     834.7203        32     1.562     1.041  50.19  24
        11     30.0939      5.6026 307.9272763  +6.6690476     7623.852     12663.59     13241.63     77.87202     155.8062     292.1009      1.753     3.91     829.6227     55.01984     1044.312        39     1.614     1.104  44.03  16
        12    675.4525      4.6756 307.6591834  +6.6910813      819.535     1194.667     807.6043     78.24432     156.1788     282.1139      1.453     2.76      815.967     55.01984     140.0389         8     0.906     0.594  14.40  16
        13    326.0340      1.9080 307.8044516  +6.6805190      9253.74     12981.48     13636.88     74.56761     132.2675     244.0798      1.467     4.02     827.0616     55.01984     1574.852        28     1.482     0.887  16.46  24
        14    504.8675      3.1672 307.7301090  +6.6859951     843.5638     1111.016      995.947     78.12042     147.2395     262.6608      1.369     4.50     816.5405     55.01984     120.3338         8     0.868     0.664  36.31  16
        15     99.4481      1.9074 307.8985884  +6.6729065     2072.984     2997.282     3226.219     74.43759     132.2675     244.0798      1.557     3.96     826.4792     55.01984     327.7802        16     1.315     0.770  25.39  24
        16    384.5190      7.9876 307.7799479  +6.6799716     713.1003     1119.142      1606.43     77.87202     155.8062     310.4913      1.384     3.82     823.3641     55.01984     102.2103         6     0.839     0.498  86.76   0
        17     90.6660      1.2627 307.9022587  +6.6728772     728.7853     1129.602     1358.345     67.18731     123.0871     233.7819      2.079     4.23     826.6573     55.01984     157.7364         7     1.296     0.393   9.22  25
        18   1006.8856    990.7120 307.4884539  +6.2951047     3767.025     7074.439     7358.064     77.99632     156.3648     312.2646      2.009     4.67     841.5341     55.01984     426.7108        38     1.857     1.171  51.99   0
        19    749.2729   1022.3423 307.5943450  +6.2734575       1207.7     1901.104     1909.378     78.36803     141.9469     255.5196      1.709     4.80     848.4606     55.01984     144.1708        15     1.135     0.977  65.13  24
        20    572.5665   1023.7733 307.6676559  +6.2669619     1004.778     1323.534      1670.82     66.46251     122.3768     233.0348      1.210     3.42     851.0266     55.01984     229.0919         6     0.920     0.416   3.35  24
        21    885.1000    991.1882 307.5389996  +6.2908499     10049.65     19150.85     20987.98     77.99632     155.8684     311.9232      2.052     4.33     845.1676     55.01984     1194.694        60     1.854     1.421  43.35   0
        22    597.4944    991.3837 307.6583955  +6.2811659     1264.414     2231.602     2383.981     77.99632     155.9305     311.9853      1.827     6.85     850.1949     55.01984     155.8514        16     1.626     0.809  40.52   0
        23    529.2187    990.1234 307.6867827  +6.2794024     3442.438     6219.824     7387.865     77.74753     155.8684     312.1095      1.982     4.16     850.7761     55.01984     522.4358        35     1.726     1.122  32.39   0
        24    638.8222    989.2714 307.6413091  +6.2834194     1119.023     2054.565     1986.918     77.87202     155.9305     312.1405      1.918     6.51     849.7693     55.01984     153.6793        17     1.538     0.856  51.34   0
        25     63.9243    988.6633 307.8799923  +6.2644010     841.7421     1530.913     1661.051     78.49154     156.1168     312.1095      2.156     5.89     847.9802     55.01984     118.9036        10     1.290     0.758  58.17   0
        26    482.5088    986.8020 307.7062860  +6.2792101     1891.746     3225.791     3362.936     77.49794     155.8062     311.9232      1.850     5.44     850.7902     55.01984     247.5345        26     1.857     0.909  45.29   0
        27    916.8879    978.8322 307.5262162  +6.2970102     35644.81     65459.27      72629.8     78.36803     155.9305     312.1405      1.995     4.32     844.4028     55.01984     3947.929        88     1.939     1.416  45.53   0
        28    224.0412    977.0956 307.8139137  +6.2745536     1452.544     2458.504     2129.449     78.24432     156.0547     312.2646      1.730     4.23     849.9587     55.01984     222.4306        18     1.419     0.823  52.96   0
        29    111.9168    975.8399 307.8605025  +6.2713070     618.0723     812.1921     303.0339     78.24432     156.1168     312.1094      1.423     3.50     847.6494     55.01984     100.3713         5     0.748     0.679 -15.98   0
        30    622.8604    974.8935 307.6484187  +6.2888211     784.9985     1068.252     955.7834     78.12042     156.0547     312.1715      1.519     4.56      849.722     55.01984     109.0393         7     0.897     0.658  55.02   0
        31    814.6498    972.5620 307.5688726  +6.2961889     1935.779     3299.898     3580.962     77.99632     156.1168     312.0474      1.818     4.46     845.6753     55.01984     236.6318        25     1.462     1.136  60.32   0
        32    763.0621    970.3733 307.5903636  +6.2953707     5635.151     10047.74     11469.99     77.87202     156.1168     312.0784      1.970     4.20     847.0698     55.01984     735.8593        42     1.787     1.174  43.56   0
        33    549.5165    969.4321 307.6790516  +6.2886227     868.8391     1286.364     1487.463     78.24432     155.9305     312.0474      1.779     5.37     850.2451     55.01984     104.5782        11     1.278     0.636  46.35   0
        34    232.3815    969.2141 307.8107172  +6.2780869     1289.992     2212.104     2457.109     77.87202     155.8062     312.0474      1.909     5.40     849.7149     55.01984      150.014        17     1.486     0.816  50.67   0
        35    951.2828    965.5902 307.5123797  +6.3036229     5512.839     9896.761        11071     77.87202      155.744     311.9853      1.947     4.33     843.1414     55.01984     658.4687        45     1.849     1.256  47.77   0
        36    196.9297    969.0513 307.8254400  +6.2769642     707.9564     1173.784     1226.677     78.12042     156.0547     312.1715      1.608     3.96     848.8688     55.01984     119.4995         5     1.308     0.342  32.69   0
        37     57.2550    967.4265 307.8834782  +6.2729430     2335.433     4403.167     4621.519     77.87202     156.1788     311.9853      1.948     4.87     847.6837     55.01984     290.4429        30     1.707     1.116  39.17   0
        38    207.2676    961.5560 307.8214011  +6.2804052     609.6065     897.2767     561.5087     78.24432     156.0547     312.1715      1.262     2.87     848.9349     55.01984     106.7831         5     0.706     0.474 -16.69   0
        39    633.2444    959.3958 307.6446281  +6.2955656     752.4622     1241.398     1381.072     77.62283      155.744       311.83      1.880     4.44     849.3486     55.01984     107.4656        10     1.025     0.755  40.81   0
        40    924.9174    957.1347 307.5236092  +6.3062347     1826.226     3195.581     3227.872     78.36803     156.3648     312.2025      1.880     4.46     843.3883     55.01984     218.2028        23     1.431     1.136  42.64   0
        41    645.6711    953.0833 307.6396810  +6.2985867     3899.316     6760.697     7003.963     78.49154     156.3648     312.1715      1.819     3.90     849.0373     55.01984     523.4377        35     1.706     1.093  48.47   0
        42    784.5524    953.8401 307.5819960  +6.3029129     1164.525     2156.173      2671.71     78.12042     156.1168     311.9542      2.085     5.16     846.1459     55.01984     207.6989        16     1.508     0.806  35.92   0
        43    257.9026    953.2891 307.8006592  +6.2855168     4021.178     6732.475     6749.647     78.24432     156.5505     312.1405      1.800     4.07     849.4316     55.01984     492.5709        32     1.645     1.059  47.04   0
        44    467.9568    951.7335 307.7135070  +6.2931990     1034.692     1696.457     1761.561     78.24432     156.0547     312.1715      1.740     5.20     849.8655     55.01984       162.34        13     1.359     0.730  66.59   0
        45     26.7339    950.7748 307.8967110  +6.2787903     1874.166     3349.177     4012.782     77.87202     156.0547     312.0474      1.996     4.38     847.7467     55.01984     241.8812        23     1.438     1.005  41.69   0
        46    877.1501    949.7997 307.5436870  +6.3076701     743.1553     1533.237     1537.426     77.49794      155.744     311.7057      2.032     4.92     844.2944     55.01984     107.8553         7     1.422     0.483  39.35   0
        47    570.3065    945.6872 307.6712185  +6.2991200     1571.562     2500.767     2291.951     78.24432     156.5505     312.2025      1.694     4.68     849.6954     55.01984     231.7721        16     1.419     0.804  46.83   0
        48    293.7024    946.3846 307.7860297  +6.2895678     777.1344     1055.024     1484.129     78.24432     155.8684     311.9232      1.515     4.63     849.7061     55.01984     129.7249        11     1.235     0.672  27.81   0
        49   1001.3561    945.7115 307.4922556  +6.3134971     632.7346     1329.373     1821.232     78.24432     155.9926     312.1715      2.249     4.02     842.0198     55.01984     71.19775         6     0.915     0.506  46.85   0
        50    609.6042    942.0963 307.6550240  +6.3019165     1068.071     1605.953     1411.688     77.99632     155.8062       311.83      1.557     5.44     849.5154     55.01984     165.6403        15     1.541     0.749  33.87   0
        51     58.8343    942.2824 307.8836720  +6.2833750     652.6389     1063.483     1806.192     78.24432     156.1168     312.1095      2.352     5.81     847.2936     55.01984      92.4679         7     1.414     0.671   2.41   0
        52    289.4488    939.8030 307.7880174  +6.2921419     1333.734     2227.893     2493.226     77.62283     155.8684     311.7368      1.755     4.43     849.5781     55.01984      198.563        17     1.215     0.997  50.17   0
        53    756.5643    935.4547 307.5942328  +6.3095682     661.2391     1197.921     1599.974     78.12042     156.1168     312.1715      1.993     5.05     846.6787     55.01984     89.20728         8     1.110     0.649  77.41   0
        54    893.9026    932.4116 307.5373142  +6.3154066     6130.974      10885.6     11539.34     77.99632     155.8684     311.9542      1.883     4.31     843.3411     55.01984     783.0897        40     1.713     1.141  47.07   0
        55    429.8161    929.6230 307.7300856  +6.3010489     1893.489     3436.597     3983.309     77.99632     155.9305     312.0474      1.950     4.52     848.9676     55.01984     253.3436        21     1.495     0.919  37.36   0
        56    331.3998    927.8989 307.7710023  +6.2984626     8471.138     14347.26     15809.54     77.74753      155.744     311.7368      1.824     3.80     849.3426     55.01984     1161.229        41     1.645     1.138  47.03   0
        57    251.4342    926.8927 307.8042345  +6.2961959     6319.556     10894.85     11229.47     78.36803     155.9926     312.2025      1.857     4.05      848.538     55.01984     830.5575        41     1.684     1.169  43.96   0
        58    763.9354    921.6162 307.5916367  +6.3155269     660.7951     929.4465     1258.471     77.74753     155.9926     312.0163      1.561     6.23     846.3129     55.01984     107.4582         9     1.233     0.919  43.68   0
        59    579.4737    921.0616 307.6682402  +6.3095920     1130.297     1600.872     1518.208     78.36803     156.1168     312.1405      1.492     2.75     849.1219     55.01984     181.0702        10     0.958     0.633  31.62   0
        60    909.1657    917.2089 307.5314864  +6.3221912     946.1691      1556.72     1514.178     77.74753     155.9305     311.9853      1.667     6.00     842.6168     55.01984     129.8386        12     1.153     0.878  53.81   0
        61    866.2377    916.6064 307.5493299  +6.3210085     609.0709     996.3229     1655.838     77.37284     155.8684     311.8921      1.899     3.95     843.7648     55.01984     106.4313         6     0.926     0.483  38.29   0
        62    141.9225    916.5076 307.8500488  +6.2968063     608.0637     934.2089     925.3301     77.99632     156.3648     312.1715      1.360     3.71     847.0837     55.01984     79.89642         6     0.793     0.500   0.95   0
        63    407.4350    914.6199 307.7398825  +6.3064923     576.3149     787.7777     1214.352     77.74753     155.9305     311.9232      1.764     4.64     848.6928     55.01984     84.29755         5     0.983     0.771  89.65   0
        64    977.8073    913.9009 307.5030976  +6.3258443     679.0533      1047.86     1425.919     77.99632      155.744     311.9542      1.725     2.63     841.4562     55.01984     109.5667         5     0.758     0.495 -38.25   0
        65    745.9303    910.3763 307.5994892  +6.3195655     1481.878     2320.131     2806.577     77.87202     155.9926     312.1095      1.767     4.31     846.7339     55.01984     181.1613        15     1.151     0.904  46.60   0
        66    977.5352    906.7402 307.5034503  +6.3287912     1166.279     2033.976     2247.902     78.36803     156.0547     312.1715      1.801     6.43     841.1511     55.01984     154.1965        15     1.477     0.787  43.13   0
        67    610.2649    906.9005 307.6559322  +6.3164673     628.8395     1221.217     967.0436     78.24432     156.2408     312.1095      1.994     3.68     848.6761     55.01984     120.7235         6     1.097     0.904  69.75   0
        68    531.0171    906.3088 307.6888542  +6.3140608     1108.237     1495.594     1603.715     77.99632     155.8684     312.0474      1.494     4.38      848.615     55.01984     142.7742        13     1.162     0.860  61.75   0
        69    664.4316    903.9066 307.6335436  +6.3195138      2248.99     3884.518     4325.772     78.36803     155.9305     312.1715      1.772     4.37     847.7725     55.01984     320.2352        26     1.612     0.983  42.96   0
        70    825.5332    900.4329 307.5667723  +6.3263272     875.1281      1544.81     1728.227     78.12042     156.1788     312.1095      1.854     6.95     844.2138     55.01984     115.4821        15     1.521     0.891  24.65   0
        71    204.7945    899.1293 307.8245336  +6.3060910     1976.401     3135.372      3308.35     77.74753      155.744     312.0163      1.660     4.44     847.6744     55.01984     268.7179        20     1.483     0.890  54.13   0
        72     78.3758    899.2985 307.8770113  +6.3017748     1788.593      3072.57     3408.381     78.36803     155.8684     311.9542      1.931     4.72     845.8445     55.01984     254.2117        21     1.573     0.924  46.66   0
        73     60.9252    899.8427 307.8842376  +6.3009636     2468.653     4313.747      4616.17     78.12042     156.1788     312.1715      1.884     4.27     845.8478     55.01984     344.6345        23     1.471     0.994  57.08   0
        74    942.5695    899.3497 307.5182154  +6.3306770     648.7267     1043.776     783.4464     77.87202     156.2408     312.0474      1.818     3.46     841.6876     55.01984     118.5153         5     0.957     0.446 -11.58   0
        75    238.1611    895.6440 307.8107986  +6.3086496     715.3806     972.7017     1167.635     77.99632     156.1168     311.9853      1.500     5.08     848.1891     55.01984     106.3909         8     0.938     0.779 -85.45   0
        76    659.1516    892.9508 307.6361037  +6.3238599     6070.288     10139.48     10648.53     78.24432     155.9926     312.1405      1.770     3.80      847.644     55.01984     869.2361        37     1.584     1.103  45.13   0
        77    796.6645    893.7576 307.5789823  +6.3281194     677.2483     1137.867     767.4678     78.24432     156.0547     312.1715      1.769     3.37     844.8788     55.01984     111.6681         6     0.767     0.544  42.59   0
        78     19.5409    891.5461 307.9016985  +6.3029968     981.5527     1773.098     1556.901     78.36803     156.0547     312.1405      1.876     6.89     845.2656     55.01984     125.9836        15     1.785     0.747  37.68   0
        79    896.9871    889.3993 307.5374746  +6.3332651     2417.486     4218.545     4504.946     77.87202     155.8062     311.9542      1.942     5.37     842.4294     55.01984     310.5009        30     1.727     1.118  44.51   0
        80     31.9775    889.8984 307.8965912  +6.3040952     996.8013     1767.937     2134.161     78.24432     155.8684     311.9542      2.075     4.60     845.2224     55.01984     125.9308        13     1.237     0.783  22.59   0
        81    342.1925    886.1677 307.7679275  +6.3160507     14417.04     24360.12      27315.8     77.74753     155.9926     311.9542      1.845     4.09     848.8604     55.01984     1991.963        57     1.759     1.220  43.05   0
        82     76.5579    887.1512 307.8781763  +6.3067279     1135.359     2009.471     2230.174     78.24432     156.0547     312.0784      2.019     5.06      845.437     55.01984     137.7164        17     1.412     0.891  34.33   0
        83    213.0419    885.3530 307.8215743  +6.3120545     1027.935     1834.186     1773.894     78.24432     156.1168     312.0163      1.703     5.47     847.7383     55.01984     153.6689        12     1.523     0.609  42.52   0
        84    392.3062    885.1882 307.7471545  +6.3181346     604.5823     1018.686     1139.244     77.99632     155.8684     311.9542      1.881     5.12     848.4103     55.01984     95.59558         6     1.335     0.556  49.68   0
        85    419.7340    877.2396 307.7360346  +6.3223347       985.02     1656.006     1381.832     78.24432     156.0547     312.2646      1.769     5.79      848.002     55.01984     120.1283        13     1.189     0.896  50.57   0
        86    105.4572    876.7562 307.8665296  +6.3119900     1366.509     2273.174     2483.547     78.12042     156.1168     312.1405      1.756     4.57     845.5069     55.01984     180.8272        16     1.330     0.944  37.49   0
        87    500.7232    874.1538 307.7025131  +6.3263204     694.2209     1202.875     1335.207     78.12042     156.1788     312.1405      1.781     6.09     847.8304     55.01984     108.1727         9     1.278     0.816  51.69   0
        88    673.3050    872.9969 307.6308974  +6.3325699     743.2599      1307.67     1858.139     77.99632     155.8062     311.8921      1.820     5.83     847.1813     55.01984     126.4816        10     1.304     0.733  50.02   0
        89    887.5028    870.9204 307.5420317  +6.3405771     1737.732     3049.716     3509.874     77.99632     156.3648     312.1715      1.843     4.24     842.1382     55.01984     264.7452        21     1.457     0.922  40.61   0
        90    858.1421    870.6930 307.5542301  +6.3396918     1631.436     2813.166     3269.919     78.12042     156.0547     312.2646      1.937     4.40     842.4561     55.01984     205.2968        23     1.425     1.059  40.02   0
        91    821.2770    870.0072 307.5695596  +6.3387450     2685.671     4382.052     5091.319     77.87202     155.6196     311.9542      1.836     4.05     843.6371     55.01984     375.1575        26     1.537     0.960  44.44   0
        92     88.8933    870.3411 307.8736229  +6.3140814     2142.555     3269.495     3761.589     78.12042     156.0547     312.2646      1.668     3.89     845.0731     55.01984     284.3752        22     1.347     1.019  46.73   0
        93    557.2817    861.4078 307.6794591  +6.3334746     297168.1     500646.7     540781.6     77.87202      155.744     311.9853      1.832     4.07     847.0729     55.01984     42389.92       198     1.973     1.427  47.15   0
        94    451.2953    867.3765 307.7232629  +6.3274632     541.6599     1009.937     1607.602     78.36803     155.8684     312.0163      2.222     5.37     847.8479     55.01984     82.33246         8     1.591     0.511  65.27   0
        95    401.4510    863.9083 307.7440743  +6.3272252     7068.354     11656.93     12343.02     78.12042     155.9926     312.3266      1.802     4.01     847.9906     55.01984     992.0931        39     1.641     1.067  49.41   0
        96    644.9255    864.0383 307.6429813  +6.3353195     1137.938      1838.14     1970.281     78.12042     156.1788     312.2025      1.758     4.55     847.1782     55.01984     156.3545        14     1.276     0.787  55.78   0
        97    344.6713    862.4181 307.7676984  +6.3259374     11335.25     19067.02     20242.34     77.74753     155.9926     312.0784      1.816     4.08     848.5327     55.01984     1485.275        52     1.789     1.179  39.03   0
        98    895.3493    857.5747 307.5392209  +6.3463479     4554.867      8035.75     9401.652     77.87202     156.1168     312.0474      1.989     4.37     841.9019     55.01984     595.0919        40     1.841     1.283  20.86   0
        99    663.0958    858.5405 307.6356217  +6.3381963     3193.276     5223.997     5260.648     78.12042     156.1168     312.2336      1.722     4.06     847.0417     55.01984     462.3215        24     1.518     0.896  49.12   0
       100    734.9015    855.2704 307.6059175  +6.3419451     564.7424     815.1841     997.0668     78.12042     156.3028     312.1095      1.582     3.43     846.3829     55.01984     82.77863         5     0.996     0.341  44.38   0
       101    638.0046    852.6328 307.6462380  +6.3397964     2998.341     5190.238     6270.358     77.62283     155.9926     311.9542      1.830     4.06     847.0857     55.01984     388.4464        25     1.517     0.979  60.21   0
       102    826.3628    851.8203 307.5680578  +6.3464223      1460.44     2378.689     2608.431     77.87202     155.8684     311.8921      1.839     4.75     843.3054     55.01984      206.667        15     1.400     0.753  54.91   0
       103    952.7226    850.5233 307.5156349  +6.3511712     629.4008     1022.163     893.8115     78.49155     156.3648     312.2025      1.645     5.10     840.3488     55.01984     99.36005         8     1.295     0.569  77.74   0
       104    627.7546    851.0045 307.6505485  +6.3401259      810.077     1418.422     1945.313     77.62283     155.8062       311.83      1.883     4.41     847.1074     55.01984     132.2135         9     1.131     0.708  75.65   3
       105    630.8378    847.1949 307.6493964  +6.3418016     1967.233     3165.696      4099.16     77.37284     155.8684     311.8921      1.906     4.13     847.0489     55.01984     295.1794        22     1.446     0.975  58.07   2
       106    914.3848    845.3549 307.5317265  +6.3520269     2826.371     4677.062     4908.547     77.74753     155.9305     311.9232      1.783     4.20     841.5508     55.01984     390.7374        26     1.479     1.080  58.04   0
       107    324.4961    846.2972 307.7766180  +6.3319155     816.5729      1432.24     1226.885     78.24432     156.6742     311.9853      1.867     5.37     848.0383     55.01984     141.4868        11     1.380     0.589  52.15   0
       108    372.4131    841.1949 307.7568954  +6.3356280     2338.888     3897.813     4317.527     77.87202     155.8684     312.0163      1.739     4.18     847.7396     55.01984     316.5404        22     1.442     0.931  56.38   0
       109    508.8609    831.0004 307.7005859  +6.3444064     2716.941     4555.604     4723.542     77.49794     155.8684       311.83      1.764     4.15     846.9408     55.01984     358.5482        23     1.490     0.933  50.93   0
       110    853.3635    829.9164 307.5575810  +6.3563651     946.9789     1608.041     2322.157     78.24432     156.0547     312.0784      1.795     5.53     842.3726     55.01984     163.2737        11     1.278     0.674  53.21   0
       111    574.1655    828.7922 307.6735454  +6.3475030     578.0679     898.1415     600.6646     77.74753     155.9305     311.9232      1.359     3.48     846.7894     55.01984     97.00073         5     1.103     0.318  79.50   0
       112    555.7383    827.1284 307.6812524  +6.3475734     5332.108     8997.102      10314.1     78.36803     156.1168     312.2025      1.787     4.09     846.6896     55.01984     746.5402        34     1.623     1.053  47.83   2
       113    562.7368    826.5900 307.6783647  +6.3480298     1229.208      2105.62     2838.233     77.74753     155.9305     311.9542      1.978     4.75     846.7197     55.01984     174.2923        15     1.362     0.806  23.36   3
       114    473.4403    826.2037 307.7154539  +6.3452006     1326.247     2313.461     2384.067     77.49794     155.8684     311.8921      1.827     4.70     847.0402     55.01984     182.2548        18     1.432     0.908  63.68   0
       115    890.9993    825.4625 307.5421031  +6.3594589     1271.327     1833.977     1747.366     77.49794     155.9305       311.83      1.594     3.97     841.5286     55.01984     169.6582        13     1.108     0.801  46.56   0
       116    115.2371    825.2063 307.8642100  +6.3335975     1192.194      2041.63     2267.687     77.37284     155.8684     311.8921      1.916     5.60     844.6257     55.01984     156.8187        18     1.421     1.003  47.24   0
       117    691.1634    823.9905 307.6251280  +6.3533964     728.4731     1117.263      969.779     77.74753     155.8684     311.8921      1.446     2.80     846.1907     55.01984     146.6113         6     0.896     0.434  51.44   0
       118    526.3504    821.0749 307.6936580  +6.3490889     17894.61     30036.82     31975.46     78.24432     156.1788     312.1715      1.796     3.96     846.6845     55.01984     2590.178        59     1.720     1.253  44.85   0
       119    367.0328    822.5797 307.7597562  +6.3431319     727.6357     995.2733     837.5142     77.74753     155.9305     311.9853      1.754     4.98      847.285     55.01984     103.9537         8     1.174     0.597  43.59   0
       120    172.8218    820.9203 307.8404466  +6.3373010     605.3028     863.0135     838.2296     77.87202     155.8062     312.1095      1.597     6.87     845.6055     55.01984     84.13501         8     1.339     0.987  56.77   0
       121    940.0511    819.3585 307.5219401  +6.3636139     3264.313     5860.264     6080.136     78.24432     156.1168     312.1405      1.920     4.43     840.1999     55.01984     408.3613        33     1.727     1.082  44.55   0
       122     36.8658    811.4417 307.8972130  +6.3366449     1278.817     2141.661     1804.512     78.24432     156.0547     312.2025      1.783     4.97     843.3425     55.01984     202.7781        17     1.497     0.861  41.39   0
       123    319.0169    809.7340 307.7801250  +6.3468247     3019.326     5447.903     5628.816     77.74753     156.0547     312.0163      1.855     4.60     846.9744     55.01984     388.5726        31     1.687     1.051  46.99   0
       124    784.5629    805.6536 307.5869621  +6.3640851     49319.52     81912.23      88562.1     78.12042     156.1168     312.1715      1.819     4.05     844.0287     55.01984     6899.314        91     1.843     1.299  47.14   0
       125    580.9061    809.8157 307.6713845  +6.3555620     584.9135     1150.911     1324.052     77.99632     155.9305     311.9853      2.035     5.93     846.6053     55.01984     106.3405         7     1.407     0.702  37.51   0
       126     18.8522    807.7779 307.9048156  +6.3375514      1912.79     3344.388     3675.793     77.74753     156.1168     311.9542      1.830     5.00     843.1216     55.01984     250.0861        20     1.541     0.955  45.07   0
       127    723.1118    807.3676 307.6124205  +6.3613257     600.7762     996.4484     1347.116     78.36803     155.9305     312.1405      1.627     2.54     844.8732     55.01984     109.2363         5     0.726     0.439  20.23   0
       128    241.5252    803.1765 307.8125204  +6.3469319      4639.31     8304.172     10884.05     77.87202     155.9305     312.0784      2.269     4.51     846.0358     55.01984     578.8503        47     1.944     1.255  55.89   1
       129    427.7812    804.6768 307.7351363  +6.3525577     722.3604     1273.568     1067.242     77.74753     155.8062     312.1095      2.056     3.20     846.6275     55.01984      123.486         6     0.767     0.575  47.45   0
       130    909.8391    800.8831 307.5351039  +6.3702336      7417.45     12569.02     13938.55     78.24432     156.0547     312.1095      1.823     4.03     840.7211     55.01984     917.7839        41     1.754     1.080  42.49   0
       131    712.5032    800.1318 307.6170683  +6.3639583     19748.67     34889.98     39074.37     78.12042     156.2408     312.1095      1.917     4.28     844.9794     55.01984     2570.938        48     1.728     1.168  51.18   3
       132    706.4371    796.6660 307.6197035  +6.3651863     79735.31     131681.4     142844.3     78.12042     156.0547     312.2025      1.813     4.02     845.1221     55.01984     10945.62       108     1.892     1.334  49.93   3
       133    351.3243    797.5628 307.7671211  +6.3529321     18739.71      30879.5      32954.8     78.12042     156.1788     312.1715      1.799     3.91     846.6058     55.01984     2609.639        58     1.768     1.179  45.10   0
       134    400.4957    797.7463 307.7466987  +6.3545044     1224.518     1905.458     2195.464     78.12042     156.1168     312.3887      1.574     5.18     846.4663     55.01984     158.6831        12     1.306     0.652  53.38   0
       135    413.2798    795.4178 307.7414691  +6.3558939     19754.62     32976.44     35344.96     77.87202     155.8062     312.0474      1.792     3.93     846.2973     55.01984     2877.667        59     1.764     1.223  43.23   0
       136    639.9810    796.7267 307.6472955  +6.3629404     810.4271     942.5391      1552.83     77.87202     156.0547     312.0474      1.426     5.90     846.3209     55.01984     104.9572        11     1.075     0.911  30.94   0
       137    241.4065    781.9927 307.8132841  +6.3556723     752824.9      1941796      2228844     77.62283     155.9305     311.9853      2.463     7.03     845.6672     55.01984     63281.34       611     2.595     2.120  49.04   4
       138    950.1271    794.2000 307.5185989  +6.3743353     1783.807     3175.111      3364.86     77.49794     155.6196     311.9853      1.892     4.97     839.1033     55.01984     235.0846        21     1.507     0.937  48.06   0
       139    906.7377    792.3093 307.5366790  +6.3736695     5865.132     9893.834     11122.75     78.24432     156.2408     312.2025      1.859     4.14     840.4832     55.01984     726.3665        38     1.721     1.059  45.66   0
       140    879.0836    792.7796 307.5481461  +6.3725532     788.1257     1147.226     733.1686     77.99632     155.8062     312.0784      1.574     5.82     841.3426     55.01984     97.65686        10     1.341     0.711  45.98   0
       141    647.2163    791.3585 307.6444715  +6.3653983     5717.214     9535.774     9833.534     77.74753     155.9305     311.9232      1.783     4.03     846.0404     55.01984      821.278        36     1.593     1.109  45.52   0
       142    435.9428    789.2288 307.7322675  +6.3592079     1546.819     2637.773     2015.777     77.87202     156.1788     312.0474      1.672     4.06     846.0207     55.01984     264.2745        17     1.447     0.765  51.70   0
       143    160.9259    788.7540 307.8464713  +6.3501793     765.5327     1116.802     1458.567     78.12042     156.1788     312.1405      1.637     4.15     844.8452     55.01984     123.8685         8     1.128     0.563  15.68   0
       144    600.4304    783.6036 307.6641587  +6.3670352      819.047     1145.584     1005.508     77.74753     155.9926     311.9853      1.602     5.90     845.8335     55.01984     152.2871        11     1.645     0.760  38.86   0
       145    682.5359    781.6191 307.6301331  +6.3705991     2210.209     3610.936     3728.953     77.87202     156.1168     311.9853      1.766     4.77     845.3071     55.01984     275.0497        24     1.642     0.909  40.78   0
       146    126.5878    782.1825 307.8609501  +6.3517384     873.3345     1598.749     1827.003     77.99632     155.8062     312.0474      1.851     6.59     844.1896     55.01984     139.9759        14     1.509     0.854  57.25   0
       147    875.0258    782.7809 307.5501662  +6.3765454       573.88     897.4692     320.0538     77.74753     155.9305     312.0474      1.523     2.62     841.1758     55.01984     118.6315         5     0.773     0.483  53.52   0
       148    151.5420    782.2382 307.8505874  +6.3525537     826.8093     1410.861     1741.199     78.24432     156.1788     312.1715      1.780     3.57     844.5637     55.01984     133.3926         8     0.965     0.755  27.90   0
       149    416.1725    778.0697 307.7408521  +6.3631520     47868.16     80559.34     87119.17     77.87202     155.9926     312.0784      1.803     3.88     845.5385     55.01984     6973.388        87     1.827     1.308  43.85   0
       150    533.8757    777.0580 307.6920137  +6.3675108     6397.075      10457.4     11217.42     78.36803     156.1168     312.1095      1.754     3.85      845.401     55.01984     879.7038        38     1.667     1.039  44.93   0
       151    779.1619    773.7206 307.5902761  +6.3770869     10400.46     17386.92      18535.9     78.12042     156.1788     312.1405      1.806     4.04     843.0048     55.01984      1365.94        51     1.803     1.145  46.63   0
       152    450.6214    775.6419 307.7266302  +6.3653081     4005.823     6718.753     7631.887     77.87202     155.9305     311.9853      1.828     4.50     845.4517     55.01984     522.3687        34     1.744     1.045  42.82   0
       153      8.4914    769.6324 307.9104067  +6.3529486     1011.897     1676.321     1464.917     78.36803     155.9305     312.1715      1.777     5.46     842.9843     55.01984     129.2462        13     1.383     0.770  45.40  16
       154    447.2285    769.1041 307.7282590  +6.3678933     2068.901     3333.466     3206.597     78.36803     155.8684     312.1095      1.707     5.08     845.1434     55.01984     282.2149        20     1.420     0.924  53.27   1
       155    144.8701    765.9711 307.8539067  +6.3590444     2639.631     4655.145     5678.527     77.99632     156.1168     312.0784      1.957     4.40     844.1932     55.01984     337.0554        25     1.513     1.015  40.47   3
       156    128.9260    756.4202 307.8608492  +6.3624512     1835.975     3098.459     3557.644     77.87202     156.0547     312.0784      1.950     4.66     843.9017     55.01984     270.9192        19     1.443     0.915  68.16   3
       157    136.8718    765.6756 307.8572376  +6.3588977     10277.82      17487.4     19686.77     78.49154     156.3648     312.1405      1.864     3.94     844.1086     55.01984         1325        48     1.715     1.168  46.38   3
       158    129.0592    763.0881 307.8605687  +6.3597033     2555.959     4738.854     5730.694     78.24432     156.1168     312.2336      2.073     4.98     843.9872     55.01984     352.4261        29     1.678     1.057  43.85   3
       159    800.6752    767.6516 307.5815466  +6.3803102     938.1552     1529.267     1241.706     78.24432     156.1788     312.1405      1.830     4.92     842.4016     55.01984     159.6276        11     1.238     0.865  35.01   0
       160    924.7008    762.2870 307.5302259  +6.3866617     5649.278     9714.932     11341.55     78.24432     156.5505     312.2025      1.932     4.22     838.7591     55.01984     754.8178        39     1.768     1.077  45.47   0
       161    973.7992    762.1674 307.5098420  +6.3883474     1261.678     2307.816     3024.731     77.62283     155.9305     311.8921      1.872     4.53     837.4553     55.01984     173.8666        17     1.457     0.775  46.82   0
       162    680.1154    759.9031 307.6318674  +6.3794826     1567.294     2587.839     3081.018     78.24432     156.4886     312.2025      1.850     4.85     844.5472     55.01984     219.2853        17     1.420     0.948  61.90   0
       163    567.0009    759.1106 307.6788628  +6.3760278     1921.555     3132.907     3202.111     77.49794     155.6196     311.8921      1.693     4.57     844.6823     55.01984     286.7225        21     1.472     0.913  45.57   0
       164    414.8671    758.4564 307.7420546  +6.3712045     1216.161     1829.929     1789.759     78.36803     156.0547     312.1095      1.640     4.52     844.6665     55.01984     165.3308        10     1.029     0.704  60.20   0
       165    918.8665    754.3451 307.5329146  +6.3897457     2622.267     4498.891     4687.456     78.24432     156.0547     312.1405      1.873     4.37     838.6708     55.01984     336.4227        24     1.559     0.921  51.47   0
       166    979.0834    753.3361 307.5079434  +6.3921690     1760.385     2729.857     2793.511     78.36803     156.1788     312.1715      1.611     4.76      837.141     55.01984     240.1765        19     1.437     0.866  54.28   0
       167    948.2782    753.7936 307.5207199  +6.3909537      2708.26     4792.811     4520.215     77.87202     155.6196     311.9232      1.880     4.35     837.8605     55.01984     367.7709        27     1.557     1.050  41.45   0
       168    671.3371    753.6596 307.6357222  +6.3817666     1151.211     1891.573     2026.196     78.24432     156.0547     312.1715      1.686     5.43     844.4529     55.01984     164.2899        14     1.332     0.778  45.77   0
       169    818.3376    751.6796 307.5747481  +6.3874930     817.7786     1362.257     1342.646     78.36803     156.1788     312.1405      1.772     4.15      841.418     55.01984     137.4905         7     1.072     0.701  44.74   0
       170    243.8897    748.6783 307.8133767  +6.3695074     1547.767     2864.943     3696.094     77.99632     156.3648     312.2336      2.051     5.46     845.1987     55.01984     226.3718        20     1.662     0.801  48.02   0
       171    893.7017    749.5458 307.5435251  +6.3908878      721.277     1226.646     1813.181     78.12042     156.1168     312.3577      2.073     5.43     839.4945     55.01984     105.2958        10     1.114     0.746  56.00   0
       172    159.4182    743.8914 307.8486117  +6.3686472     695.7933     1117.315     997.4627     77.99632     155.8684     312.0163      1.908     6.15     843.8917     55.01984     86.75073         9     1.261     0.844  60.85   0
       173    936.5179    743.7354 307.5259403  +6.3947138      870.913     1407.401     1375.064     78.36803     156.2408     312.1405      1.730     5.24     837.7347     55.01984     132.9727        11     1.257     0.711  32.31   0
       174    263.6050    743.4483 307.8053670  +6.3723279     698.2509     1052.558     1118.415     77.62283     155.9305       311.83      1.737     4.26     845.2633     55.01984     106.5943         8     1.076     0.674  86.57   0
       175    963.1790    741.4851 307.5149446  +6.3965313     2268.508     3809.401     4411.628     77.99632     155.8062     312.0784      1.829     4.36     837.1713     55.01984     290.3844        25     1.517     1.015  54.75   0
       176    910.4520    742.3761 307.5368098  +6.3944060     995.5762     1625.968     2067.073     77.74753     156.1168     312.0474      1.708     5.33     838.5787     55.01984     122.3287        14     1.153     1.011  15.35   0
       177    682.7728    740.8959 307.6314023  +6.3874176     920.1626     1338.715     1903.675     78.36803     155.8684     312.0474      1.428     4.70     843.7741     55.01984     146.9104         9     1.046     0.599  54.02   0
       178   1004.8013    734.9368 307.4978800  +6.4006211     1432.942     2599.782     2983.006     77.62283     155.9305     311.9232      1.973     5.00     836.3436     55.01984     187.7954        20     1.535     0.917  47.89   0
       179    403.0681    735.8666 307.7477145  +6.3801341     642.1773     1090.089     1575.115     78.24432     156.1788     312.1715      1.787     5.98     843.8551     55.01984     84.99078         8     1.198     0.840  44.08   0
       180    632.0326    734.4149 307.6526894  +6.3883970     596.1484     831.5464     1242.309     77.87202     155.8684     312.0474      1.918     5.50     843.6511     55.01984     97.36652         7     1.219     0.705  48.31   0
       181    806.2927    733.3583 307.5803642  +6.3946541      1039.58     1635.918     1648.938     78.36803     156.0547     312.2336      1.761     4.43      840.894     55.01984     142.9478        12     1.198     0.743  19.95   0
       182    892.2786    730.7010 307.5447475  +6.3986196     1361.005     2258.982     2824.624     77.99632     156.4267     312.1715      1.813     4.59      839.011     55.01984     201.8693        18     1.351     0.985  38.47   0
       183    867.1901    726.0485 307.5553216  +6.3997035     894.5956      1451.68     1592.162     77.74753     155.9305       311.83      1.820     4.84     839.8287     55.01984     165.2997        11     1.358     0.626  48.66   0
       184    652.7703    724.8906 307.6443982  +6.3930219     545.6016     889.9424     828.1433     78.36803     155.8684     312.0784      1.429     4.38     843.2688     55.01984     86.33643         7     1.343     0.406  64.43   0
       185    849.3019    721.9249 307.5628880  +6.4008090     1371.362     2236.887      2665.23     77.87202     156.2408     312.1405      1.851     4.62     840.0242     55.01984     208.6646        15     1.359     0.765  38.20   0
       186     48.6536    720.9532 307.8953767  +6.3743931     2209.191     3791.792     4301.328     78.24432     156.1168     312.1715      1.820     4.35     843.2093     55.01984     318.2153        25     1.642     0.900  43.88   0
       187    112.7248    720.7092 307.8687820  +6.3766477      842.757     1685.114     1965.315     78.24432     156.3648     312.1715      2.228     4.37     843.4237     55.01984     135.2252        11     1.292     0.711  46.59   2
       188    566.1558    716.0002 307.6806632  +6.3937954     500.1041     543.4775     921.9544     77.49794      155.744     311.7679      1.361     4.01     843.0747     55.01984     72.23767         6     0.966     0.477  53.61   0
       189    703.4820    713.0812 307.6237369  +6.3995915     575.3642     741.6846     588.2631     78.24432     156.3648     312.2336      1.559     5.19     842.3309     55.01984     92.31195         5     1.088     0.701  18.96   0
       190    661.1976    709.6166 307.6414119  +6.3996087     5720.123     9398.538     9604.322     77.87202     155.6818     311.9542      1.741     3.87     842.6102     55.01984      819.088        34     1.578     1.079  44.95   0
       191    607.9009    708.9122 307.6635670  +6.3981176     1082.483     2103.782     2106.531     78.24432     156.5505     312.1715      2.042     6.56     842.8489     55.01984     176.2165        16     1.669     0.841  45.47   0
       192    529.4220    709.2010 307.6961453  +6.3953728      612.534     996.8613     736.9524     77.87202     155.8062     311.8611      1.877     4.97     842.8458     55.01984     82.42804         7     0.960     0.728 -39.67   0
       193    518.6156    708.8452 307.7006446  +6.3951581     589.3365     847.5222     890.2176     77.74753     155.9305     311.8921      1.496     3.51     842.8458     55.01984     110.8345         5     0.854     0.416  70.23   0
       194    124.2304    705.5032 307.8645183  +6.3833111     3347.782     5544.271     5981.919     78.36803     155.8684     312.1715      1.780     3.93     843.1769     55.01984     471.5059        27     1.588     0.939  49.45   0
       195    998.2966    704.6188 307.5015962  +6.4129199     2321.195     3890.167     4270.636     78.12042     155.9926     311.9232      1.801     4.51      835.649     55.01984     290.6091        26     1.529     1.129  59.14   0
       196    635.0701    705.2639 307.6524076  +6.4005321     1938.542     3328.159     3156.184     78.24432     156.1168     312.1405      1.765     4.39     842.5577     55.01984     268.1395        20     1.489     0.900  29.57   0
       197    311.1557    705.5680 307.7869000  +6.3895597     645.2246      1101.43     1480.891     77.99632     156.1788     312.0163      2.101     5.37     843.7351     55.01984     92.38452         7     1.144     0.712  35.27   0
       198    778.1226    701.7369 307.5931228  +6.4067672     18121.49     29741.13     31775.38     78.49154     156.1788     312.1095      1.766     3.93     840.8765     55.01984      2568.21        59     1.767     1.168  45.73   0
       199    246.9876    704.7781 307.8135711  +6.3877329     608.6451     971.2674     620.1482     77.99632     155.9305     312.0474      1.555     3.79     843.6345     55.01984     83.48578         5     0.816     0.505 -53.98   0
       200    477.4896    702.2919 307.7179423  +6.3964864     1200.096     2032.337     2309.607     78.24432     156.6124     312.2336      1.823     6.28     842.6216     55.01984     181.4866        15     1.342     0.826  45.01   0
       201    908.1281    701.3456 307.5391497  +6.4112662     3233.055     5313.296     5860.881     78.12042     155.9926     312.0784      1.747     4.14     837.8672     55.01984     453.3723        27     1.636     0.923  58.76   0
       202    505.4695    701.1154 307.7063635  +6.3979088     732.0101     1161.914     1077.094     78.49154     156.3648     312.1715      1.551     5.03     842.5856     55.01984     139.1061         9     1.355     0.563  48.30   0
       203    322.7681    701.4592 307.7822167  +6.3916453     716.8782     974.6706     880.9924     77.99632     156.1788     312.1095      1.347     4.23      843.455     55.01984     102.3391         7     1.065     0.479  50.39   0
       204    658.6492    694.4838 307.6429785  +6.4057703     6418.957     10536.17     11646.04     78.24432     156.1168     312.2336      1.815     4.16     841.9441     55.01984     895.4515        38     1.658     1.045  49.11   0
       205    251.5262    695.2580 307.8120077  +6.3918150     5571.164     9119.559      9204.22     78.24432     156.1168     312.1095      1.750     3.83      843.218     55.01984      820.843        36     1.596     1.121  48.57   0
       206    640.9986    695.5858 307.6502710  +6.4047254      847.574     1420.966     1867.358     77.87202     155.8062     311.9232      1.988     4.57     842.1713     55.01984     150.8877         9     1.144     0.628  48.42   0
       207    918.6735    686.9978 307.5352513  +6.4175406      1096.35     1699.574     1456.846     77.74753     155.6818     312.0163      1.540     3.86     837.3945     55.01984     191.4809        13     1.163     0.752  59.89   0
       208    730.4480    682.9439 307.6135510  +6.4129330     3193.396     5380.494     5790.126     78.24432     156.1168     312.2336      1.813     4.07      840.811     55.01984     438.2909        28     1.605     0.986  37.56   0
       209    685.5484    682.9845 307.6321947  +6.4114162     892.1411     1525.953     2060.317     77.62283     156.1788     311.8611      2.212     5.85     841.2139     55.01984     118.4695        11     1.232     0.783  45.07   0
       210    996.6497    679.5692 307.5031188  +6.4232057     8133.944     13823.79     15503.49     77.87202     156.1788     312.0474      1.860     3.97     835.0062     55.01984     1081.752        44     1.708     1.183  43.62   0
       211    935.1339    679.9453 307.5286521  +6.4210006     2219.049     3691.544     3776.418     78.24432     156.0547     312.1405      1.800     4.18     836.9366     55.01984     316.5759        21     1.445     0.881  53.51   0
       212     15.7678    679.3930 307.9104361  +6.3904423     1702.661     3003.206     3167.038     77.62283     155.9926     311.9542      1.916     4.29     843.0298     55.01984     229.0133        20     1.363     0.964  38.79   0
       213     74.0316    674.3642 307.8864137  +6.3944775      22752.4     38342.48     41704.48     77.87202     155.8684     311.8921      1.818     3.84     843.0337     55.01984     3164.694        67     1.801     1.266  45.29   0
       214    549.8558    677.9044 307.6887128  +6.4089758     458.7806      728.194     909.1794     78.12042     156.1168     312.3576      1.644     3.92     841.8374     55.01984     80.91919         5     1.344     0.328  59.31   0
       215    535.3685    675.3876 307.6948134  +6.4095299     1733.041     2887.487     2653.035     77.74753     155.9305     312.0474      1.710     4.08     841.7398     55.01984      269.929        20     1.433     0.888  45.71   0
       216    503.9630    672.6780 307.7079458  +6.4095972     1332.819     2238.346     2136.856     78.12042     156.1788     312.1405      1.881     5.32     841.6747     55.01984     175.9389        18     1.523     0.832  40.82   0
       217    924.6393    671.0524 307.5333081  +6.4243218     918.4611     1515.211     1420.989     78.12042     156.1168     312.1095      1.727     5.47     837.0626     55.01984     111.8795        11     1.111     0.760  53.46   0
       218    544.3304    668.9832 307.6913073  +6.4124736     866.7064     1481.984     1590.631     77.74753     155.9926     312.0474      1.900     5.06      841.536     55.01984     119.2574        12     1.254     0.809  58.32   0
       219    719.8383    666.5807 307.6185062  +6.4193333     3134.043     5112.386     5798.961     77.87202     155.9305     311.8921      1.738     3.87     840.2853     55.01984     444.6671        25     1.493     0.941  47.71   0
       220    742.1050    664.9361 307.6093147  +6.4207560     3627.108     6164.505     6475.887     78.12042     156.2408     312.1715      1.753     4.28     840.0576     55.01984     555.3499        28     1.593     0.961  44.13   0
       221    573.5267    662.6031 307.6793978  +6.4160841     2867.346     4675.705     4661.261     77.74753     155.6818     311.9853      1.806     4.16     841.3011     55.01984     397.8228        27     1.556     1.021  53.69   0
       222    409.6808    663.2626 307.7474137  +6.4103260     1195.174     1947.136     2012.462     78.36803     156.1788     312.1405      1.761     5.99     841.5192     55.01984     139.4489        15     1.356     0.812  45.91   0
       223   1014.9481    660.9539 307.4961431  +6.4314998     4397.064     7364.957     7803.901     78.36803     156.0547     312.2025      1.750     3.94     834.2981     55.01984     561.7957        36     1.639     1.063  44.81  16
       224    980.3768    659.8533 307.5105368  +6.4308024     7251.122     12171.94     13382.15     77.74753     156.1168     311.9542      1.823     3.93     835.2531     55.01984     955.9077        45     1.759     1.117  47.91   0
       225    317.4736    661.4466 307.7857639  +6.4079845     1370.298     2258.606      2305.93     78.12042     156.1788     312.1405      1.915     3.86     841.9382     55.01984     187.4116        16     1.297     0.829  54.78   0
       226    234.1441    662.2697 307.8203382  +6.4048487     1551.045     2555.354     2645.621     78.36803     155.9926     312.1095      1.716     3.66     841.9354     55.01984     238.8804        14     1.222     0.723  51.03   0
       227    700.3830    658.6576 307.6268514  +6.4219540      785.236     1326.218     2011.047     77.74753     156.0547     311.8921      1.951     5.42     840.1675     55.01984     112.2744        10     1.198     0.692  53.56   0
       228    138.7816    653.2496 307.8602408  +6.4053695     21457.16     35930.45      38150.9     77.74753     156.1788     311.9542      1.789     3.92     842.0684     55.01984     2819.162        60     1.744     1.207  44.66   0
       229     91.4620    656.3995 307.8797831  +6.4024790     863.9785     1224.091     1344.365     77.49794     155.8684       311.83      1.687     4.02     842.6819     55.01984     128.2648         8     0.991     0.592  46.63   0
       230    425.6225    654.0933 307.7411027  +6.4146452     2526.112      4431.28     5299.912     78.24432     155.9305     311.9853      1.949     4.41     841.1504     55.01984     324.4025        25     1.600     0.994  52.66   0
       231    806.9206    653.5856 307.5827795  +6.4276055     1064.157     1821.141     2011.277     77.87202     155.8684     311.9232      1.789     5.51     839.2192     55.01984     149.6554        17     1.537     0.884  57.61   0
       232    358.2226    648.0552 307.7692942  +6.4148788     686.3269     1420.649     1078.761     77.87202     156.1168     311.9542      2.007     5.60     841.2095     55.01984       97.526         9     1.401     0.631  44.26   0
       233    975.3643    642.9623 307.5131840  +6.4376081     5990.452     10662.41     11627.47     77.99632     155.9926     311.9232      1.941     4.50     835.1829     55.01984     801.8669        44     1.924     1.088  40.68   0
       234     19.8158    641.8699 307.9100239  +6.4060672     1035.073     1769.781     1460.117     77.74753     156.0547     312.0474      1.741     5.26     842.7963     55.01984     124.5192        13     1.225     0.787  47.72   0
       235    568.7879    638.1231 307.6821888  +6.4260309     42407.95     71048.88     76572.62     77.87202      155.744     311.9853      1.778     3.93     840.3831     55.01984     5941.847        76     1.778     1.255  46.47   0
       236    933.1484    639.2022 307.5308417  +6.4377534     524.4703     605.3459     521.7912     77.62283      155.744     311.7368      1.287     3.95     835.8719     55.01984     73.46063         6     0.784     0.569  41.55   0
       237    527.9699    638.6810 307.6991205  +6.4244347     589.3724     930.4914     332.5073     78.12042     155.9926     312.1095      1.666     4.90      840.499     55.01984     92.15375         6     1.393     0.488  36.50   0
       238    211.2291    639.1412 307.8306338  +6.4136265     531.3644     1002.021     1020.281     77.87202     156.1788     312.0474      1.988     3.90     841.4076     55.01984     95.71619         5     0.934     0.466  42.58   0
       239    793.7437    637.4881 307.5887916  +6.4338108     603.5595     807.3524      923.835     78.24432     155.9926     312.2646      1.320     4.15     838.7505     55.01984     92.41553         5     0.803     0.693  40.44   0
       240    176.2942    634.7184 307.8452897  +6.4142790     2548.299     4215.053     3857.502     77.99632     156.3648     312.2336      1.727     4.03     841.4076     55.01984     347.7543        25     1.460     0.982  45.59   0
       241    498.8555    634.7841 307.7113418  +6.4250686     598.8103     795.2249     450.5519     77.62283     156.0547     311.8611      1.383     4.88     840.3679     55.01984     108.9686         7     1.045     0.646  60.22   0
       242      7.2470    633.0709 307.9155404  +6.4092764     437.4232     519.2469      521.549     78.24432     156.1168     306.4086      1.392     3.87     842.8235     55.01984      79.4519         5     0.856     0.501  35.64  16
       243     68.7100    628.7730 307.8901640  +6.4131177     1285.663     2123.174     1906.232     78.36803     155.8684     312.0163      1.837     4.74     842.3087     55.01984     186.3458        14     1.369     0.717  37.03   0
       244    466.0565    621.9039 307.7253957  +6.4292873     55301.31     93107.76     100047.5     78.12042     156.1168     312.3576      1.813     3.98     839.9676     55.01984     7934.255        91     1.810     1.300  45.58   0
       245      9.6200    623.5888 307.9148757  +6.4132703     1574.998     2684.024     2795.978     77.87202     155.8062     312.0474      1.840     4.15      842.751     55.01984     219.5028        16     1.275     0.803  51.34   0
       246    652.0972    619.2992 307.6482254  +6.4365874     739.6026     925.6743     871.6649     78.24432     156.6124     311.9853      1.414     3.50     839.1252     55.01984     146.9652         9     1.124     0.669  40.23   0
       247    140.6077    616.8508 307.8607117  +6.4204556     1419.643       2375.7     2311.252     77.74753     155.9305       311.83      1.768     3.93     841.3291     55.01984     224.7407        16     1.235     0.897  38.16   0
       248    419.5796    614.9199 307.7449312  +6.4306132     725.8967     999.2346     702.9064     77.99632     155.8062     312.1405      1.514     3.56      839.858     55.01984     123.6188         7     0.931     0.574  35.72   0
       249    611.7422    613.5814 307.6651761  +6.4375984     732.3544     1155.687     1617.094     77.87202     156.0547     311.9232      1.780     5.67     839.2562     55.01984     112.4361         8     1.130     0.801 -19.84   0
       250    311.4604    611.2286 307.7899538  +6.4285122       1749.3     3312.728     3775.933     77.87202     156.1168     312.0784      2.030     4.70     840.3279     55.01984     254.5465        23     1.612     0.970  62.69   0
       251     12.0306    612.3885 307.9142534  +6.4179746     627.2979      895.938     1458.778     77.74753     155.8684     312.0163      1.462     4.47     842.6613     55.01984     96.27496         5     0.987     0.575  75.11   0
       252    463.4648    609.6408 307.7268848  +6.4342626     819.9959     1313.637     1842.036     78.24432     156.0547     312.2646      1.868     3.85     839.5672     55.01984     142.6024        10     1.104     0.629  41.39   0
       253    738.0660    605.3426 307.6129926  +6.4452214      4724.37     7690.132     7646.998     78.36803     156.0547     312.1715      1.707     3.94     838.0162     55.01984     698.9332        31     1.587     1.002  49.87   0
       254    791.6542    600.6690 307.5908948  +6.4489400     12343.62     20130.84      21592.4     78.24432     156.0547     312.0474      1.764     4.05     837.4555     55.01984     1738.228        52     1.738     1.118  47.48   0
       255   1008.3540    600.9732 307.5008897  +6.4560406     905.2279     1463.432     1232.567     77.74753     156.1788     312.0474      1.726     7.76     834.1619     55.01984     103.1072        15     1.438     1.173 -19.80   0
       256    533.7579    600.5520 307.6979996  +6.4403678     1022.535     1611.055     1772.988     78.24432     156.0547     312.0784      1.897     4.62     839.1336     55.01984     131.7982        14     1.245     0.874  50.09   0
       257     36.2160    599.8552 307.9046343  +6.4239617     587.9559     862.7736     886.4116     77.62283     156.0547     311.8611      1.478     4.29     842.1756     55.01984     93.75568         7     1.368     0.383  57.73   0
       258    615.5404    598.6750 307.6640999  +6.4438788     2691.234     4488.543     4850.451     78.49155     156.1168     312.1095      1.813     4.28     838.5702     55.01984     380.8622        24     1.584     0.960  44.17   0
       259    932.7225    595.0068 307.5324994  +6.4559833      939.803     1695.202     2539.523     77.87202     155.6196     311.9542      2.390     5.95     834.7967     55.01984     147.9689        11     1.706     0.583  47.41   0
       260    228.1501    592.5446 307.8251797  +6.4334291     1174.826     1827.601      2269.03     78.24432     156.1168     312.1715      1.738     5.15     840.0375     55.01984     172.1051        12     1.251     0.666  58.30   0
       261    373.9510    592.2716 307.7646424  +6.4384330     881.9966     1613.178     1583.175     78.24432     156.1168     312.1715      1.599     6.01     839.0027     55.01984     123.7416        12     1.528     0.665  24.92   0
       262    867.8135    583.9923 307.5598254  +6.4583656      2357.76     3831.845     4164.401     77.87202     155.8684     312.0163      1.769     3.75     836.0045     55.01984     362.4982        23     1.539     0.869  40.93   0
       263    826.4512    581.1407 307.5770989  +6.4581628     2219.678     3694.601     3807.425     78.24432     156.1168     312.1405      1.762     5.03     836.5071     55.01984     302.2725        22     1.621     0.848  59.03   0
       264    162.7696    583.5880 307.8526320  +6.4349305     627.0519     813.9822     714.3291     77.74753     155.8684     312.0474      1.277     3.35     840.8046     55.01984     112.8173         5     0.805     0.405  23.74   0
       265    797.2814    577.2823 307.5893425  +6.4587819     2136.604     3558.163     4701.068     78.24432     156.3648     312.2336      1.862     4.49     836.7631     55.01984     313.8236        20     1.504     0.843  51.25   0
       266    254.3828    576.3624 307.8148320  +6.4409894     7089.725     11668.17     12608.74     77.87202     155.9926     311.8921      1.791     4.02     839.3632     55.01984     1041.079        44     1.621     1.237  49.83   0
       267    807.0630    572.6219 307.5854365  +6.4610323       139425       233015     251047.6     77.87202     156.1168     312.0163      1.796     4.01     836.5518     55.01984     19216.58       140     1.903     1.337  46.47   0
       268    739.3370    576.9846 307.6134168  +6.4569700     706.0969     1129.897     1866.991     77.74753     156.0547     311.9853      3.117     4.01     837.0215     55.01984     136.4982         6     1.140     0.404  58.48   2
       269    188.6491    570.8554 307.8423150  +6.4410557     51789.18     87856.35     96155.67     78.24432     156.1168     312.2025      1.848     3.95      840.076     55.01984     6584.212       102     1.854     1.403  45.53   0
       270    112.5955    567.0417 307.8740262  +6.4400746     5526.688     9557.606     9736.721     77.62283     155.8062     311.8611      1.810     4.02     841.0893     55.01984     749.0677        36     1.650     1.120  47.80   0
       271    977.7236    564.3356 307.5148376  +6.4701443     1204.027     1836.499       1816.7     78.49154     156.1168     312.1095      1.630     5.49     832.9589     55.01984     172.4672        16     1.506     0.841  48.09   0
       272    998.7187    563.8925 307.5061330  +6.4710268     605.5901     1182.268      1008.09     77.99632     156.3648     312.2025      1.731     3.88     832.2451     55.01984     110.7069         5     0.865     0.498  34.42   0
       273    226.0546    562.0980 307.8270772  +6.4459267     621.8701     1123.809     2003.115     78.12042     156.1168     312.3576      1.973     5.18      838.808     55.01984     101.0889         6     1.045     0.727 -61.98   0
       274    843.6613    559.9501 307.5706622  +6.4674846     3869.994     6499.362     6585.119     78.24432     156.0547     312.2025      1.764     4.20     835.6226     55.01984     504.0023        29     1.592     1.011  47.47   0
       275    362.0379    557.9987 307.7707445  +6.4521812     14570.01     25140.53     27039.22     77.37284     155.9305     311.9232      1.830     3.96     837.9177     55.01984     2088.918        55     1.733     1.216  46.00   0
       276    452.0121    558.1671 307.7333738  +6.4551270      764.744      1338.18     1443.631     77.74753     155.8684     312.0474      1.974     6.28     837.6984     55.01984     103.1313        10     1.216     0.911  75.89   0
       277    163.9256    557.0693 307.8530474  +6.4459159     1527.568     2646.337     2198.901     78.36803     156.2408     312.1405      1.672     4.98     840.6249     55.01984     217.2702        17     1.536     0.836  63.60   0
       278    797.5236    553.1423 307.5900520  +6.4687551     5174.824     8281.857     9167.016     78.36803     156.1168     312.0784      1.714     4.04     836.1084     55.01984     752.0494        29     1.551     0.970  47.08   0
       279    528.4387    552.9033 307.7018116  +6.4598590     5740.313     9221.709     9643.065     78.24432     155.9926     312.2956      1.745     3.75      837.194     55.01984     840.8547        33     1.575     1.032  48.83   0
       280    238.7067    554.5692 307.8220772  +6.4494592     886.9372     1281.771      1679.74     78.36803     155.9305     312.1095      1.875     5.41     838.5304     55.01984     107.8726        11     1.133     0.729  26.46   0
       281    169.2619    553.8859 307.8509389  +6.4474092     639.1091     1232.425     1578.722     78.36803     156.3028     312.1405      1.771     6.63     840.4335     55.01984      92.7597        11     2.015     0.612  48.73   0
       282    101.3039    553.8500 307.8791609  +6.4451403     855.7876     1342.971      1259.75     78.12042     156.0547     312.2956      1.536     3.96     841.0327     55.01984     154.9943         8     1.131     0.532  49.60   0
       283    141.2176    552.8202 307.8626208  +6.4469069     5280.984     5324.964     4861.359     77.99632     155.9305     312.0474      0.827     2.58     840.8118     55.01984     1481.502        10     0.739     0.489  82.70   0
       284    386.5110    549.4579 307.7608690  +6.4565271     1253.892      2234.97     2745.047     78.12042     156.0547     312.2646      1.885     3.91     837.6417     55.01984     192.2379        14     1.224     0.811  64.95   0
       285    175.3691    546.0530 307.8486672  +6.4508476     6005.781     10015.68      10497.4     78.12042     156.1788     312.0474      1.770     3.95     840.1288     55.01984     821.7634        37     1.644     1.054  46.62   0
       286    814.2434    545.4818 307.5833651  +6.4724755      1169.32     2148.773     2638.759     78.24432     156.1168     312.1095      1.969     4.57     835.6728     55.01984     182.8729        14     1.434     0.789  41.45   0
       287    572.9528    545.9204 307.6835599  +6.4642312     1982.822     3783.296     4039.155     78.24432     156.1168     312.1095      1.965     4.90     836.5621     55.01984     255.0211        28     1.532     1.217   4.85   0
       288    270.6488    542.5123 307.8092190  +6.4555082     76325.16     128912.3       139095     78.24432     155.9926     312.2025      1.844     3.97     838.0438     55.01984     10249.17       107     1.865     1.355  44.50   0
       289     46.9740    544.7315 307.9020304  +6.4470774     4375.008     7546.411     7805.575     77.87202     155.9926     312.0474      1.797     4.10     841.0076     55.01984     586.2217        32     1.627     1.095  48.60   0
       290    560.3878    539.9701 307.6889783  +6.4662670     648.7684     1394.938     1437.436     77.74753     155.8684     312.0474      2.143     5.98     836.4649     55.01984     112.2925        11     1.521     0.662  41.13   0
       291    793.7986    534.9805 307.5922084  +6.4761279     14485.33     23958.31     25649.68     77.87202     155.6818     311.8611      1.750     3.96     835.6716     55.01984     2097.174        55     1.757     1.154  46.72   0
       292    254.1992    537.3220 307.8162254  +6.4570986     1184.465     2104.715     1036.145     77.49794     155.5573     311.9232      1.739     5.57     837.8104     55.01984     161.6253        14     1.508     0.663  54.14   0
       293    970.1779    536.3224 307.5189098  +6.4814569     1303.564     2198.078      2396.22     77.87202     155.9305     312.1095      1.771     5.56     832.3484     55.01984     167.4376        16     1.456     0.835  44.23   0
       294    497.4195    533.3415 307.7153521  +6.4668955     36928.72     64406.29      70854.5     77.87202     155.9926     311.9542      1.914     4.11     836.4489     55.01984     4824.391        81     1.909     1.359  37.83   0
       295    647.4042    531.3063 307.6531312  +6.4727539     839.3334     1396.094     2061.879     77.99632     155.8062     311.8921      1.972     4.94     835.6403     55.01984     116.3322         9     0.872     0.807 -27.06   0
       296    209.8202    529.5609 307.8349171  +6.4588124     1566.919     3027.225     2864.681     77.87202     155.9305     311.8921      2.038     5.09     838.2259     55.01984     192.3873        24     1.604     1.064  55.52   0
       297     45.1958    529.9736 307.9032678  +6.4531094     1095.873     1971.206     2317.246     77.74753     155.9305     311.9853      1.918     4.49     840.9208     55.01984     165.2283        16     1.265     0.941  49.81   0
       298    719.7108    527.9757 307.6232133  +6.4765453     1126.528     2310.135     2898.563     78.36803     155.9305     311.9853      2.351     6.91     835.5176     55.01984     154.1683        17     1.936     0.691  62.40   0
       299    657.3770    528.4535 307.6490853  +6.4742649     2638.007     4441.063     4855.602     77.74753     156.1168     311.9542      1.789     3.63     835.5377     55.01984     452.1256        27     1.564     0.948  49.60   0
       300    667.5044    528.2167 307.6448872  +6.4747012     1152.706     1928.542     1763.113     78.12042     155.9305     311.9853      1.736     5.08     835.5377     55.01984      168.501        14     1.412     0.859  43.91   0
       301     75.1042    525.5463 307.8909973  +6.4559427     809.4436     1651.532     1886.939     78.12042     156.1168     312.3887      2.372     6.38      840.634     55.01984     110.8863        12     1.349     0.848  13.51   0
       302    395.0275    523.8741 307.7581941  +6.4673734      1581.57     2553.787     2666.003     78.12042     156.0547     312.0784      1.714     4.71     836.6697     55.01984     202.5792        16     1.352     0.800  60.10   0
       303    326.6290    522.2745 307.7866536  +6.4657403     3455.155     5892.445     6595.832     78.12042     156.1168     312.1095      1.823     4.54     836.7512     55.01984     460.2104        28     1.614     0.988  51.56   0
       304    141.7069    520.8505 307.8634974  +6.4601199     22590.34     38077.82     40932.32     78.12042     155.9305     312.3266      1.815     3.93     839.9479     55.01984     2929.588        63     1.777     1.232  46.48   0
       305    506.4698    521.5566 307.7119901  +6.4720633      1847.22     3133.237     3774.718     78.12042     156.1168     312.2025      1.940     4.46     835.9734     55.01984     239.4302        24     1.627     0.913  58.39   0
       306    869.5049    520.7642 307.5612431  +6.4845228      1363.73     2132.373     1838.086     78.36803     155.9926     312.2336      1.633     4.42     834.1762     55.01984     220.0301        14     1.448     0.659  59.16   0
       307    106.9283    519.0787 307.8780001  +6.4596823     2328.697     3834.703     4155.835     78.49154     156.3648     312.1094      1.764     4.30      840.169     55.01984     306.9689        23     1.452     0.968  42.49   0
       308    967.3466    515.5432 307.5207819  +6.4899403     4422.985      7277.66     7735.813     78.36803     156.1168     312.1405      1.806     4.02     831.9382     55.01984     666.6108        32     1.669     1.011  45.53   0
       309    343.7955    517.5606 307.7796834  +6.4682619      985.782     1516.657     1631.077     77.37284     155.8684     311.8611      1.601     3.99     836.4794     55.01984      155.542        12     1.279     0.622  39.63   0
       310    540.6782    508.0211 307.6982385  +6.4787958     1285.842     2235.816     2938.427     77.87202     155.8684     312.1095      2.017     5.16     835.3124     55.01984     165.3257        18     1.334     0.942  49.23   0
       311      5.9948    505.2009 307.9203846  +6.4620162     21810.76     37186.91     40350.23     77.62283     155.8062     295.8574      1.833     3.93     841.4479     55.01984     2963.137        62     1.781     1.216  49.22  24
       312    438.7769    502.0191 307.7407611  +6.4778610     37204.78     62716.08      67519.4     77.99632     156.0547     312.0784      1.799     3.97     835.5876     55.01984     5080.325        77     1.799     1.259  49.02   0
       313    646.7760    501.7180 307.6543865  +6.4849468     10695.58     17742.01     19568.94     77.99632     155.8684     312.0784      1.789     4.07     834.6479     55.01984      1448.34        45     1.707     1.098  44.45   0
       314    203.9373    499.6072 307.8383712  +6.4709792     16793.01     29462.49     31442.27     77.62283     155.9305     311.9542      1.869     4.10     837.4421     55.01984     2151.781        63     1.888     1.243  44.18   0
       315    286.6036    501.7360 307.8039685  +6.4728756     898.8777     1532.596     1507.379     77.62283     155.9305     311.9232      1.621     5.48     836.0138     55.01984     139.9044        12     1.422     0.595  36.45   0
       316    169.5060    500.7032 307.8526332  +6.4693703     1314.639     2271.278     2355.875     78.24432     156.6742     312.0474      1.850     5.01     838.7344     55.01984     178.1377        16     1.309     0.840  47.92   0
       317    980.8944    500.0006 307.5156757  +6.4968078     848.6446      1497.16     2179.848     77.74753      155.744     311.7679      2.062     6.98     831.2421     55.01984     115.7109        12     1.303     1.049  58.17   0
       318    909.2893    499.1607 307.5454438  +6.4947677     718.8111     1033.614     1253.236     78.24432     156.1168     312.1715      1.578     5.31     832.6741     55.01984     94.84149        10     1.028     0.775  56.18   0
       319    820.8683    499.6843 307.5821501  +6.4916018     834.3866     1494.992     1033.539     78.49154     156.3648     312.1715      1.900     4.54     834.5457     55.01984     113.5743         8     0.946     0.721  73.05   0
       320    568.5408    498.5074 307.6869868  +6.4836555     2585.192     3914.517     3965.462     78.12042     156.0547     312.2646      1.696     4.08     834.7867     55.01984     368.5826        21     1.450     0.868  50.26   0
       321    942.3488    495.6382 307.5318312  +6.4973240      4203.11     7126.581      7796.69     77.99632     156.0547     312.0784      1.847     3.97     831.8241     55.01984     551.3818        33     1.613     1.075  47.86   0
       322    615.5205    494.0098 307.6676266  +6.4870836     5615.213     9281.425     9511.411     77.87202     155.8062     311.9853      1.745     4.06     834.3741     55.01984     791.5297        35     1.633     1.043  52.35   0
       323    103.3360    495.0773 307.8803028  +6.4694689      971.278     1634.246     1725.957     78.49154     156.1168     312.1405      1.940     5.72     839.5311     55.01984      128.415        14     1.328     0.786  42.47   0
       324    215.4855    493.9890 307.8337650  +6.4736862     615.4656     735.0916     1093.067     77.87202     155.8684     311.9853      1.291     3.05     836.8363     55.01984     87.24622         6     0.777     0.500  89.58   0
       325    514.2278    493.4049 307.7097155  +6.4839439     589.6389     1038.345     1477.953     77.74753     155.9305     311.9542      1.730     4.17     834.7577     55.01984       97.367         7     1.023     0.486  -4.48   0
       326    965.1112    487.9548 307.5226346  +6.5012544     3085.436      4966.35     5655.217     78.24432     155.9926     312.1715      1.736     4.06     831.2148     55.01984     420.9338        25     1.652     0.877  55.54   0
       327    527.7715    485.2334 307.7043655  +6.4877704     6467.763     10770.67     11702.86     77.74753     155.8684     311.9232      1.783     3.73     834.3944     55.01984     885.5518        37     1.617     1.079  44.72   0
       328    373.8622    485.3437 307.7682824  +6.4825688     2335.226     4018.045     3912.682     78.36803     156.1168     312.1715      1.835     4.42     835.1045     55.01984     317.9792        24     1.572     0.948  48.38   0
       329    403.8340    486.2119 307.7558056  +6.4832152     625.0882      985.935     1071.941     77.74753     155.9305     311.9853      1.612     4.05     835.1447     55.01984     88.27954         6     0.792     0.592 -39.43   0
       330    884.1817    481.1808 307.5564747  +6.5013526     2635.159     4556.626     5714.713     77.99632     156.0547     312.0784      2.014     4.35     832.7129     55.01984     393.9379        24     1.575     0.945  39.24   0
       331    537.0950    482.1193 307.7005981  +6.4893680     713.0603     1217.278     1816.806     77.99632     156.3648     312.2336      1.899     4.60     834.2493     55.01984     102.8427         8     1.114     0.539  54.43   0
       332    232.1264    480.2518 307.8273177  +6.4799154     520.8783     833.8215      871.064     78.24432     156.1788     312.1715      1.388     4.93     835.9025     55.01984     68.63428         7     1.211     0.568  54.07   0
       333    891.5203    475.3893 307.5536208  +6.5039880     2168.693     3386.898     3813.671     77.87202     155.8684     311.9853      1.683     3.80     832.2528     55.01984      308.201        19     1.467     0.828  44.79   0
       334    930.7257    474.8976 307.5373538  +6.5054984     1126.468     1836.707     1145.355     77.87202     156.3028     312.1405      1.690     5.07     831.1511     55.01984     149.1915        13     1.230     0.860  25.38   0
       335    715.5969    471.5852 307.6268158  +6.4996858     2573.724     4229.171     4395.834     77.87202      155.744     312.0163      1.765     4.25     833.7847     55.01984     334.2587        24     1.627     0.875  48.57   0
       336     77.2278    470.2776 307.8919834  +6.4788279     1703.187     2737.509     2796.096     78.12042     156.0547     312.1405      1.632     4.18     839.5583     55.01984     261.4814        20     1.465     0.865  55.36   0
       337    426.9895    469.7593 307.7467431  +6.4907826     902.3643     1457.288     1350.775     77.62283     155.9305     311.8611      1.673     4.63     834.1132     55.01984     129.8215        13     1.303     0.836  58.67   0
       338    386.3837    469.6284 307.7636117  +6.4894758     3369.514     5594.132     5765.325     77.87202     155.8684     312.0474      1.812     3.89     834.3484     55.01984     448.4653        29     1.585     0.992  39.74   0
       339    614.2445    466.2778 307.6690889  +6.4984886     8905.286     14742.79     15802.92     78.12042     156.1168     312.1405      1.758     4.05     833.3916     55.01984     1355.958        42     1.675     1.086  48.87   0
       340    776.9780    462.8666 307.6016148  +6.5053350     14190.41     23502.37     25759.84     77.87202     156.1168     312.0474      1.762     3.97      833.395     55.01984     2139.458        49     1.706     1.122  44.39   0
       341    296.6498    463.1860 307.8010965  +6.4891256     2374.116     3850.268     3226.845     77.62283     156.0547     311.8611      1.709     3.90     834.3054     55.01984     335.1578        22     1.409     0.926  52.25   0
       342    419.6288    462.3920 307.7500482  +6.4935771     510.5854     797.0682     845.5115     77.87202     155.9305     311.9542      1.421     3.51     833.5807     55.01984     82.05566         5     1.079     0.330  20.49   0
       343    379.8646    459.7759 307.7666512  +6.4933242      1375.39     2132.328     2685.119     77.87202     156.1168     312.0474      1.750     3.98     833.8782     55.01984     200.5066        17     1.366     0.878  46.73   0
       344    805.7244    459.7384 307.5897803  +6.5075861     1152.757     1784.227     1925.575     78.49154     156.1168     312.1405      1.654     3.86     833.1578     55.01984     187.7447        10     1.016     0.739  42.80   0
       345    961.9642    457.6753 307.5249562  +6.5136490     1799.776     2823.328     3049.999     78.12042     156.1788     312.1715      1.679     4.12     830.2031     55.01984     238.3583        19     1.440     0.794  47.87   0
       346    780.8770    457.9683 307.6001598  +6.5074872     1303.581     2240.999     2798.882     78.12042     156.1168     312.0784      1.977     4.74     833.0973     55.01984     180.8995        13     1.282     0.742  49.05   0
       347    114.5088    454.8148 307.8770233  +6.4864640     3743.979     6414.311     6991.762     77.99632     155.9305     311.9542      1.845     3.98     838.4423     55.01984     568.1208        34     1.652     1.057  47.84   0
       348    752.5016    453.7581 307.6120866  +6.5082776     2024.122     3184.255     2931.484     78.24432     155.9926     312.3577      1.592     3.90     832.8481     55.01984      302.564        19     1.482     0.785  54.42   0
       349    367.9952    455.8280 307.7717138  +6.4945559     599.8401     1053.137     1212.639     77.74753     155.9305     311.9542      2.135     5.58     833.8449     55.01984     97.14893         7     1.309     0.671  23.02   0
       350   1016.1825    452.6438 307.5026052  +6.5175326     3674.307     6576.335     6829.675     77.74753     155.9926     311.9232      1.911     4.70     828.8671     55.01984     482.4203        34     1.753     1.057  37.52  16
       351    272.0575    451.6920 307.8116977  +6.4930449     1314.041     2211.865     2556.197     78.12042     156.0547     312.2336      1.800     4.60      834.313     55.01984     194.9486        18     1.516     0.824  41.41   0
       352    350.3457    449.4738 307.7792581  +6.4965870     2969.102     4586.816     4221.143     78.12042     156.0547     312.1095      1.662     3.64     833.8087     55.01984     479.2218        28     1.394     1.110  49.08   0
       353    706.0603    446.9893 307.6316028  +6.5095203     1457.528      2357.97     2330.095     77.62283     155.9926     311.8611      1.587     4.28     832.4082     55.01984     234.2982        17     1.424     0.922  47.96   0
       354    980.4705    446.1532 307.5176556  +6.5190221     555.5379     1042.409     1600.947     78.24432     156.0547     312.1405      2.377     3.23     829.3188     55.01984     110.1999         5     0.814     0.660  48.43   0
       355    238.2640    444.8645 307.8259629  +6.4947288     799.1627     1222.007     1162.399     78.24432     156.1168     312.1715      1.532     4.69     834.9363     55.01984     132.4833         9     1.214     0.633  52.75   0
       356    547.7497    440.1425 307.6975853  +6.5070524     762.8055      1492.96     1459.445     78.24432     156.1168     312.1405      2.305     5.95     832.5817     55.01984      116.114        10     1.476     0.675  47.81   0
       357    469.9197    438.4364 307.7299680  +6.5051507     1113.563     1848.445      1549.18     78.12042     156.1788     312.1405      1.723     5.24      832.438     55.01984     169.9263        15     1.452     0.730  42.76   0
       358    832.1708    436.9695 307.5795599  +6.5178678     1257.495     1962.783     2137.112     77.74753     155.8684     311.8921      1.606     3.23     831.5934     55.01984     221.4181        12     1.126     0.699  59.71   0
       359    818.1318    436.3103 307.5854131  +6.5176713     1917.829     3095.114     2827.826     78.36803     156.3028     312.1095      1.728     4.41     831.6502     55.01984     269.4391        21     1.493     0.821  50.31   0
       360    715.4330    434.5572 307.6281276  +6.5149655     13212.23     21686.75     23393.07     77.87202     156.1168     311.9853      1.783     4.12     831.7582     55.01984     1905.374        47     1.658     1.131  50.70   0
       361    608.9483    425.7069 307.6726527  +6.5150590      11523.9     25289.82     30274.08     78.12042     155.9926     312.3577      2.397     7.31     832.0021     55.01984     1908.717        70     2.611     1.175  38.68   0
       362    636.3997    430.4523 307.6610915  +6.5140182      2229.97     3879.814     4512.504     77.49794     155.6196     311.7057      1.932     4.46     831.9214     55.01984      307.664        25     1.656     0.914  42.55   0
       363    940.8328    424.5002 307.5348449  +6.5266395     3496.604     5656.652     5760.379     78.24432     155.9926     312.2956      1.707     4.29      829.736     55.01984     504.3446        28     1.533     0.994  49.81   0
       364    379.8568    420.4070 307.7679812  +6.5095750     25203.37     42894.59     46413.73     77.74753     155.9926     311.8611      1.833     3.94     831.8482     55.01984     3446.496        67     1.767     1.257  46.39   0
       365    896.2471    420.0399 307.5535134  +6.5269940      1327.52     2234.718     3515.186     78.12042     156.1168     311.9542      2.362     4.92     830.3159     55.01984     212.8254        15     1.625     0.632  50.27   2
       366    125.8485    419.8453 307.8734953  +6.5012799     2110.608     3504.295     3542.444     78.24432     155.9926     312.1715      1.769     5.11     837.3685     55.01984     266.7784        23     1.631     0.943  42.57   0
       367    909.4239    414.7375 307.5482181  +6.5296224     4361.891     7207.657     7409.913     77.87202     156.1168     312.0474      1.768     4.17     830.0584     55.01984     592.6063        30     1.584     0.989  47.76   0
       368     59.1264    415.2990 307.9013594  +6.5009131     1233.577     2032.608     2872.089     77.87202     156.2408     312.1095      1.900     5.90       838.79     55.01984     154.8441        13     1.350     0.725  46.01   0
       369    237.3547    410.8785 307.8274875  +6.5087272     12393.16     20788.27     21669.92     78.24432     156.1168     312.1095      1.791     3.94     834.0938     55.01984     1722.323        47     1.696     1.154  46.08   0
       370    960.8911    403.3578 307.5272219  +6.5360357       887.11     1462.663     1360.026     78.24432     156.1168     312.2336      1.768     5.52      828.128     55.01984     151.0477        12     1.368     0.830  60.06   0
       371    731.9162    404.7138 307.6222836  +6.5278354     730.9893     1130.016     1644.157     77.99632     156.3028     312.2025      1.839     4.82     830.2847     55.01984     112.9596         7     1.268     0.519  42.40   0
       372    700.6865    404.1503 307.6352740  +6.5270246      749.431     1321.241     1385.224     78.24432     155.9926     312.2336      1.688     5.23     830.3247     55.01984      128.495         8     1.344     0.669  65.99   0
       373     72.8881    404.8169 307.8959983  +6.5057027     774.8221     1534.558     1707.735     77.99632     155.8684     312.0163      1.959     5.33     838.3079     55.01984     130.3154         9     1.253     0.640  33.62   0
       374   1009.3625    403.5726 307.5070813  +6.5375622     551.7726     913.3034     1007.719     77.87202     155.8684     311.9853      1.826     4.13     826.1991     55.01984     89.98352         5     0.986     0.493  44.46   0
       375    350.3782    400.5289 307.7808946  +6.5167920     1070.194     1986.472     1939.318     77.87202     155.9926     312.1095      1.808     6.84     831.6534     55.01984     149.9529        18     1.611     1.130  38.71   0
       376    137.5834    399.5451 307.8693074  +6.5100539      4451.27     7858.104     8334.059     77.74753     156.0547     311.8921      1.895     4.13     836.5533     55.01984     552.2266        38     1.657     1.192  44.44   0
       377    182.5154    400.6234 307.8506098  +6.5111186     689.7736     1223.598      717.395     78.12042     155.8684     312.0474      1.884     5.17     835.3152     55.01984     95.22351         8     0.954     0.793 -78.50   0
       378    242.3499    398.2786 307.8258381  +6.5140959     1159.106     1952.473     1993.106     78.24432     156.1788     312.1405      1.660     6.31      833.542     55.01984      144.348        17     1.499     0.784  58.25   0
       379    435.0053    398.4038 307.7458174  +6.5205061     701.4568     1008.475     1291.241     77.62283     155.8062     311.9853      1.770     5.33     829.9356     55.01984     93.71722         8     1.073     0.747  57.49   0
       380    823.7304    396.3347 307.5844291  +6.5343602     667.7905     1093.291     840.3447     78.24432     156.1788     312.1405      1.817     4.92     830.0793     55.01984     127.0871         8     1.394     0.492  63.87   0
       381    159.8540    395.3169 307.8602008  +6.5125476     1980.444     3598.149     4169.819     78.24432     156.1168     312.2336      2.003     4.85      835.874     55.01984     232.5662        27     1.554     1.146  59.41   0
       382    555.3181    394.0451 307.6959928  +6.5263344     790.2764     1250.005     1324.823     78.24432     156.1168     312.1095      2.013     5.92     830.1508     55.01984     106.5471        11     1.261     0.782  62.62   0
       383    383.2785    390.1652 307.7675792  +6.5221732     1851.505     3196.902     3066.836     78.12042     156.1788     312.1715      1.903     4.62     830.2405     55.01984     243.7886        22     1.559     0.916  47.18   0
       384    271.3419    390.5913 307.8140562  +6.5182424      792.493     1251.183     1324.885     77.62283     156.0547     311.8611      1.723     4.95     832.4436     55.01984     107.4471         9     1.014     0.683  42.87   0
       385      1.6044    390.4690 307.9260886  +6.5092270     597.8771     836.1976     937.8749     71.24591     127.9492     239.1889      1.429     4.25     839.5253     55.01984     98.54694         6     0.998     0.592  58.81  24
       386    971.6974    389.2836 307.5232049  +6.5422057     716.8544     1549.183     1945.898     78.24432     156.4886     312.2025      2.386     3.94     827.0314     55.01984     128.6392         7     1.010     0.508  63.14   0
       387    317.1482    387.8879 307.7951225  +6.5208954     655.2548     1188.844      936.537     78.24432     155.9926     312.2336      1.739     5.66      831.355     55.01984     104.5738         9     1.344     0.672  67.43   0
       388    437.0158    383.7926 307.7454745  +6.5266049     6311.504     10812.23     11563.68     77.87202     155.8684     311.9853      1.823     4.11     829.3564     55.01984       836.08        37     1.641     1.084  46.57   0
       389     33.3248    384.4006 307.9131199  +6.5127993     2637.785      4838.99     5636.226     77.49794     155.4951     311.9542      2.000     4.34     838.7305     55.01984     376.0301        29     1.459     1.242  63.25   0
       390    769.5839    382.7660 307.6073750  +6.5381536       1691.1     2830.317     3273.967     77.87202     155.8684     311.9853      1.808     3.93     829.7723     55.01984     230.8703        16     1.350     0.730  49.06   0
       391    777.6527    381.0972 307.6040795  +6.5391119     11461.06     18740.66     20313.57     78.12042     156.1168     312.3887      1.743     3.99     829.7673     55.01984      1692.01        43     1.659     1.085  43.77   0
       392    341.1443    379.2061 307.7854487  +6.5252840     1092.485     1789.237     1653.245     77.74753     155.9926     311.8611      1.563     4.17     830.4404     55.01984     191.7371        12     1.323     0.665  46.15   0
       393   1021.5052    376.3682 307.5029487  +6.5491967     3213.967     5148.594     5502.619     78.36803     150.1709     267.2311      1.751     4.10     824.1552     55.01984     496.0639        25     1.602     0.880  46.59  24
       394    951.2697    372.0627 307.5322671  +6.5486337     444.6528     772.9012     947.2073     78.24432     156.1168     312.2025      2.098     3.90     827.2217     55.01984     82.19037         5     0.865     0.504  39.10   0
       395    185.7936    371.6949 307.8502251  +6.5231698       660.15     882.6241     1097.361     77.99632     155.8062     311.9542      1.620     4.51     834.6601     55.01984     93.69769         8     1.126     0.512  53.72   0
       396    457.2137    368.0486 307.7376156  +6.5337806     1923.041     3356.849     3469.612     77.62283     156.0547       311.83      1.842     4.70     828.5653     55.01984     255.0517        21     1.494     0.947  65.93   0
       397    485.1670    367.3752 307.7260278  +6.5349949     2645.874     4632.114     5129.724     77.62283     155.8684     311.9232      1.924     4.18     828.3735     55.01984     381.2073        29     1.624     1.034  50.28   0
       398    913.4350    367.2053 307.5481456  +6.5493775     647.1512     870.8569     1028.449     77.49794     155.9305     311.9232      1.472     4.21     828.2955     55.01984     105.7789         5     0.985     0.513  51.23   0
       399    842.9952    364.0413 307.5775106  +6.5483338     28597.68     49294.69     53359.82     77.49794     155.8062     311.8611      1.829     3.92     829.1685     55.01984     3911.951        75     1.828     1.295  53.41   0
       400    334.9225    359.5710 307.7886950  +6.5331805      858.648     1308.241     1549.112     78.12042     156.1788     312.1715      1.909     5.22     829.5135     55.01984     100.0035        10     1.091     0.817  52.53   0
       401    614.7225    356.2427 307.6725902  +6.5439266     2477.019     4017.979     4627.909     78.12042     156.1168     312.2025      1.821     3.72     827.4978     55.01984     364.1296        21     1.341     0.919  47.75   0
       402     22.5984    356.4999 307.9185184  +6.5239551     1066.718     1706.672     1317.495     77.74753     155.8684     311.8611      1.765     5.33     838.6392     55.01984     158.0032        11     1.079     0.767  29.59   0
       403    699.4254    350.0331 307.6376160  +6.5493219     69983.56     115985.3     124748.2     77.74753     155.9305     311.9853      1.767     4.00     828.0837     55.01984     10795.46        96     1.823     1.264  45.66   0
       404    857.3712    351.6115 307.5719562  +6.5539446     1014.174      1896.53     2057.863     77.74753     155.9305     311.9853      1.984     5.51     828.6961     55.01984      156.679        12     1.452     0.752  38.05   0
       405     78.4739    349.1113 307.8955615  +6.5288846     1245.095     2344.125     2512.072     78.24432     156.3648     312.2025      1.926     6.31     836.7342     55.01984      162.624        19     1.607     0.915  57.16   0
       406    940.5182    347.0994 307.5375697  +6.5585802     807.8845     1339.833     1067.052     78.24432     156.6124     312.2336      1.712     4.27     826.6595     55.01984     133.5786         8     1.167     0.655  61.27   0
       407    561.7641    346.6004 307.6949116  +6.5461350     2269.014     3644.059     4288.167     77.37284     155.9305     311.9542      1.721     4.23     827.0179     55.01984      294.948        21     1.397     0.931  52.78   0
       408     99.1047    345.4398 307.8871169  +6.5310939     5690.272     9416.957     10542.35     78.24432     155.9926     312.2646      1.823     3.85     836.0879     55.01984     750.8632        34     1.604     1.081  42.80   0
       409    545.2428    342.9175 307.7018979  +6.5471023     6400.988     10537.17     10816.29     78.24432     156.1168     312.1095      1.745     4.00     826.8174     55.01984     890.3319        38     1.665     1.062  50.22   0
       410    760.1247    344.4473 307.6125907  +6.5536556     556.1785     813.2603     1302.492     78.12042     156.1788     312.1405      1.428     4.13     828.5454     55.01984     81.40186         5     0.901     0.542 -47.39   0
       411    274.1596    340.5986 307.8145727  +6.5389731     2250.505     4010.611     4377.476     77.49794     155.8684     311.8921      1.914     4.48     830.8221     55.01984     287.2818        27     1.547     1.092  52.21   0
       412    408.0738    338.0881 307.7590355  +6.5445012      22854.6     38777.21     41329.64     78.24432     156.4267     312.2025      1.825     3.90     827.9672     55.01984     3256.201        63     1.765     1.261  47.19   0
       413    515.5422    336.7197 307.7144431  +6.5486664     1201.591      1920.84      1656.31     78.24432     156.1168     312.1095      1.682     3.97     826.5089     55.01984     172.9609        15     1.145     0.937  74.13   0
       414    388.2850    335.7953 307.7673322  +6.5447843     966.8318     1757.735     2870.872     77.74753      155.744     311.7989      3.244     5.69      828.081     55.01984     143.9401        13     1.651     0.650  50.51   2
       415    487.1121    333.2925 307.7263674  +6.5491291     1047.994     1690.227     2243.038     78.24432     156.5505     312.2336      1.776     3.66     826.3602     55.01984     170.6436        12     1.044     0.851  30.05   0
       416    802.3193    330.3145 307.5955383  +6.5608985     879.2354     1387.473     1420.167     77.99632     156.4267     312.2336      1.724     3.48     828.2465     55.01984      135.572         8     0.901     0.663 -85.40   0
       417    497.1082    328.4764 307.7223775  +6.5514519       7736.7     12742.22     13971.24     78.12042     156.3648     312.1405      1.770     4.00     826.0519     55.01984      1141.38        40     1.674     1.098  41.52   0
       418    766.3549    327.3229 307.6105778  +6.5609326     2617.698     4478.016     4434.383     78.12042     156.1788     312.1405      1.854     4.45     827.9076     55.01984     448.2864        27     1.622     1.005  43.86   0
       419    921.3660    326.6706 307.5462102  +6.5663747      871.677     1368.983     1430.868     78.12042     156.1168     312.2025      1.802     3.68     826.3488     55.01984     124.7007         9     0.958     0.703  30.01   0
       420    714.0316    326.7986 307.6323295  +6.5594011     656.0469     921.3688     855.1064     77.62283     155.9305     311.9232      1.403     3.24     827.4089     55.01984     125.4529         6     1.077     0.433  71.49   0
       421    323.7537    325.4124 307.7944859  +6.5469060     980.2003     1627.582     1609.169     77.62283     155.9305     311.8921      1.741     6.72     828.9396     55.01984     105.9302        15     1.414     0.897  60.70   0
       422    159.1019    318.7103 307.8631008  +6.5441440     963.5118     1566.614     1608.756     78.24432     156.5505     312.1405      1.737     4.81     834.5032     55.01984     132.8697        12     1.197     0.743  44.36   0
       423    387.0634    312.6298 307.7686203  +6.5543058     6655.143     11430.85     11647.23     77.99632     156.1168     312.0784      1.800     3.96      827.692     55.01984     915.7053        39     1.650     1.125  42.24   0
       424    242.9495    313.2917 307.8284574  +6.5491972     1878.481     3075.299     3072.427     78.12042     155.9926     312.3266      1.746     4.09     831.2288     55.01984     260.6877        19     1.354     0.928  50.82   0
       425    740.7200    312.6306 307.6217195  +6.5661413     874.3597     1293.554     1268.728     78.12042     156.1168     312.1095      1.568     5.47     827.2427     55.01984     118.8543        10     1.189     0.710  75.28   0
       426    754.9196    308.5856 307.6159571  +6.5682853     48499.71      79828.1     85488.69     77.87202     155.8684     311.9542      1.757     3.88      827.141     55.01984      6687.48        85     1.792     1.249  46.00   0
       427    426.5906    307.9199 307.7523607  +6.5575749     2088.166     3327.178     3824.186     77.87202      155.744     312.0163      1.775     4.23     826.7953     55.01984     301.5617        18     1.359     0.851  53.62   0
       428    930.6812    304.8922 307.5430708  +6.5756754     2039.615     3413.244     3386.682     77.99632     156.3648     312.2025      1.749     4.14     825.0992     55.01984     286.6699        23     1.517     0.950  50.26   0
       429    989.4198    305.3007 307.5186572  +6.5774647     1591.873     2391.384     1988.578     78.24432     155.9926     311.9232      1.569     4.55     824.1373     55.01984     220.3944        17     1.382     0.900  54.53   0
       430    572.4169    305.2015 307.6918796  +6.5635807     886.6556     1491.894     1643.974     77.87202     155.6818     311.8611      2.060     4.91     824.4072     55.01984     120.8646        11     1.191     0.880  34.27   0
       431    463.5840    303.7410 307.7371354  +6.5605395     891.0312     1718.814     2202.337     77.74753     156.0547     311.8921      2.346     7.62     825.4101     55.01984     125.3965        16     1.669     1.089  71.83   0
       432    412.9771    303.5759 307.7581617  +6.5589118      1858.23     3012.032     2650.025     77.74753     155.9926     312.1095      1.681     5.08     827.0853     55.01984     248.0637        19     1.299     0.920  32.95   0
       433    834.4928    298.2059 307.5832514  +6.5752269     983.7176     1502.325     1625.648     77.87202     155.8062     311.9853      1.588     5.89     826.2363     55.01984     136.0677        12     1.583     0.617  48.06   0
       434    443.8027    295.1461 307.7456416  +6.5634246     945.6917     1729.292     2230.835     77.62283     155.8684     311.7679      1.872     5.22     825.7553     55.01984     130.4854        11     1.235     0.714  38.69   0
       435    189.5697    294.8754 307.8512509  +6.5550063     2120.803      3503.94     3793.104     78.12042     156.1788     312.1405      1.745     3.79     832.8591     55.01984     301.2568        19     1.358     0.927  41.90   0
       436    753.3207    293.1479 307.6171397  +6.5746046     5312.852     8780.982     9357.894     78.24432     156.1168     312.1405      1.755     4.04     826.5178     55.01984     847.4192        34     1.595     1.048  53.71   0
       437    225.3544    293.1744 307.8364448  +6.5569104     675.1442     1294.262     1500.977     77.74753     156.1788     312.0163      2.171     5.77     831.6411     55.01984     99.42566        11     1.494     0.628  64.69   0
       438    769.7975    291.0163 307.6103669  +6.5760348     2380.252     4046.205     4330.051     77.87202      155.744     311.9542      1.756     4.21     826.4462     55.01984     343.2942        26     1.529     0.990  60.62   0
       439    343.6655    292.7726 307.7873159  +6.5610472      581.609     1205.404     833.6516     77.87202     156.1168     312.0474      2.063     4.18     828.1191     55.01984      91.1723         6     0.761     0.656 -40.35   0
       440     85.8431    292.3894 307.8944183  +6.5525459     990.9219     1752.692     1940.537     77.74753     155.9305     311.8611      1.824     5.22     836.2368     55.01984     125.0941        11     1.191     0.647  52.20   0
       441    359.1278    285.8057 307.7811282  +6.5644416     1383.574     2952.362     3396.658     77.87202     155.6818     312.0474      2.179     6.58     827.8157     55.01984     174.8076        27     1.788     1.205  13.52   0
       442     72.6956    286.1795 307.9000891  +6.5546670     1270.144     1953.765      1941.58     78.12042     155.9305     311.9542      1.683     4.86     836.3076     55.01984     166.0503        17     1.384     0.921  62.14   0
       443   1007.9180    282.0379 307.5117523  +6.5876839     5250.473     8735.121     9449.661     78.24432     156.1788     312.1094      1.776     4.06     823.5535     55.01984     786.2371        33     1.617     1.005  51.11   0
       444    486.0609    281.7370 307.7285401  +6.5703754     2013.696     3033.576     3218.059     78.24432     156.1168     312.1715      1.631     3.60     823.8034     55.01984      280.684        20     1.240     0.999  52.53   0
       445    248.5927    277.4848 307.8273220  +6.5641671     5170.932     8733.001     9943.416     77.87202     155.8062     311.9853      1.856     4.06     830.3898     55.01984     633.8525        36     1.644     1.088  44.85   0
       446    382.8259    267.9551 307.7718864  +6.5726048     1548.814     2598.524     2388.863     77.74753     156.1788     312.0163      1.809     4.71     826.7227     55.01984     179.8517        17     1.402     0.796  52.26   0
       447    969.4215    267.1422 307.5282433  +6.5925501     1014.362     1651.085     1733.108     77.87202     156.0547     311.9542      1.891     4.87     823.0992     55.01984     144.1683        12     1.082     0.800  37.00   0
       448    189.3740    265.4479 307.8523260  +6.5671468     594.3389     895.1592     831.3758     77.87202     156.1788     312.0474      1.616     3.81     832.6057     55.01984     98.02454         5     1.009     0.413  74.15   0
       449    305.0988    264.3425 307.8042944  +6.5714888      959.751     1446.869     1684.885     77.99632     156.1168     312.3266      1.573     4.26     828.1826     55.01984     141.9662        10     1.058     0.688  46.01   0
       450    152.5376    263.8967 307.8676790  +6.5665493     1667.291      3125.64     2903.818     77.99632     156.2408     312.2025      1.905     4.80     833.6337     55.01984     217.2911        20     1.512     1.023  50.91   0
       451    562.1384    259.6371 307.6976822  +6.5820453     2075.596     3308.425     2973.256     78.24432     156.1788     312.1405      1.663     3.88     822.8939     55.01984     285.6276        22     1.451     0.937  54.43   0
       452    905.7993    258.8969 307.5549491  +6.5938326      1538.03     2821.371     3676.596     77.74753      155.744     311.7989      2.119     4.43     823.4641     55.01984     263.2905        17     1.551     0.685  37.62   0
       453    666.9509    257.4115 307.6542182  +6.5864701     1750.308     3045.536     3409.539     77.62283     156.0547       311.83      1.854     5.12     823.9044     55.01984     297.8907        24     1.751     0.915  49.47   0
       454    725.7114    257.2750 307.6298135  +6.5884904      4612.62     7614.425     7537.111     78.24432     156.4267     312.2336      1.759     3.88     824.6845     55.01984     635.2077        32     1.659     0.964  45.36   0
       455    963.2979    256.8257 307.5311329  +6.5966046     664.2733     1207.345     1135.053     78.36803     155.8684     312.0474      2.076     3.54     822.6832     55.01984     107.2586         5     0.962     0.375   3.80   0
       456    921.3284    249.2335 307.5488221  +6.5983395     1041.903      1808.56     1766.632     78.12042     156.1168     312.2025      1.564     3.09     822.7589     55.01984     207.6395         7     0.930     0.547 -67.30   0
       457    225.5149    242.7266 307.8380813  +6.5777397     2000.378     3483.443     3805.896     78.36803     156.4267     312.1715      1.893     4.33      831.523     55.01984      302.726        22     1.561     0.945  44.16   0
       458    867.8311    241.3052 307.5713117  +6.5998279     1564.329     2490.451     2606.583     78.36803     155.9305     312.1715      1.675     4.08      823.559     55.01984     224.9777        16     1.362     0.786  48.36   0
       459    758.4625    240.7326 307.6167641  +6.5964132     1485.683     2311.808     2427.716     78.24432     156.0547     312.1405      1.691     5.07     824.0535     55.01984     234.3477        18     1.635     0.761  53.58   0
       460    785.2708    231.6452 307.6059327  +6.6010597     11917.18     19923.95     22042.57     78.24432     156.1168     312.1405      1.834     4.03     823.6204     55.01984     1704.473        58     1.743     1.308  37.85   0
       461    459.2198    232.4302 307.7413502  +6.5898296     20421.26     34370.81     36683.86     77.74753     155.9305     312.0163      1.802     3.84     823.1536     55.01984     2820.115        58     1.708     1.226  45.49   0
       462    319.9057    234.0824 307.7991646  +6.5844765     569.8922     747.0153     797.4173     77.99632     156.4267     312.2646      1.448     5.39     827.6451     55.01984     84.08466         5     1.128     0.737 -12.63   0
       463    464.9784    226.7633 307.7391490  +6.5923617     1346.249     2385.997      2854.38     77.87202     155.8684     311.8921      2.040     5.03     822.8399     55.01984     181.1376        19     1.507     0.939  47.88   0
       464    147.4654    225.8524 307.8710713  +6.5820827     2111.408     3557.692     4004.639     78.24432     156.0547     312.1095      1.825     4.34      833.203     55.01984     275.4991        22     1.440     1.027  64.39   0
       465    122.1155    224.6454 307.8816419  +6.5817287     1011.084     1803.596     2514.558     78.24432     156.0547     312.1405      2.363     6.46     833.6158     55.01984     123.3401        13     1.383     0.848  52.99   0
       466    173.8923    223.7724 307.8601644  +6.5838294     692.8365     1012.025     842.6557     78.36803     155.8684     312.0163      1.313     3.61     832.6502     55.01984      122.998         6     0.872     0.506  30.83   0
       467    921.5309    221.7965 307.5496580  +6.6096722     1471.333     2593.112     2668.734     77.62283      155.744     311.9232      1.808     3.90     821.5878     55.01984      200.171        17     1.222     0.965  58.90   0
       468    583.2736    218.2083 307.6902966  +6.5998540     4183.588     7096.233     7318.346     77.87202     155.6818     311.9853      1.811     3.97     822.0046     55.01984     587.7147        36     1.688     1.078  43.28   0
       469    545.7730    218.1109 307.7058779  +6.5986391      1823.93     3152.662     3181.418     78.36803     155.8684     312.0163      1.806     4.66     821.9103     55.01984     258.2657        22     1.588     0.937  51.65   0
       470    303.5198    219.0671 307.8064777  +6.5901247     913.4413     1292.923     1096.576     78.36803     156.3648     312.1405      1.544     4.79     827.9766     55.01984     133.1904        10     1.094     0.692  45.09   0
       471    387.8451    217.4718 307.7715032  +6.5936118     1289.829     2137.823     2269.505     78.12042     156.1168     312.1405      1.761     4.31     825.0295     55.01984     192.7758        18     1.325     0.958  56.01   0
       472    944.1204    215.3112 307.5404912  +6.6131025     2459.721     4057.335     4221.858     77.99632     156.3648     312.2336      1.753     4.31      820.941     55.01984     377.6691        28     1.627     0.994  51.07   0
       473    890.3132    214.7939 307.5628615  +6.6115217     10266.87     16463.15     17564.83     77.74753     155.8062     311.8611      1.703     3.88     822.0259     55.01984     1487.564        43     1.631     1.068  48.01   0
       474    977.0321    212.7135 307.5269058  +6.6152719     8755.553     14611.09     15629.06     78.24432     155.9305     312.1095      1.783     3.95     820.4236     55.01984     1237.727        43     1.749     1.055  46.53   0
       475    318.1109    215.5994 307.8005336  +6.5920457     765.2487     1456.176     1735.598     77.49794     155.6196       311.83      1.983     4.93     827.5387     55.01984     102.6777         9     1.136     0.606  12.66   0
       476    565.7167    214.6199 307.6977106  +6.6007477     918.8143     1485.448     1325.084     77.87202     155.8062     312.0784      1.685     3.79     821.8359     55.01984     139.1301        10     1.014     0.735  38.10   0
       477    209.3626    214.7107 307.8457367  +6.5887616     701.2825      988.288     935.0467     78.24432     156.0547     312.1715      1.688     4.40      831.851     55.01984     107.5039         7     0.898     0.645  19.55   0
       478    688.4067    212.6992 307.6468082  +6.6056443     2534.372     3892.171     4052.451     77.99632      155.744     311.9232      1.743     4.12     822.4722     55.01984       370.42        23     1.495     0.878  50.36   0
       479     16.4520    211.3417 307.9259818  +6.5836657     22881.99     38740.52     42366.65     78.24432     156.1168     312.1405      1.850     4.02     835.9038     55.01984      3048.91        62     1.767     1.252  46.70   0
       480    262.5437    212.3783 307.8237245  +6.5915103     1076.406     1783.872     1787.563     77.87202     156.1168     311.9542      1.764     4.49     829.6955     55.01984     155.0948        12     1.271     0.733  29.27   0
       481    497.0194    207.4785 307.7264885  +6.6013955     1833.259      2946.84     2953.461     77.74753     155.8062     312.1095      1.738     4.15     821.5452     55.01984     222.9066        21     1.366     0.995  33.15   0
       482    881.2250    203.3859 307.5670197  +6.6159277     1752.577     2893.146     3113.705     77.99632     155.9305     312.0784      1.768     4.31     821.6744     55.01984     277.7897        20     1.560     0.789  51.71   0
       483    828.6660    203.8631 307.5888381  +6.6139768     1842.401     3017.906     3009.488     78.24432     156.1168     312.1405      1.778     4.36     822.2452     55.01984     261.4492        17     1.414     0.810  57.78   0
       484    508.9595    203.4593 307.7216638  +6.6034545      2304.01     4118.834     3649.261     78.24432     156.1168     312.2025      1.848     4.54     821.3185     55.01984     305.6589        25     1.612     0.977  49.44   0
       485    740.5178    200.7717 307.6255609  +6.6123093     36128.12      58815.5     63156.96     78.12042     155.9305     312.0784      1.765     3.80     822.2688     55.01984     5165.776        72     1.765     1.219  47.66   0
       486    343.5788    200.0271 307.7904796  +6.5993281      5255.82     11624.41     13324.49     77.74753     155.9305     312.1095      2.283     5.99     826.5114     55.01984     616.4741        50     2.003     1.367  86.38   0
       487    974.2253    199.3766 307.5285188  +6.6206838     2580.298     4162.316     4451.671     77.74753     155.9926     312.1095      1.752     4.39     819.7086     55.01984     388.9175        24     1.530     0.924  42.23   0
       488    908.4195    197.8931 307.5559065  +6.6191022     6768.537     11054.09     11499.76     78.12042     155.8684     311.9853      1.747     3.95     820.8608     55.01984     969.2126        37     1.635     1.061  52.63   0
       489   1012.5596    197.8957 307.5126430  +6.6225725     1611.078     2719.835     2867.742     78.24432     155.9926     312.2956      1.823     4.31     819.0008     55.01984     275.3165        17     1.481     0.754  55.84   0
       490    451.9255    196.9108 307.7455769  +6.6042471     4374.346     7425.555     7703.641     78.24432     156.4267     312.2336      1.841     3.99      822.143     55.01984     553.7817        32     1.642     1.015  48.81   0
       491    227.3222    193.9566 307.8389772  +6.5979317     572.3506     944.1979     910.3734     78.12042     156.1168     312.1405      2.010     4.89     831.4291     55.01984     94.90857         5     1.207     0.562  40.03   0
       492    109.2242    188.1571 307.8882300  +6.5963567     4224.039     6936.911     7375.018     77.87202     155.9926     311.9853      1.789     4.05     833.5218     55.01984     607.7978        31     1.617     1.012  49.49   0
       493    279.5965    184.9113 307.8175679  +6.6034206     29874.36     50840.81     54592.11     77.74753     155.8062       311.83      1.816     3.98     828.8691     55.01984     3789.048        71     1.790     1.285  44.99   0
       494    254.9269    185.9406 307.8277809  +6.6021675      5838.59     9884.171      10244.3     78.36803     156.1168     312.1405      1.785     4.03     830.0711     55.01984     795.1572        39     1.612     1.172  51.12   0
       495    928.2300    187.1190 307.5480378  +6.6242104     802.9212     1382.719     1480.855     78.12042     155.9926     312.1095      1.864     3.27     819.9656     55.01984     141.5852         6     0.857     0.508  57.22   0
       496    605.7588    186.4967 307.6820227  +6.6136966     600.2875     951.0229     1017.259     78.24432     155.9926     312.2956      1.352     3.45      821.192     55.01984     111.2123         5     0.779     0.442  21.42   0
       497    708.4095    183.7966 307.6394699  +6.6182437     818.6004     1103.544     1205.714     77.62283     155.8062     311.9853      1.667     4.51     821.5516     55.01984     149.4403        10     1.227     0.600  54.04   0
       498    403.6469    180.4034 307.7661885  +6.6094429     44832.64     75317.35     81001.14     77.62283     155.8684     311.7989      1.813     3.93     823.4672     55.01984     5957.895        80     1.780     1.299  46.41   0
       499    159.5479    181.6195 307.8675470  +6.6007471     3669.024     6164.816     6831.821     77.74753     156.1788     311.9542      1.864     4.07     832.0511     55.01984     459.8391        31     1.591     1.047  47.12   0
       500    420.8638    180.7911 307.7590234  +6.6098600     1180.799     1710.195     1824.916     77.74753     155.9305     311.9542      1.586     4.49     822.7361     55.01984     157.8413        13     1.139     0.807  60.42   0
       501    742.9805    176.6492 307.6253482  +6.6223492      30019.5     49231.08     52906.59     77.74753     156.1788     311.9853      1.751     3.92     821.2528     55.01984     4231.125        68     1.754     1.190  48.41   0
       502    307.6639    178.0604 307.8061397  +6.6071906     16345.74     27689.27     30329.26     78.24432     156.0547     312.1715      1.818     3.92     827.6621     55.01984     2133.422        59     1.751     1.259  47.97   2
       503    314.8454    177.9987 307.8031586  +6.6074570     1913.946     3759.954      5486.87     77.62283      155.744     311.7368      2.832     6.80     827.3757     55.01984     253.3478        30     1.997     1.313 -88.51   3
       504    690.9428    178.2881 307.6469112  +6.6199337     975.9544     1525.912     1757.126     78.24432     155.9926     312.2646      1.755     3.56     821.3568     55.01984     161.0499         9     0.988     0.626  54.11   0
       505    791.4390    177.0420 307.6052038  +6.6238056     999.8052     1797.921     1452.902     77.99632     156.1168     312.0163      1.754     6.33     821.2214     55.01984     164.9803        14     1.561     0.901  28.83   0
       506     59.8009    173.8030 307.9092453  +6.6006194     8117.073     13679.05     14133.03     77.62283     155.6818     311.8921      1.767     4.00     834.9442     55.01984     1074.011        40     1.650     1.091  44.62   0
       507     93.5698    171.9020 307.8952823  +6.6025400     1309.815     1894.032     1956.501     78.36803     155.8684     312.1715      1.631     4.50     833.8458     55.01984     181.6752        13     1.240     0.811  57.78   0
       508   1001.1847    170.8103 307.5182761  +6.6333743     964.1155     1494.247     2361.533     77.99632     155.8684     312.0163      1.810     4.29     817.5598     55.01984      139.981        10     1.135     0.608  44.23   0
       509     12.0336    169.3796 307.9292369  +6.6008377     541.7939     656.5411      423.971     77.74753     155.9305     311.9853      1.407     4.99     836.5458     55.01984      110.777         5     0.970     0.726  65.39   0
       510    878.1691    168.8751 307.5694470  +6.6300717      3170.19       3399.8     3105.323     78.12042     156.1788     312.1405      1.097     3.62     820.1469     55.01984     1265.734         7     1.120     0.337 -75.77   0
       511    727.4542    164.8968 307.6321932  +6.6266818     614.8639     1050.661     915.0717     78.12042     156.1168     312.3577      1.873     6.71     820.7904     55.01984     96.83429         8     1.758     0.718  75.49   0
       512    576.4673    160.8410 307.6950543  +6.6233069     625.9912     1087.347     1300.122     78.24432     156.0547     312.2025      1.667     2.32     819.8124     55.01984     127.5413         5     0.704     0.459 -68.43   0
       513   1002.2632    157.4049 307.5182772  +6.6389440      1918.42     3323.393     4393.424     77.62283     155.9305     311.9232      2.127     4.58     816.8185     55.01984     294.0455        22     1.534     0.920  46.92   0
       514    585.3842    155.0586 307.6915445  +6.6259922     955.9033     1643.726     2034.959     77.62283     156.0547     311.8921      1.760     4.89     819.8574     55.01984     142.8779        14     1.296     0.866  67.33   0
       515    278.5127    151.1472 307.8191576  +6.6173214     27622.66     46522.62     50483.83     78.24432     155.9926     312.2646      1.847     3.87     828.9604     55.01984     3673.172        70     1.818     1.269  46.20   0
       516    593.4930    152.6823 307.6882558  +6.6272444     1823.893     2828.427      3254.59     77.99632     156.4267     312.2336      1.701     3.92     819.9655     55.01984     237.8533        17     1.253     0.845  56.68   0
       517    338.0640    153.0502 307.7943549  +6.6185344     918.1307     1482.848       1350.1     78.24432     156.0547     312.1715      1.614     5.14     826.2415     55.01984     150.6976        12     1.291     0.743  54.12   0
       518     23.7389    149.5079 307.9250470  +6.6094342     4152.718     6890.084     7310.172     78.12042     156.1168     312.2336      1.793     4.12     835.9741     55.01984     534.4301        32     1.609     1.061  47.32   0
       519    710.1810    147.7711 307.6399446  +6.6331739     7230.421     11944.99      12647.1     77.87202     155.9305     312.0784      1.751     3.98     820.0394     55.01984     1031.975        38     1.604     1.087  46.90   0
       520    187.6974    149.0611 307.8569536  +6.6151324      677.014     1358.421       892.17     77.99632     156.1168     312.2336      1.989     5.48     831.1514     55.01984     103.6842         8     1.271     0.666  52.94   0
       521    263.9591    145.7709 307.8253848  +6.6190520     719.3824     1237.407     1365.299     77.87202     155.9305     311.9853      1.833     6.37     829.5916     55.01984     94.90851        12     1.246     0.913  49.52   0
       522    120.8909    144.8410 307.8848479  +6.6146288     4464.565     7511.134     7849.229     78.24432     156.1168     312.2025      1.761     3.87     832.2861     55.01984     611.0093        36     1.632     1.088  50.12   0
       523    391.5102    140.9195 307.7725613  +6.6253343      3527.76     6265.265     6513.151     77.99632     156.3028     312.2336      1.905     3.89     823.2483     55.01984     479.2864        36     1.793     1.072  53.91   0
       524    582.8399    142.9109 307.6930103  +6.6309215      736.231     1257.684     1625.777     78.24432     156.0547     312.1715      2.302     5.13     819.4944     55.01984     108.1141         8     1.169     0.636  25.16   0
       525    459.9713    142.3174 307.7440737  +6.6270520     1314.727     2199.437     2374.524     78.12042     155.9305     312.0784      1.759     3.92     820.1666     55.01984     198.9319        15     1.239     0.853  43.28   0
       526    648.6982    141.8803 307.6656850  +6.6335501     771.5789     1385.927     1408.876     78.12042     156.4886     312.2025      1.827     4.65     819.8699     55.01984     101.6855         8     0.957     0.720  18.21   0
       527    355.9921    139.7572 307.7873556  +6.6246229     2909.737      4691.12     4845.621     77.74753     155.9305     311.8611      1.699     3.77     825.3919     55.01984     382.0154        25     1.490     0.945  53.95   0
       528    110.3420    139.5131 307.8894101  +6.6164733     1573.543     2677.658     2779.894     78.24432     156.1168     312.2646      1.839     4.74     832.4739     55.01984     235.8354        20     1.387     1.040  42.22   0
       529    938.1966    138.6284 307.5455232  +6.6445595     550.2607     657.6715     411.0141     77.74753     155.8684     311.9853      1.234     3.76     817.4443     55.01984     74.74493         5     1.038     0.390  85.46   0
       530    671.8800    137.5382 307.6562004  +6.6361176     747.1866     1061.609     1001.186     78.36803     156.1788     312.1405      1.435     3.59     819.6388     55.01984     108.3215         9     1.067     0.563  62.68   0
       531   1002.7620    134.1013 307.5188509  +6.6485803     1438.542     2344.753     2405.094     78.24432     155.9926     312.3576      1.796     4.00     816.1894     55.01984     212.4134        15     1.335     0.744  39.90   0
       532    207.9271    128.5665 307.8492422  +6.6242718     4838.692     7858.375     7780.722     78.12042     156.0547     312.1405      1.724     4.05     830.6951     55.01984     616.8853        30     1.576     1.015  51.08   0
       533    669.6498    127.5681 307.6574621  +6.6401586     5573.186     9021.408     9395.659     77.99632     156.1168     312.0784      1.753     3.74     819.1044     55.01984     854.9044        37     1.630     1.060  42.04   0
       534     90.5767    128.5051 307.8979929  +6.6203524     1961.376     3243.747     3552.929     78.24432     155.8684     312.0163      1.881     4.28     832.7622     55.01984     288.2332        20     1.392     0.963  52.22   0
       535    817.4924    126.9062 307.5960633  +6.6453713     888.8298     1141.148     1028.606     78.24432     156.6124     312.1405      1.345     4.96     818.4922     55.01984     144.9677         9     1.204     0.579  64.96   0
       536    621.8541    124.7512 307.6774133  +6.6397229     8551.003     14014.27     15363.63     78.24432     156.1168     312.2025      1.771     3.87      819.207     55.01984     1178.351        39     1.605     1.087  48.28   2
       537    625.4439    116.3377 307.6762049  +6.6433160     49430.75      79701.3     85560.27     78.24432     156.0547     312.2025      1.773     3.85     818.8232     55.01984     7438.964        83     1.779     1.253  44.89   2
       538    560.2202    124.3288 307.7030327  +6.6378349      551.946     1112.272     1631.216     77.87202     155.9926     312.0784      1.758     5.30     818.7607     55.01984     97.49164         8     1.628     0.487  60.36   0
       539    256.0344    125.0652 307.8293758  +6.6273328     745.2327     988.6107     869.6413     78.12042     156.1168     312.1405      1.403     3.37     829.7896     55.01984     129.0034         8     0.857     0.718  -5.56   0
       540     20.4901    123.9213 307.9272622  +6.6198862     667.4836     1485.482     1387.264     77.99632     156.3648     312.2336      2.201     7.07     835.5316     55.01984     111.3378        10     1.578     0.887  53.16   0
       541    349.1459    120.5568 307.7908472  +6.6323188     3253.219     5927.338     6579.528     78.24432     156.1168     312.1405      1.999     3.89     825.8087     55.01984     431.3145        35     1.672     1.277  61.72   0
       542    530.6443    119.7874 307.7154726  +6.6387193     1678.554     2676.901     2719.193     77.74753     155.9305     311.8921      1.651     4.77     818.6653     55.01984     206.8228        16     1.323     0.845  61.72   0
       543    994.9500    119.1539 307.5225974  +6.6544902     715.7125     1412.361     1449.687     78.24432     155.9926     312.1715      1.894     5.35     815.8676     55.01984     97.58771        10     1.269     0.658  64.68   0
       544     32.4951    115.7375 307.9225522  +6.6236683     3345.667     3081.409     2948.963     78.12042     156.1788     312.1715      0.734     1.13     834.8349     55.01984     1391.118         5     0.561     0.421  20.31   0
       545    304.5474    110.1040 307.8097273  +6.6351370     3267.955     5504.251     6176.148     78.12042     156.1168     312.3887      1.853     3.92     828.0643     55.01984     423.0402        31     1.565     1.083  46.29   0
       546      2.8902     93.3345 307.9356084  +6.6319190     693162.8      1409059      1525886     78.12042     144.5169     258.7968      2.121    11.49     835.4923     55.01984     62445.89       312     2.221     1.655  71.45  28
       547    704.2722    104.4406 307.6438557  +6.6508629     878.4258     1295.332     1614.363     78.12042     156.1168     312.2025      1.907     4.92     817.7624     55.01984     146.8957         9     1.218     0.568  52.62   0
       548    675.7632    103.5294 307.6557305  +6.6502860     1312.435     2178.688      2231.55     78.12042     156.1788     312.2025      1.742     4.73     817.7773     55.01984     180.1532        14     1.348     0.811  64.67   0
       549    689.7261    100.2150 307.6500409  +6.6521209     3034.909     4740.817     5421.615     77.74753     155.8684     312.0474      1.750     3.72     817.5565     55.01984     411.5294        25     1.408     0.995  43.63   0
       550    431.4751     91.1798 307.7576352  +6.6472058     3793.297     6003.437     5633.006     77.87202     155.9305     312.0784      1.694     3.79      820.055     55.01984      549.481        30     1.545     1.021  47.04   0
       551    886.0355     87.6040 307.5689055  +6.6638824     2016.115     3349.898     3823.678     77.37284     155.9926     311.9232      1.808     4.06     815.7921     55.01984     290.3191        23     1.512     0.899  50.75   0
       552    904.2273     86.6601 307.5613790  +6.6648789     3558.406     5849.263     6092.341     77.87202     156.1788     312.0474      1.745     3.96     815.3947     55.01984     530.9086        29     1.603     0.982  49.34   0
       553    242.3615     84.3728 307.8364297  +6.6436705     852.0381     1252.776     1933.603     77.87202     155.9305     311.9853      1.618     5.27     829.7048     55.01984     160.0873        10     1.333     0.682  39.68   0
       554    394.8028     82.9592 307.7731475  +6.6493697     1835.473     2881.418     2190.079     77.49794     155.8062     311.8921      1.579     3.73     822.2933     55.01984     248.7371        17     1.262     0.853  47.37   0
       555    142.8186     79.9146 307.8779334  +6.6421659     2882.817     4665.233     5016.127     77.87202     155.8684     312.0784      1.700     4.05     829.2231     55.01984     377.1725        22     1.502     0.876  48.00   0
       556     24.7561     77.8802 307.9270480  +6.6390341     11018.59     18977.04     20974.94     78.24432     156.1168     312.1095      1.860     4.16     833.6763     55.01984     1417.892        55     1.761     1.232  50.03   0
       557    290.9472     78.5232 307.8164430  +6.6477164     1250.258     2027.923     2770.167     78.36803     156.1168     312.1405      2.158     4.10       828.88     55.01984     199.8016        16     1.373     0.886  53.86   0
       558    759.7200     77.3643 307.6217292  +6.6638925      664.335     1094.173     1506.481     78.12042     156.1788     312.1715      2.000     4.99     816.9135     55.01984     92.74817         8     1.167     0.603  45.37   0
       559    982.3318     75.9959 307.5292863  +6.6718852     432.9844     553.9142      58.1564     77.62283      155.744     311.9232      1.377     4.23     813.9033     55.01984     78.00696         5     0.837     0.610  -0.47   0
       560    826.5200     72.5177 307.5941387  +6.6681239     5727.439     9119.704     9695.066     78.24432     156.3648     312.2336      1.740     4.01     816.2946     55.01984     843.5369        34     1.615     1.007  44.06   0
       561    771.5792     72.9304 307.6169510  +6.6661189     3032.642     5017.275     5244.885     77.87202     155.9926     312.0784      1.767     4.01     816.7589     55.01984     436.1857        26     1.496     0.994  42.51   0
       562    596.2643     85.2171 307.6893745  +6.6551860     1633.575     2616.775     2411.494     77.74753     156.0547     311.9853      1.624     4.69     817.9875     55.01984     238.1868        17     1.528     0.750  49.05   0
       563    416.4466     73.1044 307.7644879  +6.6541632     968.9597     1538.887     1270.745     78.12042     156.0547     312.2956      1.658     4.27     820.6813     55.01984      127.843        11     1.035     0.723  22.44   0
       564    533.6681     70.6188 307.7158718  +6.6591167     1150.527     1713.476     1171.887     77.87202     156.0547     312.0784      1.605     4.94     817.7497     55.01984     148.2141        15     1.308     0.817  44.67   0
       565     64.9409     69.6917 307.9106314  +6.6437664     2868.635     4791.379      5539.11     78.12042     156.0547     312.2336      1.774     4.06       831.42     55.01984     386.7182        27     1.462     1.035  46.53   0
       566     49.1742     70.4996 307.9171539  +6.6429024     916.7286     1441.168     1428.159     78.24432     155.8684     312.0474      1.733     3.79     832.1522     55.01984     143.5822        11     0.971     0.887 -41.49   0
       567    426.1246     68.5400 307.7606211  +6.6563718     913.1444     1343.814     1042.074     78.49154     156.1168     312.1095      1.782     3.48     820.2785     55.01984     129.5762        10     0.985     0.812  59.99   0
       568    588.4384     65.8608 307.6932772  +6.6629142     1144.592     1503.951     1863.926     78.24432     156.1788     312.1405      1.434     4.87      817.548     55.01984     156.3431        10     1.109     0.744  67.05   0
       569      7.3587     65.0475 307.9347095  +6.6437454     2353.867      4052.18     5218.514     78.12042     156.1168     307.0403      1.963     4.66     833.8062     55.01984     314.3923        27     1.638     1.024  50.89  16
       570    765.9087     60.1743 307.6197354  +6.6711951     1752.762     3068.666     3183.766     78.36803     155.8684     311.9853      1.911     4.35     816.5921     55.01984     296.5649        21     1.576     0.817  46.77   0
       571    406.7483     60.3912 307.7689457  +6.6590858     876.7715     1537.564     1690.188     77.74753     155.9926     311.8611      2.027     5.04     821.4712     55.01984      126.442        10     1.325     0.675  50.23   0
       572     79.7364     60.8337 307.9047846  +6.6479205     783.3195     1392.166      923.157     78.12042     156.1788     312.1095      1.763     4.27     830.2654     55.01984     108.2212         7     1.118     0.465  55.62   0
       573    103.8041     59.0292 307.8948472  +6.6494749     915.9535     1509.875     2132.137     77.74753     155.9305     311.9853      2.331     4.79     829.2823     55.01984     147.1723        14     1.398     0.732  56.78   0
       574    421.8063     53.7534 307.7629135  +6.6623306     2180.689     3766.803     3833.904     77.74753     155.9305     311.7989      1.755     4.17     820.5112     55.01984     295.8029        27     1.621     0.991  51.61   0
       575     92.8116     53.9104 307.8995869  +6.6512181      8587.26     14402.03     15187.76     77.99632     155.8062     311.9853      1.780     4.04     829.3109     55.01984     1195.215        44     1.719     1.115  46.07   0
       576    635.5989     46.0225 307.6743511  +6.6726810      16802.9     27701.36     29582.77     77.87202     155.8062     311.8921      1.754     3.84     816.8823     55.01984     2488.156        53     1.706     1.143  48.27   0
       577    259.4550     47.9135 307.8305594  +6.6592941     1388.392     2216.792     3424.724     78.24432     156.0547     312.2956      2.071     4.41     829.1192     55.01984     200.1575        15     1.275     0.864  50.42   0
       578    665.0923     47.0246 307.6620637  +6.6732537     572.7009       818.89     1089.221     78.36803     155.8684     311.9853      1.388     4.49     816.6808     55.01984     81.15863         6     1.008     0.568  43.04   0
       579    535.3267     41.9744 307.7161472  +6.6709962     4695.561     7674.239     8194.961     77.87202     155.9926     312.0784      1.747     3.94     817.0856     55.01984     724.1577        33     1.636     1.028  51.30   0
       580    253.5599     42.3972 307.8331948  +6.6613731     1652.572      2849.55     3645.442     77.49794     155.8684     311.8921      2.109     4.69     829.0786     55.01984     232.9649        21     1.515     0.915  36.70   1
       581    261.4546     38.0452 307.8300619  +6.6634346     8373.879     14233.75     15898.52     78.24432     156.1168     312.1405      1.851     3.94      829.026     55.01984     1166.989        48     1.698     1.219  46.77   0
       582      2.8690     40.0693 307.9374200  +6.6539044      932.564     1568.804     1144.465     78.24432     144.3157     258.4972      1.844     6.83     832.6464     55.01984     135.7734        14     1.545     0.847  55.71  24
       583    918.8922     37.8386 307.5569238  +6.6855212     1730.931     2790.719      2586.39     78.36803     156.0547     312.2025      1.709     4.92     813.5275     55.01984     243.7271        20     1.617     0.806  49.61   0
       584    621.7500     36.2881 307.6804323  +6.6762359     2886.305     5377.214      6620.52     78.24432     155.9305     312.2646      2.183     5.02     816.7716     55.01984      430.101        34     2.076     1.025  62.06   0
       585    440.8878     37.6991 307.7555271  +6.6695972     20592.78      34087.7     35792.46     78.24432     156.5505     312.1715      1.751     3.88     819.5988     55.01984     2716.155        59     1.713     1.230  43.10   0
       586    321.3056     38.5936 307.8051782  +6.6652174     1094.188     1928.151      2233.62     77.99632     155.8062     311.9542      1.965     4.92     827.3214     55.01984     157.9575        12     1.176     0.857  52.01   0
       587     26.9185     37.7580 307.9275073  +6.6556681     2035.494     3565.918     4167.122     78.24432     156.1168     312.0784      1.909     5.08     831.4574     55.01984     269.0979        26     1.799     0.944  55.81   0
       588    212.1370     38.7595 307.8505266  +6.6614833     396.3863      468.263      122.315     78.24432     156.0547     312.2025      1.402     3.41      828.903     55.01984     79.41052         5     0.983     0.341  43.06   0
       589    525.4250     37.3069 307.7204181  +6.6725913     628.4009     875.5886     990.7796     78.36803     155.8684     311.9853      1.396     3.87     817.0678     55.01984     96.75684         5     1.008     0.426  74.01   0
       590    554.0018     37.2261 307.7085482  +6.6735815     498.2858     706.3782      752.829     77.87202     155.8062     311.9232      1.416     3.74      816.877     55.01984     89.88513         5     0.807     0.497  55.63   0
       591    249.3459     34.5420 307.8352107  +6.6644740     2720.181     4293.317      4729.34     78.36803     156.1168     312.1405      1.762     4.16     829.0079     55.01984      356.819        23     1.475     0.934  41.69   0
       592    302.4534     32.1630 307.8132274  +6.6672391     945.9165     1519.216     1424.362     78.12042     156.1168     312.1715      1.827     5.39     828.3085     55.01984     118.5623        10     1.162     0.707  64.11   0
       593    939.2134     27.6018 307.5488239  +6.6904246     861.7072     1276.936     1348.029     77.87202     155.8062     311.9232      1.573     3.42     812.4951     55.01984     126.9781         6     0.721     0.643  55.85   0
       594    690.6035     27.0560 307.6521359  +6.6823495      1685.79     2549.958     2579.618     77.62283     155.9305       311.83      1.551     3.40     816.3071     55.01984     262.5229        15     1.242     0.741  51.28   0
       595     96.2704     28.0184 307.8990256  +6.6620219     534.1494      718.826     724.1642     77.87202     155.9926     312.0784      1.530     4.43     827.8312     55.01984     113.8088         7     1.206     0.463  40.32   0
       596    201.4670     22.7465 307.8555003  +6.6677345     701.8101      1154.53     1300.937     78.24432     156.0547     312.0474      1.443     3.27     828.4563     55.01984      125.942         5     1.123     0.276  36.77   0
       597    956.8527   1016.5020 307.5083628  +6.2827918     5118.004     9754.208     10261.92     78.12042     156.1168     312.3577      2.010     4.59     844.2123     55.01984      562.807        43     1.804     1.255  44.35  16
       598    256.1210     21.9392 307.8328215  +6.6699036     678.4772     1005.586     1120.875     78.36803     156.1168     312.1095      1.539     3.88     828.8747     55.01984     105.0341         6     0.904     0.478  57.97   0
       599    711.3883   1017.1274 307.6102478  +6.2743451     841.7426     1591.016     2300.485     77.74753      155.744     309.8667      2.154     6.58     849.3712     55.01984     101.6647        12     1.461     0.831  43.70  16
       600    241.0705   1016.4968 307.8055158  +6.2588608     1228.478     2048.711     2352.195     78.12042     156.2408     312.1405      1.768     4.32      851.491     55.01984     161.8868        15     1.220     0.849  32.57  16
       601    716.6686   1014.2951 307.6081507  +6.2756906     2330.788     4228.862     5056.167     78.12042     156.2408     312.1715      1.979     4.08     849.1864     55.01984     315.3859        28     1.529     1.127  42.81  16
       602    439.5913   1015.3368 307.7231429  +6.2659942     759.0738     1311.724      1518.36     77.74753     155.9305     311.9542      1.712     5.43     851.4871     55.01984     127.7187        11     1.354     0.828  43.03  16
       603    732.2086   1013.3324 307.6017316  +6.2766069     632.7128     1223.038     1217.541     77.74753     155.8684     312.0474      1.959     4.77     848.8659     55.01984     98.41711         7     1.003     0.643 -88.92   0
       604    363.1645   1011.6530 307.7549943  +6.2649545     1567.354      2553.81     2643.684     78.12042     156.1168     312.1715      1.791     4.07     851.4081     55.01984     201.3348        17     1.313     0.846  63.29   0
       605    545.5786   1002.2433 307.6795835  +6.2749467     3745.987     6493.055     7856.686     77.74753     155.9926     311.9542      1.979     4.41     850.9991     55.01984     431.5249        32     1.650     1.097  45.78   3
       606    542.8738    994.3517 307.6809716  +6.2781138     7328.717     12757.68     13853.12     78.24432     156.1788     312.1715      1.888     4.31     850.8388     55.01984     888.5293        43     1.765     1.162  52.58   3
       607    750.1099   1001.5930 307.5946936  +6.2820507     6764.844     11955.74     12988.24     77.87202     155.8062     311.9232      1.922     4.16     848.0646     55.01984      793.403        44     1.686     1.237  49.47   0
       608    515.7831   1003.1483 307.6919225  +6.2735761     995.9354     1770.415     2064.987     77.74753     156.1788     311.8921      2.125     4.48     851.1003     55.01984     129.6468        12     1.067     0.854  58.09   0
       609    295.8502   1000.7900 307.7833046  +6.2671819     12795.59     22799.93     25973.82     77.74753     155.9926       311.83      1.972     3.94     850.8544     55.01984     1631.836        68     1.733     1.604  41.85   0
       610    811.7672   1000.8607 307.5691206  +6.2844110      970.343     1854.604     2273.701     77.99632     156.1788     312.0784      2.215     6.59     846.0469     55.01984     152.6409        14     1.451     0.840  47.34   0
       611    419.9204   1000.8962 307.7317950  +6.2712964     843.6371     1253.976     1284.905     77.99632     156.3648     312.2336      1.758     3.78     851.0648     55.01984     131.7432         9     1.000     0.641  36.66   0
       612    911.4841    995.0485 307.5279165  +6.2901359     7237.243     13369.26     14445.75     78.24432     156.1168     312.1715      2.015     4.51       845.06     55.01984     795.0149        49     1.820     1.273  45.51   0
       613    266.8499    998.1906 307.7954312  +6.2672822     836.6572     1288.871     1362.716     77.74753     155.9926       311.83      1.728     5.25     850.7951     55.01984     99.73187        10     1.156     0.674  22.15   0
