#   1 NUMBER                 Running object number                                     
#   2 X_IMAGE                Object position along x                                    [pixel]
#   3 Y_IMAGE                Object position along y                                    [pixel]
#   4 ALPHA_J2000            Right ascension of barycenter (J2000)                      [deg]
#   5 DELTA_J2000            Declination of barycenter (J2000)                          [deg]
#   6 FLUX_APER              Flux vector within fixed circular aperture(s)              [count]
#   9 FLUXERR_APER           RMS error vector for aperture flux(es)                     [count]
#  12 FLUX_RADIUS            Fraction-of-light radii                                    [pixel]
#  13 FWHM_IMAGE             FWHM assuming a gaussian core                              [pixel]
#  14 BACKGROUND             Background at centroid position                            [count]
#  15 THRESHOLD              Detection threshold above background                       [count]
#  16 FLUX_MAX               Peak flux above background                                 [count]
#  17 ISOAREA_IMAGE          Isophotal area above Analysis threshold                    [pixel**2]
#  18 A_IMAGE                Profile RMS along major axis                               [pixel]
#  19 B_IMAGE                Profile RMS along minor axis                               [pixel]
#  20 THETA_IMAGE            Position angle (CCW/x)                                     [deg]
#  21 FLAGS                  Extraction flags                                          
         1    178.9803     23.8840 307.8651923  +6.6677594      4808.67      13301.5     16324.37     89.95934     179.9905     360.5552      2.703     6.58     1164.664     63.56003     495.9662        70     2.236     1.839  47.57   0
         2    924.1292     21.1025 307.5554255  +6.6938674     2615.283     5529.134     6806.191      90.2463     180.5642     360.6269      2.408     6.51     1134.254     63.56003     304.8752        37     1.988     1.247  47.72   0
         3    522.7648     21.8112 307.7223080  +6.6801546     1464.756     3703.336     3949.858     89.81552     180.1341       360.34      2.489     7.10     1145.549     63.56003     167.0585        29     1.540     1.513 -33.33   0
         4    725.2090     20.1589 307.6381787  +6.6876128     1118.298     2473.953     2633.526     89.67147     180.1341     360.3041      2.291     7.88     1140.414     63.56003     149.8981        18     1.351     1.286  35.25   0
         5    989.0706     17.7321 307.5285321  +6.6974248     1322.189      2839.25      3198.82     90.38943     180.4926     360.5552      2.284     6.88     1131.403     63.56003     166.0782        20     1.491     1.072  46.44   0
         6    708.4758     13.9056 307.6453474  +6.6896347     3760.708     9657.951     11686.07     90.10294     180.5642      360.591      2.623     5.93      1140.31     63.56003     475.2928        60     2.082     1.733  55.06   0
         7    629.0073     13.3016 307.6784145  +6.6872253     1886.201     4649.659     5200.571     90.10294     179.9187     360.3759      2.579     7.11     1142.119     63.56003     197.6902        34     1.780     1.526  55.38   0
         8     30.0307      9.6200 307.9276095  +6.6686351     3978.754     10860.55     13206.72     89.81552     180.1341     360.4476      2.690     6.74     1162.029     63.56003     423.3887        63     2.241     1.725  51.86  16
         9    429.0738      9.5128 307.7616825  +6.6820907     2513.459     7360.513     9247.725     90.53234     180.7073      360.591      2.847     7.71     1152.287     63.56003     281.1829        56     2.174     1.766  51.70  16
        10    325.5591      4.6690 307.8048907  +6.6806165     5576.696     15593.04     19613.37      90.2463     180.3493     325.9037      2.818     7.41     1162.786     63.56003     570.4167        70     2.286     1.811  43.27  24
        11     99.2343      5.3319 307.8989790  +6.6727350     991.2785     2888.179     3456.922      90.2463      180.421     334.4007      2.554     8.71     1164.575     63.56003      161.646        22     1.728     1.342 -49.88  16
        12    391.2014      2.9078 307.7776540  +6.6835468      934.864     2345.605     2286.968     89.67147     166.6388     298.9674      2.430     7.46     1156.506     63.56003     129.8635        17     1.425     1.297  12.07  26
        13    653.3214      1.2579 307.6687087  +6.6930108     1339.904      2025.47     1965.035     77.44941     142.0108     269.9738      1.344     4.85     1140.898     63.56003     291.9294        11     1.526     0.436   1.42  24
        14    811.6967   1004.2661 307.5691849  +6.2842399     867.8675     1613.837     1317.436     90.38943      180.421     360.6269      2.028     5.63      1190.18     63.56003     107.4417        11     1.377     0.648  56.27   0
        15    748.5711   1023.7561 307.5947611  +6.2740859      596.465     785.9705     594.8145     77.11485     141.9198     269.5905      1.351     3.73     1190.896     63.56003      110.865         5     0.968     0.412  -7.92  24
        16    267.6415   1001.4384 307.7953409  +6.2671960     565.9579      1323.52     1156.628     90.10294      180.421     360.4476      2.113     4.14     1193.325     63.56003     103.1903         5     0.984     0.498  44.96   0
        17    911.4975    998.0980 307.5279217  +6.2901164     6947.005     12910.96     13713.08     90.38943     180.8504     360.4117      1.973     4.96     1190.046     63.56003     785.6582        39     1.773     1.153  34.79   0
        18   1006.7303    993.6088 307.4884997  +6.2951444     4075.147     7514.485      7980.63     89.81553     179.9905     360.4476      1.941     4.93     1186.109     63.56003     455.8171        33     1.683     1.148  37.64   0
        19    885.1094    994.1551 307.5390189  +6.2908640     9625.564     18574.73     20333.69     90.38943     180.2776     360.7344      2.058     4.95     1189.804     63.56003     1053.892        51     1.848     1.280  34.01   0
        20    598.1350    994.6010 307.6582488  +6.2810928     926.9658     1788.494     2271.711     89.52719     179.9905     360.3041      2.526     4.95     1191.597     63.56003     137.1838         8     1.090     0.636  84.90   0
        21    529.4089    993.3873 307.6868463  +6.2792939     2912.779     6080.846     7228.688     90.10294     180.1341     360.4835      2.398     6.14     1192.285     63.56003     319.6039        36     1.956     1.192  30.10   0
        22    638.5175    992.3587 307.6415444  +6.2833692     1007.323     1990.125     1949.021     90.38943     180.3493     360.5193      2.089     6.96     1190.986     63.56003     123.9519        14     1.527     0.888  46.16   0
        23    795.1263    991.5518 307.5764968  +6.2889355     521.3424      789.553     677.8701     90.38943      180.421     360.6269      1.686     4.52      1189.72     63.56003     102.4645         5     0.862     0.674  42.46   0
        24    482.4032    989.8128 307.7064981  +6.2791956      1461.03     3290.216     3453.291     89.95934     179.9905     360.4476      2.179     7.20      1193.23     63.56003     188.4625        25     1.622     1.260  57.93   0
        25    916.8942    981.7672 307.5262263  +6.2970382     34607.29     65436.24     70448.36     90.53234     180.2059     360.6986      2.012     4.93     1189.082     63.56003     3801.312        77     1.924     1.318  36.80   0
        26    624.1503    978.8832 307.6479670  +6.2884517     688.6055     1217.064     981.2872     90.38943     180.3493     360.6627      1.844     6.86     1190.997     63.56003     90.00476        10     1.438     0.918   4.83   0
        27    224.5499    979.8470 307.8139735  +6.2746625     1201.192     1986.135     2713.334     90.38943     180.2059     360.6269      1.932     5.12     1192.839     63.56003     143.1558        11     1.117     0.839  55.38   0
        28    815.0568    975.5121 307.5687530  +6.2962225       1689.8     3266.776     3274.764     90.38943     180.2059     360.7344      1.942     7.51     1189.064     63.56003     192.4189        23     1.510     1.088  43.17   0
        29    762.9980    973.3480 307.5904577  +6.2953776     4786.559     9538.971     10503.63     89.67147     179.9187     360.1247      2.077     4.83     1189.109     63.56003     550.3438        38     1.744     1.257  34.95   0
        30    233.1045    972.6447 307.8106620  +6.2779230     1118.104     2220.822     2108.526     90.38943     180.2776     360.7344      2.069     6.21     1192.684     63.56003     146.2656        13     1.335     0.916  33.16   0
        31    198.2467    972.4623 307.8251516  +6.2768277     653.6498     970.0298     1028.036      90.2463     180.2059     360.6627      1.669     5.26     1192.069     63.56003      121.431         5     1.087     0.718  80.30   0
        32     57.5812    970.8044 307.8836534  +6.2727845     1886.164     4100.798     3739.971     89.95934     179.9187     360.3759      2.176     6.18     1189.925     63.56003     210.3805        31     1.744     1.313  52.78   0
        33    549.7675    972.1863 307.6790999  +6.2887276     708.9164     1176.656     1272.429     89.95934     180.0623     360.5193      1.755     4.46     1191.607     63.56003     94.65173         7     1.101     0.513  23.40   0
        34    951.1335    968.4999 307.5124430  +6.3036571      5570.41     10416.86     10529.22     90.38943     180.4926     360.5552      1.962     4.92     1187.319     63.56003     595.8077        39     1.783     1.133  38.27   0
        35    924.8525    960.1218 307.5236445  +6.3062395     1699.558     3107.273     2732.051     90.38943     180.3493      360.591      1.935     5.95     1187.718     63.56003     222.9219        22     1.632     0.952  33.13   0
        36    258.1873    956.6157 307.8007805  +6.2853819      2836.03     6208.374     6886.674     90.10294     179.9905     360.5193      2.233     6.01     1192.429     63.56003      302.135        36     1.886     1.266  37.08   0
        37    784.7164    956.9085 307.5819845  +6.3028896     1155.312     2095.708     2182.639     90.10294     180.7073     360.7344      2.066     5.71     1188.486     63.56003     125.2211        15     1.216     1.010  41.18   0
        38    645.6722    956.3096 307.6397824  +6.2984904     3033.553     6171.611     6156.412     90.38943     180.6358      360.591      2.101     5.55     1190.131     63.56003     359.2434        32     1.710     1.239  36.02   0
        39    995.3041    956.7565 307.4944813  +6.3099774     620.0289     1076.651     1409.575     90.38943     180.2776     360.7344      1.646     4.21     1185.089     63.56003      114.105         5     0.918     0.551  37.62   0
        40     26.6880    953.9601 307.8970585  +6.2786988     1574.748      3207.91     3987.397     90.38943     180.2776     360.6269      2.266     6.86     1189.921     63.56003     183.1119        25     1.768     1.114  26.54   0
        41    467.9088    954.0317 307.7137247  +6.2934812      637.869     1404.066     1641.246     90.53234     180.1341     360.6269      2.182     6.91      1191.95     63.56003      100.319         9     1.449     0.923  27.95   0
        42    876.9568    952.3984 307.5438060  +6.3078303     759.0414     1360.614     1539.271     89.67147     179.9905     360.2323      2.023     5.40     1187.472     63.56003     104.5203         8     1.233     0.668  12.96   0
        43    571.2083    948.5545 307.6709852  +6.2992009     853.9512     2001.885     2313.926     89.81553     180.2059     360.1964      2.746     6.68      1191.11     63.56003      117.027         9     1.941     0.645  41.42   2
        44     58.2408    944.6066 307.8842645  +6.2836213     574.9747     1197.799     1899.595     89.67148     179.9905     360.2682      2.756     4.49     1189.826     63.56003     88.14856         5     0.818     0.700  58.17   0
        45    608.0372    943.8788 307.6558387  +6.3023634     678.0066     1134.904     1122.569      90.2463      180.421      360.591      1.917     4.50     1190.708     63.56003     94.65088         6     1.103     0.522  78.95   0
        46    289.0785    942.3237 307.7884267  +6.2923186     950.5369     2112.946     2930.523     90.67503     180.6358     360.6986      3.160     7.43     1192.357     63.56003     145.3927        13     1.559     0.992  29.21   0
        47    756.7935    939.1058 307.5941849  +6.3093064     733.8923     1401.623     999.5444     89.95934     179.9905     360.3759      1.924     6.50     1187.942     63.56003     94.14746         9     1.611     0.736  61.01   0
        48    893.8504    935.3203 307.5373582  +6.3154443     5278.404     10275.95     10228.73     90.38943      180.421      360.591      2.024     5.11     1186.406     63.56003     598.1421        35     1.754     1.146  31.66   0
        49    429.8113    932.4295 307.7302824  +6.3011225     1239.654     2607.903     3165.651     89.81553     180.1341     360.4117      2.331     8.26     1191.372     63.56003     168.8271        21     1.526     1.251  41.16   0
        50    331.7425    931.1912 307.7710742  +6.2983457     5946.668     13192.54     15136.94     89.67147     180.2776     360.2682      2.307     5.65     1192.185     63.56003     688.7598        56     2.035     1.487  35.54   0
        51    251.6785    930.1644 307.8043770  +6.2960829      4548.78     9755.161     10661.16      90.2463      180.421      360.591      2.276     5.43     1191.815     63.56003      571.965        47     1.962     1.374  37.50   0
        52    580.5366    924.2775 307.6679251  +6.3095351     663.9237      1345.62     1463.597     90.67503      180.421      360.591      1.296     3.73     1190.552     63.56003     102.4309         5     1.644     0.243  31.93   2
        53    909.5610    920.2415 307.5313349  +6.3221933     790.5557     1651.975      2692.06     90.10294     180.3493     360.4476      2.666     7.59     1185.416     63.56003     117.7098        15     1.499     1.075  40.80   0
        54    976.9111    915.5082 307.5035055  +6.3263929     618.3039     1107.938     1689.162     90.38943     180.9218     360.6986      1.626     5.02      1183.66     63.56003     99.43652         8     1.511     0.471  30.43   0
        55    745.7433    913.6539 307.5996309  +6.3194445     1342.601     2509.808      2779.35     90.53234     180.3493      360.591      1.974     6.25     1187.129     63.56003     160.0664        17     1.385     0.952  -4.80   0
        56    977.4150    909.2595 307.5035054  +6.3289894     970.1577     1931.896     1903.407     89.81553     180.2776     360.3041      1.891     5.80      1183.26     63.56003      140.325        11     1.538     0.615  32.94   0
        57    532.0289    908.9844 307.6885962  +6.3142249     663.6578      1295.57     1202.238     89.95934     180.0623     360.4835      1.629     3.64     1190.443     63.56003     110.6128         5     0.984     0.388  29.62   0
        58    664.4796    906.9698 307.6336246  +6.3194879     1727.841      3261.95     3520.974      90.2463      180.421     360.5552      1.988     6.44     1188.036     63.56003     204.5027        25     1.641     1.109  34.85   0
        59    204.9296    902.1053 307.8247487  +6.3060963     1446.071     2927.442     2923.866      90.2463      180.421      360.591      2.176     7.27     1190.795     63.56003     160.7888        23     1.651     1.158  61.55   0
        60     61.1666    903.4181 307.8844405  +6.3007225     1959.782     4429.604     5048.085     89.95934     180.1341     360.4117      2.379     6.37     1189.123     63.56003     239.7941        33     1.795     1.365  37.22   0
        61    954.2798    903.9717 307.5132966  +6.3304011     593.2169     927.1907     882.7542      90.2463     180.2776     360.5552      1.714     4.53     1183.643     63.56003     104.0305         6     1.064     0.549 -41.18   0
        62    659.1232    896.1473 307.6362140  +6.3237766     4436.903     9800.769     11065.57     90.53234     180.3493      360.591      2.338     5.74     1187.646     63.56003     447.6731        48     1.926     1.515  24.35   0
        63    797.3273    896.6843 307.5787643  +6.3281729     592.9489     1210.606     1102.653     90.53234     180.7073     360.6269      2.038     4.04     1186.235     63.56003     126.4341         6     1.001     0.466 -86.17   0
        64     19.8838    894.2866 307.9019027  +6.3031033     739.0983     1467.842     1502.651     90.10294     180.5642     360.6269      1.990     5.22     1188.655     63.56003     113.3131         8     1.251     0.615  66.16   0
        65    896.5556    892.2150 307.5376786  +6.3333297     2056.803     3931.601     4391.546     89.67148     180.1341       360.34      1.981     5.37     1183.888     63.56003     222.1108        25     1.568     1.065  32.99   0
        66    342.2039    889.5671 307.7681298  +6.3158796      9379.36     21823.41     26278.74     89.52719     180.2059     360.3041      2.476     5.69     1191.067     63.56003     1061.054        68     2.105     1.620  42.46   0
        67    357.6316    892.6588 307.7616148  +6.3151208     4859.863       5093.5     4549.771     90.10294      180.421     360.5193      0.791     1.12     1190.965     63.56003     1701.239         7     0.546     0.508 -14.71   0
        68     32.3730    892.6526 307.8967685  +6.3041980       721.52     1328.547     1294.147     89.95934     180.4926     360.5193      1.713     3.46     1188.695     63.56003     143.0767         5     0.742     0.466 -77.13   0
        69     76.1397    892.2057 307.8785978  +6.3058546     653.1543     629.3658     1070.357     89.67147     180.2059       360.34      1.407     3.88     1188.961     63.56003     120.4039         5     0.844     0.512  25.65   3
        70     77.9592    890.0039 307.8779162  +6.3068247     723.4288     1236.191     848.3477     89.52719     180.0623       360.34      1.525     5.76     1188.938     63.56003     102.7045         9     1.602     0.584  32.08   2
        71     78.5634    902.4527 307.8772446  +6.3017061     1284.545     2640.537     2742.764      90.2463     180.3493     360.6269      2.206     6.77     1189.161     63.56003     169.4211        20     1.669     1.080  49.04   0
        72    106.4148    880.0515 307.8664284  +6.3118899     979.7072       2311.5      2781.32     89.67147     180.3493     360.3041      2.417     7.00     1189.028     63.56003     149.4175        15     1.655     0.830  28.85   0
        73    672.4080    875.4046 307.6313901  +6.3327839     573.0079     1043.711     1655.562     89.67148     179.9905     360.4117      2.358     4.15     1186.111     63.56003     82.07104         5     1.004     0.489  87.12   0
        74     89.2533    873.7667 307.8737717  +6.3139073     1600.727     3572.421     4022.353      90.2463     180.2776     360.5193      2.187     6.55     1188.786     63.56003     202.6473        26     1.668     1.162  40.82   0
        75    857.8406    873.5817 307.5543919  +6.3397303     1436.998     2981.138     3085.465     89.95934     180.1341       360.34      2.099     6.32     1183.265     63.56003     170.2542        25     1.650     1.119  28.59   0
        76    821.4196    872.9289 307.5695492  +6.3387841     2010.127     4314.289     5145.558     89.95934     180.2059     360.5193      2.210     6.14     1184.566     63.56003     264.2805        29     1.688     1.226  38.93   0
        77    887.1043    873.5192 307.5422328  +6.3407325     1450.666      2532.21     2362.174     90.10294     180.6358     360.6986      1.809     6.00     1182.896     63.56003     186.9319        19     1.520     0.914  30.21   0
        78    557.2827    864.5679 307.6795957  +6.3334063     201632.7     452390.7     521306.4     90.38943     180.1341     360.4476      2.376     5.48     1188.796     63.56003     22018.67       177     2.227     1.738  38.22   0
        79    401.6991    867.2172 307.7441599  +6.3271010     4534.051     10339.89     12217.28     90.38943     180.1341       360.34      2.399     5.92     1189.796     63.56003     513.0756        52     1.986     1.570  40.03   0
        80    344.7805    865.5956 307.7678668  +6.3258619      7273.43     16670.57     19905.41     89.95934     179.9187     360.3759      2.410     5.63     1190.337     63.56003     823.7302        59     2.098     1.502  40.89   0
        81    895.5352    860.5740 307.5391631  +6.3463579     3865.362     8057.921     9166.199     89.95934     180.2776     360.4835      2.223     5.15     1182.184     63.56003     402.5122        38     1.766     1.276  40.63   0
        82    663.0786    861.6027 307.6357306  +6.3381697     2187.214     4728.604     5042.677     89.67147     179.7749       360.34      2.187     6.06     1185.791     63.56003     247.8759        33     1.725     1.354  20.89   0
        83    637.7950    855.7704 307.6464336  +6.3397319     2015.411      4841.24     6250.544     89.81552     180.1341     360.3759      2.995     7.58     1186.447     63.56003     223.6439        39     2.028     1.446  34.59   0
        84    826.9825    855.3333 307.5678276  +6.3462338     1129.813      2247.66     2529.385     89.81552     180.2776     360.4476      2.199     4.17     1183.573     63.56003     162.8134        11     1.085     0.779 -60.52   2
        85    630.7325    850.3567 307.6495504  +6.3417306     1258.186     2983.685     4461.121     90.38943     180.2776     360.6269      2.947     9.50     1186.345     63.56003     181.2374        22     1.833     1.474 -36.94   2
        86    953.0113    853.2859 307.5155214  +6.3512835     729.6932     1120.845     1354.472     89.95934     180.0623     360.4117      1.745     5.49     1180.947     63.56003     118.4159         7     1.290     0.658  10.94   0
        87    914.4694    848.4529 307.5317006  +6.3519935     2225.292     4294.241     4767.566      90.2463     180.2059     360.5193      2.001     5.38     1181.518     63.56003     262.4183        27     1.693     1.092  22.71   0
        88    324.3508    848.5006 307.7769325  +6.3322336     632.0598     1594.549     1596.547     90.38943     180.2776     360.8061      2.379     3.91     1190.341     63.56003     86.75952         6     0.918     0.477 -89.20   0
        89    372.9418    844.6913 307.7568688  +6.3354360     1587.277     3581.276     3880.241      90.2463     180.2776     360.6986      2.288     6.70     1189.398     63.56003     211.1931        26     1.684     1.227  25.09   0
        90    509.1631    834.2744 307.7006113  +6.3443011      1849.65     4112.854     4754.692      90.2463      180.421     360.6269      2.327     6.39     1187.727     63.56003     230.9796        30     1.781     1.263  34.77   0
        91    852.9958    832.6862 307.5577764  +6.3564514      768.795     1227.722      860.166     89.81552     179.9905     360.2682      1.673     4.41     1182.026     63.56003     87.06726         6     0.915     0.604 -89.84   0
        92    555.8564    830.4171 307.6813368  +6.3474567     3488.898     7816.521     10376.14     89.81552     180.2776     360.3041      2.656     5.82     1186.862     63.56003     389.8428        46     1.991     1.466  24.73   2
        93    891.0239    828.1791 307.5421236  +6.3595810     983.1464     2126.961     2595.635     89.95934     180.1341     360.5552      2.209     7.18     1181.105     63.56003     104.0443        16     1.472     0.981  47.08   0
        94    473.4405    829.1711 307.7156282  +6.3452113     887.0125     2010.627     2641.991     89.95934     180.1341     360.4476      2.689     4.69     1187.905     63.56003     111.9659         6     0.951     0.657  14.67   0
        95    115.2998    828.0580 307.8644925  +6.3336519     868.5236     1761.243      1745.84     90.10294     180.3493     360.8419      1.999     6.19     1187.969     63.56003     139.9216         8     1.118     0.962  77.57   0
        96    526.2928    824.2664 307.6938294  +6.3490062     11210.33     25609.52     30105.02      90.2463     180.5642      360.591      2.430     5.46     1186.999     63.56003     1308.822        68     2.119     1.572  39.53   0
        97    939.9216    822.2110 307.5220023  +6.3636757     2731.958     5272.685     5395.564     89.95934     179.9187     360.4476      2.033     5.05     1179.881     63.56003     324.5007        31     1.712     1.135  42.51   0
        98     37.5699    814.7155 307.8972434  +6.3365456     979.1687     1750.101     1823.855     90.38943     180.1341     360.4476      1.988     5.26     1186.836     63.56003     140.4342        11     1.454     0.537  49.45   0
        99    319.3133    812.8512 307.7802275  +6.3467812     1753.458     4055.324       4638.5     90.38943     180.2059     360.6627      2.426     7.24     1189.504     63.56003     206.8872        35     2.082     1.338  37.69   0
       100    784.4692    808.7068 307.5870594  +6.3640630     35362.77     76162.38      85393.7      90.2463     180.4926      360.591      2.256     5.20     1182.246     63.56003     3705.129        86     2.058     1.541  37.83   0
       101     19.2020    811.4301 307.9049870  +6.3372838     1360.946     2928.275     3345.252     89.81553     180.1341     360.3759      2.219     6.40     1186.668     63.56003     180.6963        22     1.482     1.201  33.88   0
       102    241.8862    806.9411 307.8126023  +6.3466222     2942.377     7476.277      11696.2     90.38943     180.3493     360.7344      3.593     6.03     1189.596     63.56003     362.0009        55     2.149     1.652  32.51   0
       103    707.6598    800.5300 307.6192549  +6.3648724     45714.61     114874.2     162759.3     90.53234     180.3493     360.6269      3.025     9.06     1182.108     63.56003     5614.983       153     3.550     1.645  30.61   0
       104    909.7524    803.8545 307.5351555  +6.3702477     5845.644     12169.55     13498.26     90.38943     180.3493     360.6627      2.169     5.24      1179.76     63.56003     619.9104        44     1.871     1.308  37.17   3
       105    906.6815    795.2684 307.5367195  +6.3736898     4509.877     9433.772     9917.235     90.67503     180.6358     360.6269      2.186     5.57     1179.425     63.56003     469.6106        44     1.868     1.337  37.23   2
       106    351.4529    800.8862 307.7672746  +6.3527987     11455.12     27415.06     32400.32     90.38943     180.2776     360.7344      2.499     5.69     1188.394     63.56003     1380.651        72     2.203     1.639  34.99   0
       107    413.2404    798.7679 307.7416690  +6.3557450     12154.44     29001.26     34387.95     89.95934     180.1341     360.4476      2.486     5.73     1187.599     63.56003     1398.265        80     2.182     1.715  37.99   0
       108    401.0659    800.6651 307.7466645  +6.3545537     683.3442      1885.64     2097.747     90.38943     180.3493     360.6269      2.832     6.35     1187.842     63.56003     112.4087         9     1.251     0.906   9.75   0
       109    950.3133    797.3870 307.5185152  +6.3742703     1563.732     3214.068     2932.591     89.95934     180.1341     360.4835      2.068     4.93     1178.595     63.56003     227.8752        23     1.536     1.043  28.97   0
       110    241.2983    785.4174 307.8135728  +6.3554877     778155.9      2415578      3035243     90.38943     180.1341       360.34      2.849     7.87     1188.499     63.56003     63152.07       589     2.752     2.193  44.44   4
       111    682.3281    784.5970 307.6303176  +6.3706031      1444.36     3488.176     3753.161     89.81553     179.9187     360.4117      2.294     7.50     1181.108     63.56003     180.1973        29     1.854     1.219  44.92   0
       112    416.1788    781.3743 307.7410337  +6.3630239     29382.61      70682.9     84208.76     89.95934     180.1341     360.5193      2.511     5.79     1186.514     63.56003     3192.496       101     2.230     1.754  38.96   0
       113    600.6774    785.8467 307.6642088  +6.3673564     619.9201     1049.674     1295.417      90.2463      180.421      360.591      2.010     4.30     1183.098     63.56003     99.92017         5     1.123     0.468  32.38   0
       114    126.8707    785.1577 307.8611332  +6.3517505     673.3268     1181.542     1605.702      90.2463     180.3493     360.6627      2.023     5.58     1186.924     63.56003     97.62134         5     1.174     0.747 -12.76   0
       115    533.8755    780.3036 307.6921571  +6.3674088     3858.957     9471.838     10704.52     89.95934     180.4926     360.6627      2.483     6.12      1184.34     63.56003      467.233        49     2.032     1.524  38.34   0
       116    450.6451    778.8640 307.7267947  +6.3652153     2518.983     5992.633     7574.358     90.38943     180.2776     360.6269      2.601     7.52     1185.874     63.56003     283.6339        47     2.308     1.512  55.36   2
       117    447.1811    771.8682 307.7284698  +6.3679872     1148.301     2635.619      2938.31     89.95934     180.2059     360.5193      2.288     8.15     1185.568     63.56003     154.5144        19     1.700     1.093  23.02   3
       118    779.0115    776.8746 307.5903958  +6.3770219     6828.457     15723.99     17609.23     89.81552     179.9905     360.3759      2.312     5.65     1179.715     63.56003     736.2272        57     2.032     1.503  34.67   0
       119    129.4283    759.6935 307.8609304  +6.3623482     1117.011     2744.534     3421.899     90.53234     180.0623     360.4835      2.801     9.64     1185.814     63.56003     148.7637        18     1.695     1.529  63.48   3
       120    145.2222    768.6481 307.8540646  +6.3591826     1694.963     3586.615     4872.096     89.95934     180.3493     360.4476      2.520     6.12     1186.774     63.56003      220.594        28     1.861     1.170  51.21   3
       121    136.9865    769.1058 307.8574716  +6.3587168     6333.557     15401.92     21464.07     90.10294     180.0623     360.4117      3.154     6.24     1186.506     63.56003     817.6387        89     3.120     1.697  17.31   3
       122    129.7484    765.6161 307.8605973  +6.3599141     1608.313     3403.161     6107.594     89.81553      180.421     360.2682      3.568     6.65      1186.13     63.56003     206.2823        18     1.681     0.987  28.37   3
       123    800.8798    771.6682 307.5814820  +6.3799016      805.803     1778.803     1698.588     90.53234     180.6358      360.591      2.252     6.39     1179.197     63.56003     101.9539        10     1.483     0.774  26.20   0
       124    924.6442    765.2864 307.5302589  +6.3866664     4291.742     9157.886     10117.37     90.38943     180.2059      360.591      2.263     5.39      1177.69     63.56003     463.8195        46     1.930     1.360  38.04   2
       125    918.6509    757.2751 307.5330182  +6.3897739     2250.695     4354.982     4971.192     90.38943      180.421      360.591      2.158     5.33      1177.41     63.56003     230.0796        29     1.605     1.222  39.62   2
       126    973.5647    765.1437 307.5099318  +6.3883565     993.1689     1988.035     2643.301      90.2463     180.3493     360.6269      2.207     6.19     1176.482     63.56003     138.9885        14     1.451     0.872  61.08   0
       127    679.2173    762.8284 307.6323417  +6.3794858     818.7256     1957.789     2821.868     89.95934     180.0623     360.4835      2.849     6.86     1179.798     63.56003     94.37061        14     1.616     0.817  58.06   0
       128    567.2386    762.3903 307.6788943  +6.3759207     1212.775     2696.643     2946.395     89.67148     180.1341     360.2682      2.282     7.04     1182.358     63.56003     156.5784        20     1.585     1.259  72.52   0
       129    415.0133    760.6591 307.7422157  +6.3715364      776.309      1729.17     2608.605     89.67147     180.2776     360.2682      1.754     3.82     1185.356     63.56003     136.5914         6     1.337     0.313  27.78   0
       130    979.0431    756.6239 307.5079403  +6.3920564     1470.864     2965.105     2991.503     89.95934     180.2059     360.4117      2.074     7.16     1175.905     63.56003     172.8862        23     1.750     1.080  51.40   0
       131    948.2325    756.7388 307.5207417  +6.3909818     2120.462     4431.605     4701.386     90.10294      180.421     360.5193      2.163     6.04     1176.781     63.56003     236.0162        28     1.677     1.189  39.42   0
       132    671.3655    756.7690 307.6358084  +6.3817247     926.9582      2138.66     2820.163     89.95934     180.0623       360.34      2.573     7.25     1179.627     63.56003     129.9071        12     1.439     1.024 -48.40   0
       133    817.7137    754.5922 307.5750586  +6.3875131     562.2416     853.2353     1073.346     89.95934     179.9905     360.3759      1.603     5.58     1177.726     63.56003     89.78809         6     1.004     0.874 -53.84   0
       134    647.3256    794.4615 307.6445329  +6.3653604     3744.455      8600.02     10164.06     90.67503     180.3493      360.591      2.453     5.44     1182.396     63.56003     431.4009        52     2.027     1.535  29.63   0
       135    243.8284    750.3410 307.8137047  +6.3700526     967.9116     2434.835       3980.5     89.95934      180.421     360.4835      2.614     4.28     1186.439     63.56003     168.6045         7     1.353     0.385  32.86   2
       136    435.9738    792.0823 307.7324467  +6.3592669     1009.113     1875.088     2043.111      90.2463     180.0623      360.591      2.100     6.82     1186.809     63.56003     135.6373        13     1.508     0.864  20.33   0
       137    936.6368    746.7782 307.5258948  +6.3947072     738.5259     1332.455     1418.959     89.95934     180.0623       360.34      1.806     6.60     1176.667     63.56003     87.29102         8     1.312     0.932  15.78   0
       138    963.1490    744.4411 307.5149542  +6.3965560     1685.516     3581.421      4048.53     90.38943     180.3493      360.591      2.284     7.02     1175.695     63.56003      192.391        24     1.614     1.066  33.91   0
       139   1004.7754    737.5933 307.4978828  +6.4007705     1196.435     2092.198     1957.646     89.81553     180.2059     360.4117      1.833     5.93     1173.946     63.56003      165.722        13     1.229     0.805  21.90   0
       140    891.9061    733.4877 307.5449310  +6.3987019      1137.34     2260.192     2580.455     90.38943     180.8504     360.6627      2.160     7.54     1176.288     63.56003     132.6656        18     1.472     1.082  60.98   0
       141    849.0524    725.1913 307.5630200  +6.4006968     952.7587     2039.461     1899.075     89.81552     180.2059     360.2682      2.108     7.84     1175.869     63.56003     142.1045        13     1.673     1.028  54.68   0
       142     48.5586    724.4460 307.8957283  +6.3741790     1469.906     3720.106     4400.877      90.2463     180.3493     360.4117      2.718     7.68     1183.348     63.56003     166.4279        29     1.706     1.485  52.63   0
       143    111.6498    722.3984 307.8695784  +6.3771462     749.0889      1615.56     2487.261     89.67148     179.9187     360.1247      2.774     4.46     1183.631     63.56003     110.4504         5     1.089     0.625 -36.49   0
       144    661.0888    712.7595 307.6415581  +6.3995493     3554.307     8484.856      9856.76     90.38943     180.2776     360.6269      2.437     6.29     1176.941     63.56003     375.9114        47     1.986     1.502  37.38   0
       145    607.1879    711.7830 307.6639929  +6.3981494     885.9589     1771.101     1939.835     90.10294     179.9905     360.4835      2.033     5.49     1177.952     63.56003     130.2596         9     1.209     0.898 -37.17   0
       146    124.3383    708.7004 307.8647681  +6.3832274     1876.038       4582.2     5701.357     90.10294     180.2776     360.7344      2.622     6.28     1183.437     63.56003     277.8595        34     1.734     1.465  31.43   0
       147    635.3250    708.4880 307.6524095  +6.4004510      1271.52     2967.319     3851.024     90.38943     180.7073     360.6986      2.639     6.29      1177.08     63.56003     170.6527        19     1.408     1.244  54.27   0
       148    998.0208    707.7599 307.5016892  +6.4128615     1684.395     3632.732     3937.635     89.95934     180.1341       360.34      2.181     8.10     1172.883     63.56003     184.1957        29     1.995     1.167  31.33   0
       149    778.0820    704.8182 307.5932003  +6.4067377     11517.87     26733.79     31234.55     89.95934     179.9905     360.5193      2.399     5.61     1174.981     63.56003     1213.237        69     2.111     1.549  37.36   0
       150    907.9357    704.3909 307.5392441  +6.4112486     2482.225     5099.313     5390.854     89.81552     180.1341     360.4476      2.145     6.43     1174.461     63.56003     265.8164        31     1.904     1.125  40.91   0
       151    478.0144    706.3333 307.7178619  +6.3960743     628.1303      1232.61     790.5678     89.81552     180.2059     360.5193      1.847     4.87     1181.477     63.56003     93.67505         6     1.388     0.484 -25.21   0
       152    251.6854    698.9911 307.8121718  +6.3915142     3085.788     7997.345     9446.652     89.95934     179.9905     360.4117      2.548     6.34      1183.59     63.56003     362.2694        49     1.975     1.606  37.86   0
       153    658.6876    697.6373 307.6430643  +6.4057118     3830.428     9676.062     11286.22     90.38943     180.2059      360.591      2.523     6.06     1175.888     63.56003     452.3677        49     1.900     1.604  28.29   0
       154    730.2583    686.1119 307.6137050  +6.4128623     2156.367     5230.513     6510.637     90.38943     180.3493     360.7344      2.571     6.87     1174.346     63.56003      217.024        34     1.805     1.344  36.25   0
       155    996.5152    682.4554 307.5031624  +6.4232579     6361.853     12909.25     14207.31     90.38943     180.3493     360.7344      2.114     5.41     1171.783     63.56003     661.0764        45     1.835     1.312  36.17   0
       156    934.8728    682.7935 307.5287720  +6.4210632     1466.241     3046.085     3141.138     89.95934     179.8468     360.4835      2.220     6.58     1172.725     63.56003     176.2648        21     1.686     0.920  18.88   0
       157     15.7169    682.6403 307.9107899  +6.3903314     1083.231     2652.941     3044.802     90.38943      180.421     360.5193      2.579     8.89     1183.248     63.56003      121.511        22     1.649     1.337  29.85   0
       158     74.0922    677.9083 307.8866900  +6.3942490     13437.92     33419.53     39826.11     90.38943     180.9218     360.6269      2.540     5.97     1182.379     63.56003     1568.623        79     2.232     1.705  43.80   0
       159    535.0798    678.2285 307.6950906  +6.4095879     1088.143     2219.319     3122.134      90.2463     180.2776     360.5552      2.528     7.22     1178.582     63.56003     154.1862        15     1.349     1.083  75.64   0
       160    504.5917    675.4284 307.7078563  +6.4097228     571.7737     1605.907     1350.647     89.95934     180.1341     360.3759      2.498     9.00     1178.867     63.56003     100.5648        11     1.711     1.321 -26.57   0
       161    925.5880    674.2448 307.5329176  +6.4242827     673.6534     1313.566     1826.918     89.81553     180.2059     360.2682      2.075     4.75      1172.25     63.56003     113.2594         5     1.088     0.589  24.67   0
       162    719.8962    669.5948 307.6185664  +6.4193347     1772.317     4439.121     5172.012     90.10294     179.9905     360.3041      2.451     7.10     1173.719     63.56003     190.1221        35     1.809     1.399  24.65   0
       163    742.0512    667.9773 307.6094124  +6.4207429     2406.404     5740.487     6184.588     89.81552     180.3493     360.4476      2.309     6.64     1173.647     63.56003     241.1207        42     1.905     1.556  48.45   0
       164    573.6255    665.9713 307.6794825  +6.4159383     1744.136     4203.015     5090.573     89.81552     180.1341     360.4476      2.509     7.90      1176.39     63.56003     195.4894        31     1.935     1.353  28.57   0
       165    409.7272    666.7102 307.7475771  +6.4101429     752.6815     1290.276     1196.445     90.38943     180.6358      360.591      1.712     5.55     1182.735     63.56003     94.00366         8     1.302     0.667 -66.96   0
       166    234.2230    664.9658 307.8205772  +6.4049739     913.7836     2264.745     2923.806     89.81552     180.0623       360.34      2.838     5.87     1181.789     63.56003     133.8777         9     1.469     0.660  45.69   2
       167   1014.8633    663.9947 307.4961544  +6.4314905     3327.823     7181.955     7870.779     89.67147     180.1341       360.34      2.175     5.67     1170.457     63.56003     359.4735        35     1.853     1.179  37.81  16
       168    980.1230    662.7875 307.5106344  +6.4308309     5372.862     11304.64     12604.25     89.95934     179.9187     360.4117      2.183     5.08     1170.924     63.56003     577.9242        47     1.896     1.345  40.84   0
       169    425.7199    657.4272 307.7412429  +6.4145112     1410.028     3672.794      5028.35      90.2463     180.1341     360.6269      2.961     8.38     1181.348     63.56003     170.9147        32     1.995     1.510  29.45   0
       170    138.8791    656.7684 307.8604792  +6.4051542        12261     30816.18     37060.83      90.2463     180.3493     360.5552      2.570     6.06     1181.555     63.56003     1419.978        81     2.280     1.724  39.72   0
       171    975.1245    645.8686 307.5132788  +6.4376490     4862.011     10188.77     11543.03     90.53234     180.4926      360.591      2.262     5.52     1169.935     63.56003     475.5658        47     2.003     1.339  35.28   0
       172    568.7462    641.3943 307.6823371  +6.4259209     23859.93     60832.64     74013.12     89.81553     180.0623     360.2323      2.612     5.98     1175.445     63.56003     2506.175       100     2.279     1.817  34.67   0
       173    175.5205    640.4545 307.8458018  +6.4131203     902.2122     1756.127     1865.526     90.53234     180.3493     360.6269      1.954     6.37     1181.009     63.56003     144.8545        10     1.503     0.758  19.19   3
       174    177.1300    637.5080 307.8452323  +6.4143907     1477.274     2669.812     3461.724     90.38943     180.4926      360.591      2.272     8.02     1180.937     63.56003     160.5542        23     1.861     0.981  33.88   2
       175     69.6231    632.4898 307.8900824  +6.4128476     820.0891     1768.955     2565.716     90.38943     180.1341     360.4476      2.464     5.58     1181.226     63.56003     117.1143         8     1.315     0.667 -24.76   0
       176    466.0293    625.2697 307.7255723  +6.4291374      30565.3     79461.66     97537.95     90.10294     180.3493     360.5193      2.647     6.08     1177.489     63.56003     3297.056       102     2.301     1.842  38.35   0
       177      9.7846    626.2106 307.9151637  +6.4134261     909.5621     2086.753      2440.89     90.10294     180.0623     360.4476      2.492     7.21     1182.145     63.56003     144.8623        14     1.826     0.798  19.05  16
       178    141.1768    620.3271 307.8607551  +6.4202747     735.2342      1484.36     1183.441     89.95934     180.1341     360.5193      2.187     5.82      1180.43     63.56003     111.7042         7     1.264     0.756 -48.91   0
       179    311.9984    614.9391 307.7899401  +6.4282366     1005.318     2630.651     3524.106     89.67147     180.1341     360.2682      2.771     8.88     1177.818     63.56003     133.8981        18     1.694     1.300 -47.31   0
       180    738.2932    608.6898 307.6129652  +6.4450927     2765.072     6814.807      8237.26     90.38943     180.9218     360.6269      2.579     6.29     1171.543     63.56003     314.7402        48     2.039     1.544  42.36   0
       181    791.5312    603.7913 307.5910010  +6.4488935     7468.628     18208.41     21314.59     89.81553     180.0623     360.4835      2.462     5.81     1171.143     63.56003     754.9731        66     2.060     1.666  38.46   0
       182   1009.0251    604.4005 307.5005767  +6.4558982      743.933     1530.002      1726.85     89.95934     179.9905     360.3759      2.193     5.63     1165.904     63.56003     95.17786         9     1.520     0.588  78.40   0
       183    615.5598    601.9361 307.6642064  +6.4437768     1363.395     3073.109     2970.439     90.38943     180.2776     360.6627      2.263     7.52     1172.028     63.56003     143.6095        22     1.421     1.307  69.98   0
       184    534.1675    603.3947 307.6979877  +6.4404503     861.2075       1715.7     2481.254     89.67147     180.2059     360.3759      2.358     5.73     1174.681     63.56003     120.8909         9     1.173     0.788  52.86   0
       185    932.4786    597.4722 307.5326266  +6.4562065     900.8708     1581.888     2115.849     90.67503     180.6358     360.5552      2.483     5.74     1168.303     63.56003     111.8842        10     1.200     0.773   8.28   0
       186    867.6118    587.0302 307.5599395  +6.4583531      1756.19     3842.005     4821.639     89.81552     180.0623     360.4476      2.357     6.57     1169.051     63.56003     213.9934        29     1.759     1.180  34.14   0
       187    826.3971    584.6279 307.5771517  +6.4579690     1372.349     3515.815     3794.704     89.81553     180.0623     360.3759      2.428     7.22      1169.55     63.56003      163.636        24     1.559     1.419  18.52   0
       188    254.5449    579.8279 307.8150039  +6.4408022     3712.829     9769.986      12141.9     90.10294      180.421     360.4117      2.730     6.93      1176.88     63.56003     462.2015        58     2.264     1.613  47.39   0
       189    806.8033    575.8039 307.5855922  +6.4609575     84900.77       206436     243131.3     89.67147     179.8468     360.3759      2.475     5.79     1169.242     63.56003     9197.748       167     2.352     2.022  11.83   0
       190    188.6502    574.3646 307.8425763  +6.4408440     27301.23     73669.14     93345.45      90.2463     180.3493     360.5193      2.754     6.41     1177.995     63.56003     3484.493       117     2.384     1.950  40.94   0
       191    112.7431    570.6967 307.8742494  +6.4398065     2926.873     7406.688     8897.446      90.2463     180.2776     360.8419      2.542     6.55     1178.605     63.56003     398.7689        55     2.090     1.687  41.51   0
       192    977.6384    566.8314 307.5148817  +6.4703617      860.215     1879.495     1847.059     89.95934     180.0623     360.4117      2.201     7.17     1164.568     63.56003     103.8727        14     1.497     0.962   6.90   0
       193    843.3806    562.8529 307.5708227  +6.4675253      2511.51     5895.101     6674.311     89.81552     180.3493     360.3759      2.377     5.83     1167.839     63.56003     280.1694        41     1.819     1.512  37.00   0
       194    362.0019    561.4087 307.7709616  +6.4520125     7776.657     21113.62     27308.95     89.67147     179.9905       360.34      2.791     6.50     1174.003     63.56003     876.1401        80     2.363     1.826  37.32   0
       195    164.7993    560.2090 307.8529676  +6.4458860     978.6157     2365.295     3640.711     89.67147     179.9905       360.34      2.935     7.34     1177.551     63.56003     129.1033        15     1.457     1.036  17.85   0
       196    528.4209    556.4023 307.7019576  +6.4596572     3024.526     7851.444     9601.396     89.95934     179.9905     360.3041      2.642     6.54     1172.193     63.56003     293.4315        56     2.026     1.786  43.78   0
       197    797.4503    556.5217 307.5901271  +6.4686053     3181.935     7345.181     8935.054     90.38943      180.421      360.591      2.532     6.12     1168.154     63.56003     314.8427        50     2.063     1.512  38.40   0
       198    174.2980    550.6876 307.8493411  +6.4501357     2279.431     4916.346     6827.141     90.38943     180.8504     360.6269      2.390     6.61     1176.968     63.56003     304.2887        24     2.057     0.842  43.71   3
       199    176.4660    548.9510 307.8484987  +6.4509255     3015.024     5881.851     7159.971      90.2463     180.2059     360.6269      2.184     6.82     1176.837     63.56003      385.439        32     2.374     0.882  40.74   3
       200    572.2478    549.9714 307.6839568  +6.4637794     1064.777     2146.713     2531.404     89.95934      180.421     360.4835      2.416     6.29     1170.369     63.56003     131.2089        15     1.545     0.719  57.54   3
       201    574.7994    547.9794 307.6829632  +6.4646872     959.4282      1539.05     2583.466     89.95934     179.9905     360.2682      2.372     6.98      1170.13     63.56003     121.5887        11     1.488     0.916  45.75   3
       202    270.6436    546.0331 307.8094530  +6.4552937     38131.66     106888.8       134824     89.95934     180.3493     360.4476      2.773     6.57     1174.264     63.56003     4524.763       115     2.400     1.957  38.31   0
       203    814.9860    548.7787 307.5830978  +6.4723875     615.9979     1883.604     1850.911     90.10294     180.0623     360.4835      2.746     6.38     1167.371     63.56003      86.7793         8     2.005     0.570  47.04   0
       204    497.3726    536.7584 307.7155244  +6.4667266     19206.78        52869     68375.05     89.95934     180.2776     360.4117      2.801     6.58     1171.578     63.56003     1939.393       110     2.480     1.931  34.52   0
       205    970.4427    539.8533 307.5187767  +6.4812592     1019.153     2070.979     2623.953     90.38943     180.3493      360.591      2.267     7.26     1162.896     63.56003     124.4326        15     1.627     0.906  22.88   2
       206    793.6581    538.1905 307.5923187  +6.4760463     8454.843     20714.95     24496.57     89.67147     180.2776     360.2682      2.517     5.80      1167.11     63.56003     844.0999        66     2.123     1.619  36.72   0
       207     47.1176    548.2988 307.9022824  +6.4468448     2502.194     6205.156      7410.26     90.38943     180.8504     360.6986      2.613     6.56     1178.041     63.56003     290.7036        47     2.003     1.603  34.33   0
       208    210.6210    532.0098 307.8348744  +6.4590667     707.5676     1611.026     2097.866     89.95934     179.9905     360.3759      2.682     5.05     1175.101     63.56003     115.8658         6     1.061     0.679  35.90   2
       209    656.9187    530.9485 307.6494014  +6.4744657     1334.425     3424.133     5115.948     90.38943     180.3493      360.591      3.254     7.58     1168.003     63.56003     184.6228        29     1.713     1.512  39.18   2
       210    718.8506    529.9575 307.6236911  +6.4769455     623.9971     1577.327     1639.826     90.53234     180.3493      360.591      2.626     6.37     1167.442     63.56003     78.06775         8     1.132     1.008 -64.87   0
       211    394.3131    527.9913 307.7586576  +6.4668914     779.5059      1931.59     2050.415     89.95934     179.9905     360.3759      2.451     7.57     1172.017     63.56003     118.7219        11     1.620     0.990 -61.72   0
       212    326.6146    525.5328 307.7868800  +6.4656353     1820.534     4844.888     6485.445     89.81553     180.2059     360.4835      2.736     8.10     1171.888     63.56003     220.2394        41     1.981     1.616  40.57   0
       213    141.8230    524.4671 307.8637247  +6.4598681     11894.39      31753.1     39484.96     89.95934     180.2776     360.5193      2.711     6.34     1175.787     63.56003     1517.594        85     2.340     1.817  40.17   0
       214    506.5613    524.7527 307.7121091  +6.4719906     1026.033     2829.725     3370.471      90.2463     180.3493     360.4117      2.934     9.96     1170.349     63.56003     120.2177        23     1.812     1.528  27.34   0
       215    868.9995    524.2350 307.5614689  +6.4843230     920.7332     2007.919     2129.398     89.38268     180.1341     360.3759      2.227     6.49     1165.147     63.56003     97.74976        11     1.266     0.933  73.97   0
       216    106.4808    523.7757 307.8784378  +6.4589651      924.868     1760.115     2075.881     90.10294     180.0623     360.5552      1.848     5.71     1176.225     63.56003     134.7372        10     1.719     0.534   7.21   3
       217    106.9889    521.2256 307.8783128  +6.4600349     875.8689     1717.767     1881.656     89.95934     180.1341     360.4835      2.410     6.23     1176.003     63.56003     129.7919        11     1.813     0.602  30.64   2
       218    967.0892    518.6796 307.5208802  +6.4898885     3229.911     7032.135       7871.6     90.10294     180.6358     360.6986      2.275     5.67     1162.082     63.56003     358.2589        35     1.747     1.277  46.40   0
       219      6.1368    508.9120 307.9206474  +6.4617244     12249.17      31681.5      38998.7      90.2463     180.5642     343.5536      2.628     6.25     1177.635     63.56003     1395.311        87     2.328     1.780  46.91  24
       220    438.7236    505.4415 307.7409575  +6.4776894     19331.32     52405.32     65400.72      90.2463     180.3493     360.6269      2.750     6.35      1169.79     63.56003     2220.302        95     2.342     1.896  38.89   0
       221    646.5995    505.0062 307.6545629  +6.4848301      5794.12     14986.33     18205.92     89.67147     179.9905     360.3759      2.587     6.00     1167.094     63.56003     586.6106        67     2.176     1.729  39.40   0
       222    203.9144    503.1869 307.8386352  +6.4707397     8544.742     24000.78     30616.56     89.95934     180.2059     360.4476      2.803     6.71     1173.004     63.56003     1002.739        87     2.450     1.840  44.13   0
       223    980.6538    503.1773 307.5157609  +6.4967406     670.4324     1334.325     1385.451     89.81552     180.3493     360.3759      1.945     4.78     1161.269     63.56003     120.4055         6     1.549     0.417  56.97   0
       224    568.4949    501.8449 307.6871358  +6.4835214     1267.814     3440.909     3878.887     90.38943     180.2776     360.7344      2.600     8.93      1167.57     63.56003     156.8414        32     1.800     1.605  29.95   0
       225    169.7843    502.9079 307.8528309  +6.4697079     692.6882     1403.142     1565.218     90.10294     180.1341     360.4117      2.379     5.40     1174.007     63.56003     124.3422         7     1.222     0.674  82.19   0
       226    942.2855    498.8183 307.5318566  +6.4972607       2812.6      6318.09     7091.835     89.95934     180.0623     360.5193      2.323     6.10     1161.608     63.56003     301.2712        40     1.882     1.408  37.42   0
       227    615.4187    497.4424 307.6677785  +6.4869093     2842.349       7862.7     9731.601     89.81553     180.1341       360.34      2.749     6.61     1166.728     63.56003     296.0649        53     1.923     1.804  37.11   0
       228    964.6920    490.9180 307.5228070  +6.5012694     2080.951     4600.811     4681.063     90.10294     180.6358     360.6627      2.262     6.08     1160.993     63.56003     213.1678        34     1.792     1.278  52.59   0
       229    527.7295    488.6782 307.7045243  +6.4875918     3323.412     9027.837     11565.17     90.67503     180.6358     360.5552      2.800     7.01     1167.105     63.56003     334.5181        57     2.165     1.714  37.42   0
       230    373.7768    488.4704 307.7685259  +6.4825175     1173.946     2862.648     3313.024     89.95934     180.2059     360.5552      2.659    10.04     1169.164     63.56003     146.5468        23     2.292     1.227  51.22   0
       231    884.0355    484.3033 307.5565578  +6.5013097     1904.427     4372.687     5449.042     90.38943     180.2059     360.7702      2.510     5.86     1162.835     63.56003     209.9883        35     1.718     1.448  63.07   0
       232    890.7796    480.0092 307.5538983  +6.5033074     856.5467     1481.862     2862.408     89.95934     180.0623     360.3759      2.508     5.57     1162.401     63.56003     142.7158         9     1.248     0.703  30.14   3
       233    891.6531    477.4306 307.5536216  +6.5044011     950.1898     2069.597     2818.396      90.2463      180.421     360.5193      2.423     5.74     1162.175     63.56003     127.3961        11     1.575     0.589  30.31   2
       234    930.4918    477.5610 307.5374718  +6.5056430     720.8317     1635.039     1948.186     90.53234     180.2776     360.6627      2.472     5.69     1160.949     63.56003     113.8103         7     1.366     0.668  78.86   0
       235    715.6315    474.4762 307.6268930  +6.4997419     1381.236     3834.787     4355.908      90.2463      180.421     360.5552      2.602     9.28     1164.775     63.56003     159.6056        31     1.722     1.606 -73.94   0
       236    384.7072    474.3499 307.7644583  +6.4887132     1233.984     2102.201     3225.384      90.2463     180.1341     360.8061      2.017     6.46     1167.949     63.56003     185.8621        14     1.759     0.666  36.87   3
       237    387.2723    472.2367 307.7634633  +6.4896716     1562.527      3071.64     4414.568      90.2463     180.3493     360.6269      3.125     8.13     1167.753     63.56003      177.241        23     2.069     0.914  35.93   2
       238     77.5421    473.9807 307.8921493  +6.4785473     779.6163     2126.833     2337.593     89.95934     180.2059     360.3759      2.616     8.81     1173.936     63.56003     104.5707        15     1.583     1.369  -4.15   0
       239    614.1471    469.5163 307.6692462  +6.4983953     4744.633     12293.17     15087.16     90.38943     180.3493     360.7344      2.637     6.23     1165.451     63.56003     516.5708        59     2.071     1.702  35.38   0
       240    777.0682    465.8056 307.6016450  +6.5053744     8265.057      20839.9     25892.84     89.81552     179.9905     360.3759      2.631     6.04     1163.748     63.56003     896.0721        83     2.213     2.108 -42.58   0
       241    297.2933    466.2755 307.8010665  +6.4891133     1198.284     3216.991     3503.954      90.2463     180.4926      360.591      2.652     9.88     1167.784     63.56003        157.9        26     1.961     1.388  50.32   0
       242    805.0375    462.8289 307.5901180  +6.5075375     737.0554      1452.77     2018.043     89.95934     180.0623     360.4476      2.042     4.73     1163.417     63.56003     104.6211         7     1.025     0.619  -2.12   0
       243    380.4643    462.4230 307.7666240  +6.4934945     756.6196     1783.836     3005.917     89.95934     180.3493     360.4476      3.212     6.32     1166.935     63.56003      81.9176         9     1.477     0.760  17.49   0
       244    961.5004    460.4285 307.5251556  +6.5137499      1079.33      2269.71      2624.44     90.38943     180.0623     360.5552      2.151     7.67      1159.22     63.56003     114.1594        16     1.389     1.184  63.35   0
       245    114.4556    458.4838 307.8773297  +6.4861862     2181.535     5789.176     7517.382     90.38943     180.3493     360.6986      2.791     7.07     1172.538     63.56003     230.3862        47     1.999     1.675  46.75   0
       246   1015.8491    455.7759 307.5027180  +6.5174824     2606.785     5774.329     6729.292     89.95934      180.421     360.4835      2.347     6.19     1157.824     63.56003     266.5117        39     1.982     1.232  34.39  16
       247    752.0889    456.5638 307.6123393  +6.5083551     1090.874      2877.06     3163.679     90.38943     180.2776      360.591      2.544     9.14     1163.412     63.56003     149.1202        24     1.690     1.379   3.98   0
       248    350.7030    453.2258 307.7793053  +6.4962928      1328.63     3824.611     5146.654     90.53234     180.0623     360.4835      3.059    10.80     1166.388     63.56003     165.2521        34     2.037     1.594  45.44   0
       249    272.7508    453.9827 307.8116830  +6.4933638     609.4178     1534.603     1841.356     89.81552      180.421     360.3041      2.503     6.19     1167.457     63.56003     101.7872         9     1.721     0.626 -87.09   0
       250    832.2133    440.4286 307.5795725  +6.5176925     796.7621     1627.685     1964.734     89.95934     180.0623     360.4835      2.478     5.15     1161.442     63.56003     91.49377         7     1.027     0.728 -53.24   0
       251    715.2839    437.8386 307.6282684  +6.5148552     7317.331     18690.68     22686.01     90.38943     180.2776     360.5193      2.604     6.23     1162.986     63.56003     748.3298        70     2.211     1.715  39.71   0
       252    470.0071    440.1233 307.7301535  +6.5057023     543.7499     1280.546     1305.651     89.95934     179.7749     360.3759      2.420     5.06     1163.849     63.56003     82.07593         6     1.369     0.530  76.07   0
       253    817.7781    439.2787 307.5856121  +6.5176852     1025.331     2384.942     3062.848     89.95934     179.9905      360.591      2.475     7.47     1161.721     63.56003     148.9822        16     1.312     1.190  58.52   0
       254    636.2727    433.9551 307.6612444  +6.5138160     1352.908     3391.681     3878.297      90.2463      180.421     360.6269      2.609     8.24     1163.291     63.56003     131.6874        29     1.793     1.370  66.36   0
       255    608.6945    429.0312 307.6728744  +6.5149259      7165.25     20901.46     29314.38     90.53234     180.1341     360.6269      3.055     7.76      1162.96     63.56003     705.8834        96     2.912     1.757  35.17   0
       256    940.5057    427.6613 307.5349817  +6.5265770     2233.229     4796.052     5196.368      90.2463      180.421     360.6269      2.191     6.50     1157.622     63.56003     251.7522        33     1.938     1.198  43.00   0
       257    379.8409    423.8699 307.7681828  +6.5093888     12033.11     34581.71     44813.93      90.2463     180.3493     360.6627      2.852     6.77     1163.568     63.56003     1322.462        95     2.416     1.946  37.68   0
       258    126.5472    422.5121 307.8735192  +6.5014421     947.2143     2538.771      2838.12     90.38943     180.2059     360.7344      2.796     8.71     1170.906     63.56003     118.6936        16     1.958     1.083  31.27   2
       259    895.6099    423.7756 307.5537762  +6.5266834     664.9905     1877.807     2964.984     89.95934     180.1341     360.4476      2.961     6.97     1158.672     63.56003     125.7994        10     1.491     0.914  18.54   2
       260    909.2109    418.1853 307.5483094  +6.5294450     2804.481     6547.153     7478.299     90.10294     180.0623     360.5193      2.406     5.65     1157.918     63.56003      318.698        46     1.934     1.457  48.07   0
       261     59.0070    418.4628 307.9017309  +6.5008415     782.1483     1811.856     2074.674     89.67147     180.1341       360.34      2.461     7.40     1172.471     63.56003     126.5894        12     1.785     0.860  45.70   0
       262    237.3716    414.5300 307.8277210  +6.5084621     5998.958     16972.04      21627.4     90.10294     180.3493     360.5193      2.817     6.94     1166.223     63.56003     685.5458        75     2.312     1.861  42.53   0
       263    137.7965    403.4132 307.8694885  +6.5097045     2161.495     6028.447      7494.05     89.95934     179.9905     360.4476      2.755     7.11     1169.508     63.56003     322.3475        49     2.092     1.715  53.19   0
       264    160.3386    398.1125 307.8602971  +6.5126506     1055.266     2745.779     3632.945     90.38943     180.5642     360.6269      2.973     7.87     1168.246     63.56003      122.712        14     1.749     0.989  54.67   2
       265    383.1711    393.8832 307.7678092  +6.5218795     930.7922     2347.017     3164.126      90.2463     180.0623     360.4835      2.605     8.16     1161.337     63.56003     130.7816        17     1.907     0.977 -52.62   0
       266    270.4296    393.1564 307.8147005  +6.5183956     529.4075     1092.656     1557.778     89.95934     180.3493     360.4476      1.615     4.11     1163.208     63.56003     103.8883         5     1.131     0.426 -76.11   0
       267    436.7794    387.2362 307.7457479  +6.5264211     3001.417     8959.663     10975.51     89.81552     180.1341     360.3041      2.775     7.54     1160.309     63.56003     317.4396        63     2.345     1.757  43.98   0
       268     33.5125    388.0025 307.9133585  +6.5125575     1471.917      4022.51     5675.045     89.67147     179.9187     360.3041      3.146     8.88     1172.398     63.56003      175.439        36     2.042     1.658  32.44   0
       269    777.3202    384.3673 307.6042747  +6.5390025     6495.693      16309.5     20267.27      90.2463     180.3493      360.591      2.652     6.03     1158.881     63.56003     676.3286        67     2.155     1.741  38.71   2
       270    768.9744    386.7380 307.6076647  +6.5377450     1041.709     2282.421      3031.48     89.95934     180.2776     360.5193      2.666     6.79     1159.133     63.56003     111.5256        16     1.271     1.016  49.13   2
       271   1020.9509    379.1395 307.5031641  +6.5492901     2203.096      4679.49     5001.392     90.38943     178.3309       317.22      2.164     6.04     1152.394     63.56003     221.1661        30     1.777     1.172  43.91  24
       272    457.4438    371.4452 307.7376894  +6.5336326     1072.373     3104.646     4016.899     90.38943     180.3493     360.5193      2.850    10.21     1158.642     63.56003      138.868        23     1.817     1.597 -43.56   0
       273    485.3064    370.8719 307.7261258  +6.5348031     1372.516     3764.726     4903.999      90.2463      180.421     360.6627      2.769     8.83     1158.004     63.56003     170.1266        32     1.869     1.585  15.84   0
       274    842.8134    367.3137 307.5776195  +6.5482300     17567.45     42961.37     51693.91     89.95934     180.1341     360.4835      2.567     5.77     1157.014     63.56003     1763.665        90     2.208     1.787  44.44   0
       275    614.9404    358.6165 307.6726463  +6.5442035     1264.469      3239.01     4288.366     89.81552     180.2776     360.3041      2.853     6.31     1156.673     63.56003     154.4205        19     1.669     0.900  34.24   2
       276    699.2764    353.3521 307.6377620  +6.5491978     37576.83     98670.87     121822.9      90.2463      180.421     360.5552      2.696     6.30     1156.483     63.56003     3496.809       118     2.347     1.904  40.49   0
       277     98.9786    349.1476 307.8874589  +6.5308000     2685.259     7514.668     9301.216     89.81552     180.3493     360.3759      2.790     7.50     1168.669     63.56003     304.0146        57     2.281     1.689  51.55   0
       278    561.5324    350.1545 307.6951342  +6.5459089     1242.105     3490.636     4053.563     90.38943     180.2776     360.6269      2.687     9.49     1155.815     63.56003     162.8981        30     1.743     1.514 -17.96   0
       279    545.0447    346.3252 307.7021175  +6.5469376      3290.74     8852.332     11124.91     90.24629      180.421     360.6269      2.744     6.66     1155.486     63.56003     346.2756        60     2.133     1.774  41.65   0
       280    274.3718    344.9696 307.8146879  +6.5384199     968.8633     3067.104     4160.957     89.81552     180.0623       360.34      3.063     8.72     1159.726     63.56003      170.583        17     1.733     1.224 -72.94   2
       281    407.9814    341.5879 307.7592580  +6.5442998     10756.65     30729.13      40095.5     90.10294     179.9905     360.4835      2.887     6.89     1157.956     63.56003     1083.542        98     2.448     1.966  41.39   0
       282    495.9987    333.2561 307.7229475  +6.5506898     2884.414      5611.12     8185.414     89.67147     179.9905     360.2323      2.587     7.64     1154.692     63.56003     392.5212        36     2.479     1.071  21.33   3
       283    497.5204    330.5128 307.7224073  +6.5518732     3295.382     6527.362     8063.893     90.10294     180.6358     360.7344      2.206     6.60     1154.512     63.56003     378.8796        31     2.164     0.927  21.95   3
       284    766.0266    330.4601 307.6107802  +6.5608793     1629.343      4178.75     4933.071     89.95934      180.421     360.4476      2.617     8.29     1155.334     63.56003     180.1527        33     1.943     1.419  34.40   0
       285    387.0930    316.1837 307.7687982  +6.5540863     3179.313     8957.553     11223.01     90.10294     180.1341     360.4117      2.797     6.72     1156.905     63.56003     333.1588        61     2.062     1.918  49.38   0
       286    243.2523    315.5568 307.8286176  +6.5495165     824.7343     2261.752     3393.829     90.38943     180.3493     360.6269      3.307     6.38     1160.154     63.56003     111.1023         9     1.250     0.934  62.13   2
       287    754.7098    311.8592 307.6161100  +6.5681800     26133.03     67126.11     81303.45      90.2463     180.3493     360.7344      2.611     6.19     1154.297     63.56003     2617.014       104     2.293     1.842  39.98   0
       288    425.9167    311.1591 307.7528273  +6.5574626     1077.442       2856.4     3243.545     90.38943     180.3493     360.5193      2.604     7.92     1155.864     63.56003     149.7385        21     1.668     1.508 -50.23   0
       289    989.0369    308.7455 307.5187910  +6.5772869     1065.271     2114.583      2489.87      90.2463     180.3493     360.6269      2.258     5.75     1149.682     63.56003     154.1021        12     1.437     0.848  52.84   0
       290    930.4730    307.8526 307.5431696  +6.5757025     1359.186     3256.388     3242.028      90.2463     180.3493     360.6269      2.427     9.16     1151.767     63.56003     148.6489        28     1.946     1.273  36.64   0
       291    413.5456    307.2360 307.7581026  +6.5586673     797.2766     2155.235     1981.138      90.2463     180.3493     360.6269      2.481     8.81     1156.186     63.56003     93.64124        17     1.602     1.354 -14.07   0
       292    833.9691    302.3069 307.5834782  +6.5747711     735.5966     1676.592     1625.609     90.53234     180.1341      360.591      2.369     6.84     1153.496     63.56003     80.79736         9     1.430     0.918  89.13   0
       293    190.7878    298.8286 307.8509932  +6.5546590     976.6713     2626.252     3702.437     89.81552     180.1341     360.4835      3.133     6.13     1162.722     63.56003     121.3353        13     1.518     0.696  64.30   2
       294    753.2424    296.4568 307.6172375  +6.5744894     3097.069      7659.26     9273.317      90.2463     180.2776      360.591      2.615     6.02     1153.406     63.56003     318.2708        49     1.982     1.562  45.63   0
       295    768.6848    295.3381 307.6108548  +6.5754672     966.6728     1992.052     2629.548     90.53234      180.421      360.591      2.435     7.67     1153.359     63.56003     126.7897        15     2.050     0.802  55.67   3
       296    770.3541    292.9954 307.6102394  +6.5764901     956.7817     1743.477     2784.412     89.67147     179.9905     360.2323      2.257     7.78     1153.245     63.56003      131.657        14     2.197     0.771  63.37   3
       297     72.4315    289.9378 307.9004967  +6.5543486     680.5468     1723.484     1667.961     90.10294      180.421     360.5193      2.574     6.42     1169.439     63.56003     95.05298         8     1.499     0.772  61.11   0
       298    358.8989    288.3853 307.7814568  +6.5646159     812.5118     2055.183      3120.93     90.38943     180.0623     360.3041      3.083     7.09     1156.195     63.56003     94.85852        11     1.477     0.953 -51.54   0
       299   1007.7303    285.2150 307.5118074  +6.5876240     3744.202     8044.965     9342.955     89.81552     180.2776     360.4835      2.311     5.58     1147.702     63.56003     394.4341        43     1.968     1.321  45.06   0
       300    487.2113    284.0193 307.7282590  +6.5707210     837.2502     2198.388     3451.115     89.95934     180.0623     360.4835      3.214     6.25     1150.672     63.56003     115.7081        12     1.552     0.708  32.91   2
       301    247.6343    282.6909 307.8279055  +6.5632310     2088.266     4399.021     5419.835     90.53234     180.2059      360.591      2.395     8.20     1158.791     63.56003     259.2699        27     1.868     1.436   4.82   3
       302    249.8912    280.2918 307.8270482  +6.5642972      2151.73     4593.942     6465.459     90.38943     180.9218     360.6627      2.519     8.99     1158.751     63.56003     297.7241        31     2.756     0.962  31.88   3
       303    152.1893    267.9922 307.8680815  +6.5660907     747.8397     1862.616     2283.229     89.81552     180.1341     360.5193      2.353     4.91     1165.325     63.56003     143.1454         8     1.324     0.516 -63.56   0
       304    561.7090    262.9464 307.6979958  +6.5819157     866.8423     2309.933      2524.29      90.2463     180.1341     360.7344      2.459     8.30     1149.756     63.56003     109.3348        13     1.643     1.172 -57.06   0
       305    904.9554    261.8406 307.5553222  +6.5938460     1081.287     2392.752     3233.463     90.10294     180.3493     360.4476      2.646     7.36     1149.591     63.56003     135.7635        15     1.575     0.963  24.06   0
       306    725.4476    260.6560 307.6299963  +6.5883396     2240.196     6037.275     7425.104     90.38943     180.3493     360.6986      2.629     7.39     1150.877     63.56003     268.8313        47     2.135     1.521  43.43   0
       307    666.5082    260.4962 307.6545067  +6.5864347     1050.384     2660.159     3023.823     90.38943     180.9218     360.5552      2.573     8.58     1150.084     63.56003     116.1497        17     1.641     1.254  88.77   0
       308    921.0121    251.9880 307.5489767  +6.5984491     760.5036     1665.313     2006.952      90.2463     179.9905     360.5193      2.360     6.21     1148.534     63.56003      86.4314         8     1.342     0.807 -30.89   0
       309    224.5887    247.5069 307.8386744  +6.5769808     848.3466     2193.215     2755.989     90.10294     179.9905     360.3759      2.904     6.25       1159.5     63.56003     134.1116         9     1.236     0.889  50.19   2
       310    867.6003    245.1567 307.5714134  +6.5994868     959.3784     2194.631     2128.073     89.52719     179.9905     360.1606      2.449     6.58     1149.246     63.56003     118.3693        12     1.358     0.896  20.30   0
       311    759.2796    243.8086 307.6164960  +6.5964254     766.6716     1743.557     2211.058     89.95934     179.9187     360.4117      2.522     5.54     1149.844     63.56003     84.83691         8     1.196     0.723  69.99   2
       312    459.2693    235.8504 307.7414987  +6.5896692     9316.153     27196.95     36088.86      90.2463     180.2776     360.6269      2.929     7.10     1148.999     63.56003     924.1487        95     2.393     2.138  49.20   0
       313    785.0751    234.8404 307.6060721  +6.6009896     6662.913     16888.86      21577.8      90.2463     180.3493     360.6269      2.701     5.98     1149.209     63.56003     664.0049        76     2.247     1.803  34.25   0
       314    147.3719    229.7192 307.8713777  +6.5817279     1079.035     2952.979     3294.714      90.2463     180.1341     360.5552      2.600     9.78     1165.144     63.56003     118.1923        24     1.856     1.437  46.81   0
       315    921.3281    225.0779 307.5497478  +6.6095688       822.39     1833.333     2206.542     90.67503     180.6358      360.591      2.502     6.35      1146.72     63.56003     95.01514        10     1.441     0.786  50.45   0
       316    582.2801    223.0289 307.6907865  +6.5990830     1661.469     3215.397     4135.721      90.2463     180.3493     360.5193      2.192     7.90     1148.155     63.56003      209.364        20     2.232     0.782  39.59   3
       317    583.5138    220.5187 307.6903581  +6.6001606     1817.912     3905.267     5175.102     90.10294     180.6358     360.7344      2.689     8.04     1148.095     63.56003      215.321        27     2.054     0.914  32.50   3
       318    546.0391    221.0000 307.7059229  +6.5987070     907.7678     2509.313     2788.902     89.23793     180.0623     360.2682      2.641     7.71     1147.891     63.56003     128.4017        11     1.348     1.233 -74.08   2
       319    890.0965    217.9443 307.5629729  +6.6114715     6097.096     14432.58     16714.02      90.2463     180.2776     360.8061      2.430     5.68     1147.041     63.56003     622.1331        64     2.159     1.580  47.57   0
       320    943.6628    218.6570 307.5406766  +6.6129646     1597.212     3537.469     3928.219     90.53234     180.2776     360.6269      2.273     6.33     1145.959     63.56003     200.1746        23     1.703     1.011  36.26   0
       321    976.7285    215.7757 307.5270247  +6.6152568     5746.785     13054.08     14844.99     89.95934     180.2059     360.5193      2.365     5.54     1145.048     63.56003     602.0149        59     2.113     1.484  39.81   0
       322     16.4560    215.0739 307.9262999  +6.5833679     11361.47     31707.26     40812.96      90.2463     180.2059     360.5193      2.831     6.77     1172.365     63.56003     1285.241        95     2.439     1.904  47.30   0
       323    688.0417    215.9856 307.6470502  +6.6055297     1332.459     3476.948     4266.229     89.67147     180.1341     360.3041      2.715     7.44     1148.382     63.56003     157.9207        28     1.754     1.388  66.62   0
       324    496.9109    212.2101 307.7266450  +6.6006897     613.1984     1848.294     2180.901     90.10294     179.9905     360.3759      2.329     3.74     1146.907     63.56003     97.07898         5     1.492     0.269  12.03   0
       325    498.4687    209.5856 307.7260857  +6.6018254     638.4717     1762.862      2381.73     89.81553     180.2059     360.4835      2.723     5.84     1146.872     63.56003     121.1604         8     1.650     0.582  10.69   2
       326    828.4277    207.2381 307.5889735  +6.6138325     936.5106     2203.435     2296.915     89.95934     180.0623     360.4117      2.465     8.17     1147.494     63.56003     116.3328        15     1.585     1.178  50.85   0
       327    508.8932    206.9699 307.7218395  +6.6032545     1093.782     3095.305     3631.521     90.53234     180.0623     360.5193      2.636     9.83     1146.934     63.56003     121.6971        28     1.885     1.430  66.18   0
       328    881.0094    206.5044 307.5671351  +6.6158909      1116.93     2805.043     3660.039     90.10294     179.9187       360.34      2.690     9.02     1146.715     63.56003     129.4642        23     1.812     1.252  31.50   0
       329    740.3224    204.0221 307.6257148  +6.6122164     19130.98     49771.03     61504.44     89.95934     180.1341      360.591      2.664     6.22     1147.796     63.56003     1915.636        97     2.357     1.801  42.59   0
       330    343.4931    203.6360 307.7907203  +6.5990841      3214.53     8462.147     11867.68     90.53234     180.2059     360.6986      3.038     7.02     1155.302     63.56003     342.9066        70     2.288     1.964  71.36   0
       331    973.6605    202.5652 307.5287432  +6.6206081     1746.198     4042.731     4618.643     90.38943     180.3493     360.5552      2.384     7.02     1144.739     63.56003     194.1978        26     1.654     1.148  39.08   0
       332    908.1113    201.1129 307.5560471  +6.6190211      4206.25     9610.662     11392.32     90.10294     180.8504     360.6986      2.393     5.76     1146.003     63.56003     452.6764        48     2.049     1.406  43.77   0
       333   1012.3671    201.3506 307.5126898  +6.6223999     1077.573     2236.801     2687.445      90.2463     180.3493     360.5193      2.289     7.76     1143.851     63.56003     139.5975        17     1.796     0.939  32.25  16
       334    451.6247    200.3655 307.7458727  +6.6040614      2196.09     6418.946     7876.219     89.81553     180.1341       360.34      2.848     7.68     1148.041     63.56003     223.9819        55     2.113     1.793  39.62   0
       335    109.4335    191.9017 307.8884289  +6.5960629     2181.179     5984.403     7429.607     90.38943     180.2059     360.7344      2.804     7.06      1166.64     63.56003     281.1746        51     2.089     1.786  37.03   0
       336    279.4580    188.4729 307.8178555  +6.6031936     14426.06     40761.07      53351.3     90.53234     180.3493     360.5552      2.888     7.02     1158.556     63.56003     1454.831       101     2.448     1.993  44.33   0
       337    255.0056    189.6333 307.8279827  +6.6018933     2664.214     7684.983     9864.319     89.67147     180.1341     360.3759      2.824     7.04     1160.029     63.56003     314.3784        59     2.197     1.768  51.27   0
       338    403.5129    183.8979 307.7664315  +6.6092460     20805.32     59994.07     77518.66     90.38943     180.8504     360.6269      2.876     7.04     1150.465     63.56003     2093.004       113     2.469     2.021  44.86   0
       339    159.6181    185.6083 307.8677771  +6.6003488      1641.28     4553.268     5423.563     90.10294     180.0623     360.4117      2.672     7.68     1164.321     63.56003     192.9039        38     1.803     1.642  40.49   0
       340    308.0808    181.7063 307.8061834  +6.6069481     7218.544     21372.55     29884.85     90.10294     180.6358     360.6627      3.126     7.61     1157.101     63.56003       799.92       104     2.870     2.078  14.03   0
       341    742.7130    179.9406 307.6255300  +6.6222376     16155.54     41744.63     51072.06     90.38943      180.421     360.6986      2.653     6.26     1146.983     63.56003     1729.236        93     2.282     1.829  42.11   0
       342     59.7311    177.5567 307.9095779  +6.6003119     4081.147     11190.06      14764.2     90.38943     180.2776     360.6627      2.895     7.15     1169.562     63.56003     490.7102        70     2.412     1.768  46.99   0
       343   1001.1024    174.4288 307.5182759  +6.6331384     719.1099     1292.434     1433.076     90.53234     180.0623      360.591      1.729     5.56     1143.425     63.56003     101.1354         7     1.245     0.699  32.78   0
       344   1002.0297    160.3481 307.5183623  +6.6389821     1416.449     3058.122     3871.975     90.10294     180.4926     360.4835      2.429     7.19     1142.969     63.56003     174.8921        23     1.809     0.974  49.58   0
       345    278.3952    154.7758 307.8194349  +6.6170682     12738.21     36910.15     48616.36     89.81553     180.0623     360.4117      2.931     6.98     1159.893     63.56003     1259.552        98     2.470     1.974  42.59   0
       346    593.2044    156.8160 307.6884727  +6.6267824     837.1848     2184.874     3099.995     89.95934     179.9905     360.4117      3.149     7.55     1145.966     63.56003     117.1986        12     1.416     1.127   0.60   0
       347     23.8640    153.6761 307.9252979  +6.6089621     1958.716     5459.839     6716.984     90.67503     180.3493     360.5552      2.714     7.04     1172.334     63.56003      226.028        45     1.860     1.716  33.60   0
       348    709.8794    151.1623 307.6401494  +6.6330201     3805.587     9903.396     12246.09      90.2463      180.421      360.591      2.688     6.39     1146.661     63.56003     394.3463        63     2.175     1.737  47.10   0
       349    120.9856    148.8400 307.8850819  +6.6142273     2233.351     6137.195     8211.951     89.81552     180.1341     360.3041      2.945     8.22     1165.412     63.56003     235.1522        52     2.109     1.853  49.01   0
       350    391.3492    144.4162 307.7728202  +6.6251363     1673.617     4666.452     5889.584     89.81553      180.421     360.2682      2.743     8.44     1151.133     63.56003     209.0736        43     2.109     1.649  38.61   0
       351    356.2971    143.5094 307.7874249  +6.6243345     1406.036     4180.527     5096.641     90.38943     180.8504      360.591      2.862    10.35     1154.536     63.56003     160.1339        39     2.055     1.586  30.08   0
       352    111.0857    143.4798 307.8893792  +6.6161070     815.9459     2046.609     2917.208     90.10294     180.7073     360.6986      2.948     5.33      1165.56     63.56003     111.4053         7     1.227     0.653  47.38   0
       353   1002.1651    136.9163 307.5190913  +6.6486598     1039.272     2022.226     2283.243     90.38943     180.3493     360.5552      2.059     5.68     1140.188     63.56003     126.0212        11     1.148     0.826  70.83   0
       354    669.3806    131.0163 307.6576664  +6.6399822     3086.948     7862.253     9514.471     90.10294     180.0623     360.4835      2.614     6.67     1146.313     63.56003     353.4012        50     2.086     1.590  46.73   0
       355    207.0225    133.2683 307.8498364  +6.6235485     1977.558     3908.562     4062.118     89.95934     180.2776     360.5552      2.050     6.03     1164.039     63.56003     225.4252        20     1.579     0.978  39.62   3
       356    208.5621    131.0322 307.8492718  +6.6245233     1843.874     4122.215     4827.996     89.95934     180.0623       360.34      2.428     8.77     1164.036     63.56003     222.1705        32     2.511     1.076  40.45   3
       357     91.1319    131.3077 307.8980871  +6.6204601     925.6906      2286.37     3824.668      90.2463     180.4926     360.6269      3.268     4.65     1166.129     63.56003     133.7419         8     1.113     0.662 -34.19   2
       358    621.6891    128.2072 307.6775913  +6.6395460     4310.211     11771.99     15088.81     89.81552     179.9905     360.3041      2.770     7.14     1145.491     63.56003     457.0789        68     2.352     1.743  51.60   3
       359    625.2090    119.7144 307.6764135  +6.6431698     24268.79     65519.52     83173.19     89.95934     179.9905     360.4117      2.752     6.55     1145.266     63.56003     2371.255       111     2.419     1.902  42.80   3
       360    348.7743    124.0624 307.7912089  +6.6321099     1578.151     4392.595     5685.135     89.95934     180.2776     360.4835      2.836     8.15     1155.653     63.56003     188.6755        41     1.877     1.736  84.34   0
       361    529.8787    124.0287 307.7159072  +6.6381967     747.0729     1680.037     2234.577      90.2463     180.2776      360.591      2.441     7.15     1145.523     63.56003     104.2017         8     1.396     1.025  89.80   0
       362    304.5278    113.4206 307.8099653  +6.6350174     1683.774     4763.509     7127.678     89.95934     180.2059     360.5552      3.343     8.65     1158.624     63.56003     181.3513        43     1.889     1.806  66.20   0
       363      3.0645     97.1511 307.9358588  +6.6315947       693821      1754947      1992675      90.2463     168.8736     301.8934      2.428     9.56     1174.521     63.56003     63983.57       258     2.366     1.702  81.02  28
       364    675.2150    106.7868 307.6560551  +6.6501796     703.8344     1380.334     1211.572      90.2463     179.9905     360.5193      2.217     4.34     1145.041     63.56003     83.08972         5     0.855     0.626 -44.56   0
       365    689.5217    103.7043 307.6502098  +6.6519307     1465.446     3768.664     4573.854     90.10294     180.6358     360.6269      2.651    10.05     1144.835     63.56003     165.0051        31     2.000     1.407  45.89   0
       366    431.2890     94.6959 307.7578896  +6.6470009       1692.6      4927.02      6414.25     90.38943     180.7789     360.6269      2.893     8.86     1148.082     63.56003      195.658        53     2.282     1.787  29.36   0
       367    903.8171     90.1651 307.5615550  +6.6646793     2229.745      5119.42     5658.915     89.95934     180.1341       360.34      2.385     6.19     1140.018     63.56003     235.7974        34     1.820     1.325  46.58   0
       368    885.2329     90.8119 307.5692612  +6.6637920     1177.299     2770.121     3118.196     89.81552     180.0623     360.4835      2.346     7.37     1140.233     63.56003     151.3682        19     1.680     0.976  59.69   0
       369    597.1631     86.5851 307.6891902  +6.6559072     625.4728     1412.754     2267.179     89.95934     180.1341       360.34      3.177     3.45     1144.485     63.56003     143.0042         6     0.947     0.552 -63.96   0
       370    394.0561     87.6788 307.7736079  +6.6486487     559.9971     1326.322     1777.095     90.53234     180.3493      360.591      2.967     3.52     1151.816     63.56003     96.25806         5     0.841     0.426  19.61   3
       371    395.6936     85.7642 307.7729916  +6.6494940     590.8541     1372.425      1871.42     90.53234     180.2059     360.6986      2.137     3.81     1151.691     63.56003     105.0605         5     1.200     0.348   9.94   2
       372    142.9268     84.0104 307.8781510  +6.6417269     1407.837     3788.327     4950.192     89.81552     179.9187     360.4476      2.801    10.46     1164.413     63.56003     139.8474        33     2.031     1.502  44.08   0
       373     24.6088     81.5782 307.9274283  +6.6387487     5886.368     15902.44     20442.82     89.95934     180.1341       360.34      2.779     6.54     1170.413     63.56003     668.8179        71     2.306     1.768  47.69   0
       374    826.2609     75.7843 307.5942882  +6.6680267     3365.644     8130.472     9501.189     89.81552     180.2776       360.34      2.471     5.89     1141.017     63.56003      369.015        46     1.901     1.492  39.22   0
       375    770.9667     75.7719 307.6172818  +6.6661845     1659.382     4121.213     4804.958     89.81552     180.0623       360.34      2.468     7.48     1142.615     63.56003     179.6603        31     1.774     1.315  71.20   0
       376     66.4057     73.0019 307.9103400  +6.6436963     1275.246     2791.135     3925.651     89.67147     179.9905     360.3759      2.488     9.21     1166.635     63.56003     179.1628        23     2.290     1.034  33.95   3
       377     63.6996     74.6965 307.9114078  +6.6429056     1186.002     2575.959     3142.207     90.38943     180.9218     360.4117      2.284     6.42     1166.877     63.56003      162.145        14     1.540     0.752  40.19   3
       378      7.7827     68.4408 307.9348690  +6.6436050     1156.389     2957.773     3529.049     89.81553     180.1341     357.4945      2.829     8.68     1169.727     63.56003      147.879        21     1.697     1.281 -81.58  18
       379    765.4465     63.3603 307.6199943  +6.6711237     1028.964     2340.554      3046.37      90.2463     180.3493     360.3759      2.768     9.06     1142.178     63.56003      123.881        21     1.741     1.316  79.86   0
       380     92.6355     57.7552 307.8999496  +6.6508729     4360.879     11749.87     15351.88     90.10294     180.2776     360.4476      2.843     6.52      1164.75     63.56003     447.6932        66     2.143     1.868  56.90   0
       381    423.9932     56.6603 307.7622056  +6.6624576     897.7024     2377.386     3595.189     89.67147     180.1341       360.34      3.192     9.65     1150.419     63.56003     134.4849        15     2.082     1.246   9.11   2
       382    635.2837     49.4392 307.6745886  +6.6725174     8657.144     22757.97     28915.66     90.38943     180.2776     360.5193      2.761     6.44     1143.028     63.56003     876.9731        82     2.371     1.785  42.20   0
       383    253.5335     47.8701 307.8333819  +6.6603639     917.0972     2714.599     5318.789     90.38943      180.421      360.591      6.008     7.47     1164.065     63.56003     131.7289        15     1.993     0.784  42.09   3
       384    249.8013     39.2137 307.8352261  +6.6638119     1302.308     3851.561     6645.706     89.95934     179.9905       360.34      4.887    10.32      1164.44     63.56003     176.4287        36     2.220     1.572  44.75   3
       385    261.2956     41.7800 307.8303600  +6.6631387     4094.957      11371.6     16581.19      90.2463     180.1341     360.3759      3.493     7.12     1164.232     63.56003     425.6107        69     2.315     1.893  31.19   2
       386    535.1738     45.4617 307.7163514  +6.6708073     2057.966     5867.022     7402.741     89.95934     180.3493     360.4835      2.762     8.16     1145.414     63.56003     214.5663        52     2.208     1.671  46.15   0
       387    440.7098     41.2467 307.7557741  +6.6693810     10192.61     27723.47     35412.46     90.38943     180.2059     360.7344      2.802     6.75     1149.658     63.56003     1010.724        86     2.425     1.838  44.79   0
       388     26.7654     41.1873 307.9278987  +6.6554944     1131.319     3203.946     4325.395     89.81552     180.1341     360.4476      2.956    10.08     1165.504     63.56003     120.4187        27     2.068     1.369  47.23   0
       389    918.0733     40.9536 307.5572778  +6.6854704     1072.283     2205.376         1801      90.2463     180.4209      360.591      2.130     5.50     1136.048     63.56003     132.9216        14     1.109     0.992 -81.14   0
       390    621.7759     39.6804 307.6805340  +6.6760939     1664.461     4696.425     6716.325     90.10294     180.0623     360.5552      3.101     7.36     1143.036     63.56003     209.9315        43     1.841     1.744  87.32   0
       391    690.5181     31.4886 307.6522238  +6.6817756      979.025     2220.136     2314.123     90.10294     180.5642     360.6986      2.408     7.33     1141.338     63.56003     133.3993        12     1.586     0.947  11.74   0
       392    956.8651   1019.3773 307.5083575  +6.2828444     5600.896     10161.13     10850.98     89.95934     180.3493     337.8238      1.925     4.96     1189.829     63.56003     634.5223        35     1.761     1.044  40.37  16
       393    240.9852   1019.3341 307.8058129  +6.2589136     901.0122     2106.871     2605.866     89.81552     180.2059     338.1681      2.437     6.69     1193.775     63.56003     124.7148        12     1.339     0.936  69.09  16
       394    711.8402   1019.9782 307.6101501  +6.2744183     874.8732     1811.909     2314.248     89.95934     180.1341     330.2383      2.129     6.39     1190.896     63.56003     122.5885        11     1.487     0.771   0.27  19
       395    461.2879     20.2678 307.7479243  +6.6787312     954.7935     2254.487     2714.967     90.53234     180.5642     360.6269      2.734     5.31     1148.217     63.56003     159.1617        14     1.330     0.973 -58.69   0
       396    716.5464   1017.6082 307.6082742  +6.2755540      1920.64     4221.653     5429.085     89.81553     180.2059      354.772      2.417     5.68     1190.808     63.56003     255.8628        27     1.665     1.168  31.04  18
       397    439.3947   1017.7709 307.7234276  +6.2662132     743.2919     1151.921     724.8015     89.81553     180.1341     353.6406      1.490     3.50     1193.624     63.56003     110.1443         5     0.764     0.463 -74.98  16
       398    732.3400   1016.5391 307.6017476  +6.2765230     966.3242     1725.313      1750.39     90.38943     180.3493     360.6269      1.871     6.22     1190.692     63.56003     111.8574        13     1.280     0.850  22.25  16
       399    363.3534   1014.9133 307.7551189  +6.2648441     1094.774     2490.232     2650.756     90.38943     180.2059      360.591      2.312     8.14     1193.689     63.56003      157.775        20     1.848     1.284  20.74  16
       400    545.6576   1005.2163 307.6796971  +6.2749546     2883.564     6013.144     7665.101     89.67148     180.2776     360.3041      2.416     5.06     1192.082     63.56003      310.708        39     1.786     1.344  29.95   3
       401    543.0854    997.5611 307.6810232  +6.2780287      5783.43     11779.05     13652.63     90.38943     180.3493      360.591      2.180     5.13     1192.043     63.56003     638.9229        43     1.809     1.366  35.82   3
       402    295.8900   1004.1667 307.7835118  +6.2670176     9944.976     20951.34     24701.85     90.53234     180.2059      360.591      2.286     5.19     1193.372     63.56003      1047.01        66     1.967     1.635  29.24   0
       403    750.2186   1004.6490 307.5947177  +6.2820288     5839.565     11522.17     13208.99     89.81553      180.421       360.34      2.082     4.95     1190.241     63.56003     661.9806        41     1.802     1.233  32.67   0
       404    515.9402   1006.5128 307.6920013  +6.2734245     832.9495     1465.042     1393.167     90.38943     180.4926     360.6986      1.671     4.74     1192.906     63.56003      101.684         7     1.135     0.562 -24.10   0
