#   1 NUMBER                 Running object number                                     
#   2 X_IMAGE                Object position along x                                    [pixel]
#   3 Y_IMAGE                Object position along y                                    [pixel]
#   4 ALPHA_J2000            Right ascension of barycenter (J2000)                      [deg]
#   5 DELTA_J2000            Declination of barycenter (J2000)                          [deg]
#   6 FLUX_APER              Flux vector within fixed circular aperture(s)              [count]
#   9 FLUXERR_APER           RMS error vector for aperture flux(es)                     [count]
#  12 FLUX_RADIUS            Fraction-of-light radii                                    [pixel]
#  13 FWHM_IMAGE             FWHM assuming a gaussian core                              [pixel]
#  14 BACKGROUND             Background at centroid position                            [count]
#  15 THRESHOLD              Detection threshold above background                       [count]
#  16 FLUX_MAX               Peak flux above background                                 [count]
#  17 ISOAREA_IMAGE          Isophotal area above Analysis threshold                    [pixel**2]
#  18 A_IMAGE                Profile RMS along major axis                               [pixel]
#  19 B_IMAGE                Profile RMS along minor axis                               [pixel]
#  20 THETA_IMAGE            Position angle (CCW/x)                                     [deg]
#  21 FLAGS                  Extraction flags                                          
         1   1000.3672     26.5491 307.5284770  +6.6979031      1809.72     2830.583     2848.374     78.17042     156.2788     312.2781      1.689     3.76     821.7225     55.05505      292.999        18     1.325     0.909  79.99   0
         2    440.0623     18.7824 307.7615503  +6.6823923     6450.008     9768.776     10127.41     77.92186     156.1546     312.1849      1.588     3.45     828.0819     55.05505     1015.476        32     1.504     0.967  60.61   0
         3    336.6338     13.7434 307.8046938  +6.6810057     13224.21     19778.46     21084.45     78.17042     156.2167     312.3402      1.615     3.49     833.9064     55.05505     1843.007        43     1.513     1.056  59.32   0
         4    110.2603     14.1360 307.8987351  +6.6732422     2535.164     3625.949     3657.446      78.2944     156.1546     312.3713      1.513     3.49     829.6578     55.05505      366.447        19     1.284     0.883  64.36   0
         5     41.0202     18.4157 307.9273579  +6.6691468      8705.39     13213.85     13872.98     78.04623     156.0303     312.2471      1.609     3.38     828.6111     55.05505     1188.056        37     1.478     1.054  63.98   0
         6    101.4833     12.8792 307.9024241  +6.6734660     1460.969     2204.549     2291.419     78.41818     156.4649     312.4644      1.621     4.04     829.6568     55.05505     206.5627        16     1.313     0.780  66.00   0
         7    804.9979     12.3608 307.6101321  +6.6972471     859.0077     1127.487     835.6922     77.42236     155.9681     312.0606      1.481     4.56     825.1225     55.05505     125.3329        10     1.216     0.588  72.92   0
         8    402.8178     11.6853 307.7772640  +6.6840744     2367.404     3425.302     3086.188     77.92186     155.9681     312.2781      1.533     3.63     830.6035     55.05505     335.0886        21     1.388     0.879  70.34   0
         9    663.6088      7.2016 307.6690546  +6.6946546     11176.41     16397.83     17710.28     77.67251     155.9059     306.1615      1.548     3.29     824.0319     55.05505     1587.892        36     1.472     0.976  62.84  16
        10    719.6606     23.3396 307.6452229  +6.6898647     7663.702     11155.18     11839.38      78.2944     156.2167     312.3713      1.570     3.50      825.208     55.05505     1052.999        33     1.522     0.942  63.92   0
        11    828.2144      6.4995 307.6006816  +6.7004419     1720.091     2601.048     2653.636      78.2944     155.9681     300.5663      1.639     3.98     824.7772     55.05505     255.0564        18     1.427     0.805  56.91  16
        12    541.3034      6.5503 307.7198957  +6.6908328     1418.588     1985.986     1995.456     78.17042     156.1546     301.4363      1.588     3.90     824.6157     55.05505     196.0762        16     1.317     0.788  62.35  16
        13    655.2098      2.8172 307.6726917  +6.6961841     9489.524     13090.58     13874.78     78.04623     143.5998     257.7987      1.476     3.47     823.8782     55.05505     1426.272        32     1.460     0.956  50.79  24
        14    263.6229      4.1465 307.8353524  +6.6825182     6502.442     10186.35     10539.58     77.79729     154.9073     275.6537      1.648     3.30     832.1768     55.05505     862.6445        35     1.501     1.061  65.63  26
        15    267.4661      2.2767 307.8338186  +6.6834191     933.4813     1424.328     1911.584     77.54753     137.3157     249.9281      1.685     5.51     832.4235     55.05505      119.651        11     1.132     0.756  64.95  27
        16    898.5748      4.5699 307.5715097  +6.7035856     1534.771     2202.711     2261.831     77.79729     156.0303     280.8477      1.566     3.51     823.5494     55.05505      262.457        11     1.119     0.669  53.05  16
        17    685.0485      2.0759 307.6603181  +6.6974875      8003.46     10590.94      11203.9     75.90412     134.8208     246.9217      1.392     3.04     824.0347     55.05505     1306.251        24     1.274     0.943  38.49  27
        18    689.1818      1.2414 307.6586286  +6.6979702     3294.023     4117.517     4501.406     66.79609     122.6134     233.2671      1.054     2.35     824.0608     55.05505     885.0947        11     0.966     0.560   3.10  27
        19    440.2698      4.4981 307.7619446  +6.6882968     624.3097     840.4816     580.4585     78.17042     156.3408     280.0522      1.561     4.25     827.9313     55.05505     112.8408         6     1.108     0.465  55.08  16
        20    425.1268      2.8082 307.7682933  +6.6884871     8243.274     11627.01     11630.09     77.92186     143.4646     257.7987      1.492     3.45      829.059     55.05505     1206.268        28     1.337     0.981  57.64  24
        21    741.0219      1.7924 307.6370697  +6.6994745     1584.229     2075.888     1870.436     73.03877     130.7299     242.2022      1.302     3.10     824.8298     55.05505     304.6979        13     1.076     0.770  29.29  24
        22    166.9322      1.6586 307.8756100  +6.6802982     565.6923     666.5223     272.2303      72.1032     129.0122     240.4337      1.246     3.33     829.2559     55.05505     120.5189         5     0.827     0.495  59.69  24
        23    123.1463    989.2416 307.8605067  +6.2710880     829.5574     1282.087      1437.66     78.17042     156.2788     312.4023      1.628     4.91      853.645     55.05505     107.5036         9     0.993     0.686 -69.15   0
        24    373.9793   1023.4190 307.7552218  +6.2653891       1015.1     1365.125     1246.888      70.7452     127.6517      238.977      1.182     3.65     857.6054     55.05505     235.7499        11     1.187     0.655  10.04  24
        25    222.3276   1023.5516 307.8181762  +6.2602511     415.2742     535.4844     412.3292     69.50032      126.046     237.0208      1.058     3.46     856.5906     55.05505     71.51184         5     1.099     0.316  21.42  24
        26    634.2662    987.4541 307.6483647  +6.2889457     788.0748     1106.371     1155.422      78.2944     156.1546     312.3092      1.566     4.16     857.1111     55.05505     143.1105         7     1.172     0.662  79.85   0
        27    825.6892    985.0938 307.5689666  +6.2963098     2089.779     3183.722     3006.492      78.2944     156.6507     312.4023      1.628     4.07     854.3843     55.05505     239.1183        20     1.330     0.950  47.74   0
        28    774.0741    983.1583 307.5904617  +6.2953873     6156.729     10157.07     10898.38     78.17042     156.2788     312.3713      1.763     3.46       854.91     55.05505     831.0491        36     1.525     1.139  72.40   0
        29    741.7576    984.4030 307.6038377  +6.2937950     438.2995     786.0983      869.245     77.67251     155.7815     312.0606      2.479     4.97     855.2162     55.05505     78.18915         6     1.347     0.520  50.01   0
        30    560.3961    982.1835 307.6792112  +6.2886529     757.7942     1517.659     1540.867     77.92186     155.8437     312.1849      2.274     6.20     856.5947     55.05505     107.8735        12     1.062     1.015 -64.30   0
        31    243.4211    981.9332 307.8108196  +6.2781416     1397.872     2226.927     2551.279     77.92186     156.2167     312.3092      1.760     3.99     855.4706     55.05505     191.8209        16     1.239     0.853  73.75   0
        32    207.9397    981.5614 307.8255627  +6.2771049     846.8572     1282.106     1374.462      78.2944     156.2788     312.3713      1.602     3.70     854.6755     55.05505     120.5997         8     0.804     0.709  88.90   0
        33     68.3542    980.1245 307.8835610  +6.2730119     2655.378     4179.875     4118.708     78.17042     156.2788     312.3713      1.684     3.63     853.0832     55.05505     329.2555        25     1.402     1.007  55.91   0
        34    962.1924    978.1978 307.5125211  +6.3037062       5974.7     10377.01     10880.59     77.67251     155.9059     312.1228      1.829     3.83      851.479     55.05505     716.8341        38     1.629     1.175  57.19   0
        35    644.2576    972.1634 307.6447289  +6.2955928     709.9858     973.4048     624.2648      78.2944     156.2167     312.3402      1.584     4.99     856.5404     55.05505     91.93915         9     1.112     0.633  64.29   0
        36    936.0429    969.9783 307.5236531  +6.3062290     1735.751     3246.627     3225.301     77.79729     156.0925     312.1539      1.982     4.08     852.5201     55.05505     253.3066        21     1.366     1.029  52.57   0
        37    268.8416    965.9593 307.8008032  +6.2855893     4306.006     6746.046     7534.812     78.04623     156.2167      312.216      1.659     3.33     855.6245     55.05505     613.2295        32     1.493     1.070  70.45   0
        38    795.4733    966.2537 307.5821426  +6.3030809     1240.261     2023.148     2218.012     78.17042     156.0925     312.3092      1.790     4.29     854.5156     55.05505     153.0089        16     1.273     0.865  68.93   0
        39    656.6787    965.7484 307.6397867  +6.2986564     4479.603     6984.381     6893.247      78.2944     156.2788     312.3402      1.681     3.64     856.1381     55.05505     629.0923        28     1.430     1.054  55.23   0
        40   1006.2512    965.4000 307.4946550  +6.3104573     643.6396     1125.151     880.0284     77.54753     155.7192     311.8741      1.939     5.05     849.5311     55.05505     105.1232         6     0.971     0.744  60.07   0
        41    479.1021    964.1902 307.7135670  +6.2933628     1083.072     1626.635     1652.197     78.04623     155.8437     312.1539      1.603     3.54     857.2289     55.05505     175.1086        11     1.061     0.719  89.39   0
        42     37.6198    963.4236 307.8968836  +6.2788744     2194.365     3331.415     3481.478     78.04623     156.0303     312.2781      1.662     3.56      851.837     55.05505     260.2653        19     1.117     1.086  64.55   0
        43    888.3170    962.1883 307.5437296  +6.3078552     859.7343     1285.738     917.3296     77.92186     155.9681     312.1849      1.589     6.09     853.2978     55.05505     100.7719        12     1.333     0.781  19.02   0
        44    304.8860    959.8118 307.7860453  +6.2893359     785.6982     1210.567     1188.074     77.92186     155.9681     312.1849      1.692     4.54     856.2964     55.05505     132.6291         9     1.096     0.753  59.03   0
        45    960.4805    959.4515 307.5138582  +6.3113894     794.8433     1236.774     882.4172      78.2944     156.2167     312.3402      1.669     5.49     851.3763     55.05505     128.0378         9     0.986     0.862 -69.40   0
        46    581.3679    958.2258 307.6713075  +6.2992457     1832.377     2839.184     2634.615     77.79729     155.9681     312.1849      1.646     3.98     856.6237     55.05505     222.4509        20     1.389     0.882  53.14   0
        47   1012.8443    957.4064 307.4921844  +6.3139773     820.3772     1698.762     1763.659     77.79729     156.0303     312.0295      2.228     7.23     849.2903     55.05505     119.6726        14     1.885     0.776 -83.26  16
        48    620.5746    954.5123 307.6551536  +6.3020893     1309.028     2014.732     2596.932     78.41818     156.0303      312.216      1.779     4.17     856.6384     55.05505      166.575        15     1.292     0.767  63.67   0
        49     70.1814    955.8337 307.8836212  +6.2831021      722.595     1201.629     1653.475     77.79728     156.0303     312.1539      2.250     5.39     852.0851     55.05505     93.07794         9     0.932     0.896 -88.43   0
        50     65.9752    955.1713 307.8853898  +6.2832343     492.5007     1036.717     1584.318     77.79729     156.0303      312.216      2.124     3.80     851.9606     55.05505     78.31641         5     0.812     0.511  58.22   0
        51    300.4989    952.5717 307.7881102  +6.2921781     1332.736      2027.52     2275.137      78.2944     155.9681     312.3092      1.742     3.91     856.0992     55.05505     199.5314        12     1.186     0.775  29.64   0
        52    767.5934    949.0175 307.5942953  +6.3092674     813.7076     1328.579     1351.048     77.92186     155.9681     312.1849      1.855     5.27     854.6136     55.05505     121.8597         9     1.325     0.592  61.70   0
        53    904.9459    945.1821 307.5373937  +6.3154310     6462.943     10727.79      11177.6     77.79729     156.2167     312.1228      1.755     3.57     852.7515     55.05505     853.3845        39     1.589     1.147  61.94   0
        54    142.9846    945.8420 307.8537326  +6.2896724      565.089     878.0955     693.1052     77.79729     155.9681     312.1228      1.537     1.80     852.4896     55.05505      100.013         5     0.916     0.675   2.10   0
        55    440.7150    942.4108 307.7302362  +6.3010703     2132.434     3195.294     3334.502     77.92186     155.9681     312.1849      1.595     3.72     856.7257     55.05505     262.5908        17     1.252     0.854  56.71   0
        56    342.4111    940.5953 307.7711118  +6.2985275     9802.874     14763.79     16005.84     77.92186     155.9681     312.2471      1.656     3.29     856.5931     55.05505     1299.851        41     1.509     1.120  59.45   0
        57    262.6320    939.5560 307.8042696  +6.2962823     7065.031     10917.01     11684.48     78.04623     156.2167      312.216      1.684     3.31     854.8188     55.05505     948.1618        40     1.544     1.209  55.73   0
        58    775.1480    934.0964 307.5916581  +6.3156802     669.5518     1186.159     1168.113     78.17041     156.1546     312.5886      2.033     5.48     854.3759     55.05505     96.45056         9     1.143     0.740  45.37   0
        59    590.5850    933.8729 307.6682973  +6.3096088     1174.462     1780.192     1798.464     77.79729     155.9681     312.2471      1.609     3.85     856.2196     55.05505     197.1581        11     1.126     0.713  47.60   0
        60    921.0328    930.7837 307.5311954  +6.3219120     972.5662     1680.464     1819.074     77.92186     155.9681      312.216      1.889     5.36     852.2062     55.05505     137.0651        10     1.087     0.746 -81.19   0
        61    224.7519    930.4086 307.8203045  +6.2987885     679.5847     1176.558     1186.988     77.79729     156.0303     311.9985      1.972     5.30     853.1483     55.05505     101.2022         8     1.258     0.631  85.09   0
        62    153.0505    929.5172 307.8501033  +6.2967504     596.6096     918.7299     1288.465      78.2944     156.2167     312.3713      1.610     4.65     852.1049     55.05505     106.1809         7     0.928     0.662  64.50   0
        63    876.8960    928.4919 307.5495984  +6.3213874     659.9539     1024.057       1174.3      78.2944     156.7126     312.3092      1.738     4.74      853.019     55.05505     82.99341         8     0.952     0.671 -56.62   0
        64    419.2394    928.5200 307.7396193  +6.3060865     653.0349      851.173     1037.967     78.17042     156.2788     312.3092      1.384     4.50     856.5863     55.05505     95.64825         7     0.931     0.618 -82.56   0
        65    987.5048    925.5687 307.5037692  +6.3262792     843.6204     1532.079     1889.804     78.41818     156.0303     312.4023      1.949     5.13     850.1438     55.05505     116.6085        10     1.235     0.767  63.75   0
        66    757.0897    923.2592 307.5995189  +6.3195521     1593.736     2450.208     2790.171     78.17042     156.2167     312.4334      1.548     4.25     854.4313     55.05505     243.5534        17     1.402     0.806  63.29   0
        67    580.8152    923.8615 307.6726895  +6.3134157     810.2632     1313.222     1687.622     77.79728     156.1546     312.1539      1.679     3.12     856.0605     55.05505     136.1833         7     0.867     0.522  40.06   0
        68    620.9916    919.6758 307.6561484  +6.3164867     776.6808     1187.272     1204.896     77.92186     155.7192     312.1228      1.582     5.09     855.8333     55.05505     99.46893         9     1.117     0.656  87.38   0
        69    542.3208    919.1517 307.6888305  +6.3140732     1199.364     1704.097      1439.95      78.2944     156.2788     312.2781      1.630     4.80     856.1038     55.05505     184.1906        14     1.424     0.745  52.56   0
        70    988.3720    918.9100 307.5036315  +6.3290574      1136.42     1930.719     2452.094     78.41818     155.9681      312.216      2.018     4.74     849.9625     55.05505     143.9012        13     1.256     0.779  21.96   0
        71      7.4514    919.9590 307.9108741  +6.2958054     952.9058     1490.658      2016.63      78.2944     156.2167     307.9935      1.975     4.24     848.6203     55.05505     156.1071        10     1.082     0.691  40.88  16
        72    675.5485    916.5235 307.6336015  +6.3196109     2680.009     4122.961     4213.834      78.2944     156.2788     312.3402      1.680     3.97      855.185     55.05505     380.5666        23     1.484     0.902  59.04   0
        73     72.0830    912.7683 307.8842833  +6.3009463     2965.775     4750.119     5090.328      78.2944     156.0303      312.216      1.727     3.96     850.5548     55.05505     401.2452        27     1.455     1.065  66.31   0
        74     89.9049    911.9385 307.8769121  +6.3018876     1807.628      3013.74     3181.971     78.17042     156.2788     312.4023      1.752     4.03     851.1298     55.05505     243.1099        19     1.352     0.915  59.15   0
        75    953.5460    912.1112 307.5183193  +6.3307049     766.1416     1177.592     681.1146      78.2944     156.0925     312.4644      1.574     5.11     850.8919     55.05505     91.04437         9     1.024     0.721  59.95   0
        76    836.1277    912.8331 307.5670499  +6.3264936     705.3578     964.9965     1175.934     78.17041     156.2167     312.3092      1.510     5.30     853.3287     55.05505     104.2055        10     1.246     0.635  38.92   0
        77    215.6093    911.6893 307.8247304  +6.3062105      2368.48       3769.7     3411.439     78.04623     155.9059     312.1539      1.670     3.62     852.8303     55.05505     321.9968        23     1.403     0.986  58.94   0
        78    807.9984    907.2181 307.5789177  +6.3278738     725.3873     1267.596     1136.431     77.92186     155.7815     312.0606      1.708     4.40      853.594     55.05505     146.0245         9     1.030     0.873  29.16   0
        79    670.1540    905.6798 307.6362047  +6.3239080      6996.14     10889.55     11473.24      78.2944     156.2167     312.3402      1.647     3.42     855.1322     55.05505     940.4479        34     1.513     1.020  63.00   0
        80    354.4528    907.7486 307.7672164  +6.3124926     1027.324     1479.742     1475.012     78.41818     156.0925     312.3713      1.513     4.93     855.6649     55.05505     155.2167        12     1.075     0.926  15.18   0
        81    249.7418    908.1022 307.8106797  +6.3088365     888.7254     1255.999      1244.83     78.04623     156.1546     312.4955      1.428     3.32      853.718     55.05505     146.6006         7     0.864     0.566  58.20   0
        82     30.1631    903.9670 307.9019842  +6.3031713     1243.331     2250.204     2736.857     77.92186     155.9681     312.1228      1.927     4.77     848.8644     55.05505     197.0366        17     1.242     1.104 -26.94   0
        83    908.0468    902.0542 307.5375479  +6.3333415     2586.652     4102.656      4152.76      78.2944     156.2167     312.3713      1.657     4.11     851.9283     55.05505     361.9969        22     1.331     1.004  54.74   0
        84     43.1876    902.3556 307.8966311  +6.3042744     1024.989     1402.937     929.2903     77.79729     156.0303     312.0917      1.439     3.82     849.2478     55.05505     175.2529        12     1.218     0.666  65.07   0
        85    353.1767    898.8855 307.7680441  +6.3161092      16525.6      24809.6     26273.47      78.2944     155.9681      312.216      1.583     3.22     855.2729     55.05505      2437.23        45     1.524     1.070  59.79   0
        86     87.7084    899.8981 307.8782299  +6.3067849     1266.286      2202.83     2638.353      78.2944     156.7126     312.3092      2.074     5.10     850.7425     55.05505     192.0291        17     1.570     0.777  59.67   0
        87    224.2337    898.4901 307.8215939  +6.3119494     1311.775     2176.568     1975.779     78.41818     156.0925     312.3402      1.659     3.67     852.8233     55.05505     182.6247        15     1.200     0.829  77.02   0
        88    404.4911    897.7972 307.7467749  +6.3182774     689.0779     1286.634     1359.526     77.67251     155.9059     312.0917      2.226     5.74     855.2294     55.05505     85.89771         7     1.165     0.795  65.74   0
        89    430.8941    889.8958 307.7360777  +6.3224239     1223.384     1671.442     1722.529      78.2944     156.8364     312.2781      1.468     3.87     855.0989     55.05505     176.7126        11     1.083     0.688  61.89   0
        90    116.3825    889.5524 307.8666735  +6.3120194     1699.671     2592.817      2928.03     77.79729     156.1546     312.1228      1.729     4.46     851.1309     55.05505     209.8094        19     1.289     1.045  47.18   0
        91    684.7245    885.9902 307.6308145  +6.3325241     875.3115     1356.017     1881.328     77.92186     155.8437     312.1539      1.491     3.14     854.7157     55.05505     126.4838         9     0.898     0.667  17.23   0
        92    511.6056    885.8828 307.7027002  +6.3267819     583.5008     1133.937     1361.452     77.92186     155.8437     312.1228      1.690     3.49      855.871     55.05505     93.14941         5     0.792     0.444  71.76   0
        93    898.1631    883.7111 307.5422652  +6.3405858     1878.386     3032.323      3361.89      78.2944     156.1546     312.3402      1.742     3.45     851.7803     55.05505     254.7889        19     1.254     0.960  64.18   0
        94    869.0325    883.3246 307.5543741  +6.3397745      1868.58     2933.868     3066.266     78.17041     156.2167     312.3092      1.754     3.58     852.2931     55.05505     256.7897        21     1.306     0.939  55.30   0
        95    100.0096    883.2194 307.8736847  +6.3140843     2354.774     3834.087     4074.101     77.92186     155.9681     312.1849      1.672     3.63     850.6735     55.05505      339.958        22     1.378     0.931  65.07   0
        96    832.3079    882.6800 307.5696448  +6.3388162     2959.198     4726.528     5016.754     78.04623     156.4649     312.4023      1.688     3.31     852.8654     55.05505     390.2864        25     1.339     1.009  59.36   0
        97    462.7843    880.9150 307.7231382  +6.3271994     529.3925     688.7653     1055.994     77.92186     155.9681     312.2471      1.945     4.91     855.3328     55.05505     101.6388         8     1.446     0.473  54.99   0
        98    568.2632    874.0657 307.6795715  +6.3335559     339551.2     509168.8     539516.2      78.2944     156.2167     312.3402      1.597     3.51     855.6816     55.05505      51451.2       184     1.745     1.330  62.37   4
        99    348.1928    881.1769 307.7707088  +6.3232537     663.6127     920.6129     1475.815     77.79728     156.0303     312.1849      1.448     4.78     854.4685     55.05505     91.15997         8     0.973     0.665 -27.88   0
       100    412.5049    876.6452 307.7441582  +6.3272790     7902.398     11877.83     12671.47      78.2944     156.1546     312.4644      1.646     3.39     854.3149     55.05505     1063.765        39     1.574     1.045  55.73   0
       101    656.2438    877.1573 307.6429364  +6.3352198     1087.534      1595.33     1578.971     78.04623     156.2167     312.1849      1.576     3.71     854.9316     55.05505     165.7965        12     1.102     0.748  59.83   0
       102    355.7079    875.0218 307.7677954  +6.3260468      12724.9     19172.15     19763.63      78.2944     156.0303     312.1849      1.572     3.27     854.2278     55.05505     1774.139        44     1.513     1.107  63.54   0
       103    674.1922    871.4431 307.6356753  +6.3381787     3541.771     5498.244     5411.742     77.79729     156.0303     312.0606      1.639     3.43     854.7204     55.05505     530.1494        25     1.387     0.970  56.72   0
       104    906.3493    870.1990 307.5393178  +6.3464377     5255.901     8556.965     9744.138     77.67251     155.8437     311.9052      1.810     3.63     851.3746     55.05505     677.6409        40     1.646     1.344  27.10   0
       105    649.0296    865.3231 307.6463286  +6.3398650     3312.885     5073.409      5749.64     78.17041     156.2788     312.3713      1.670     3.15     854.8375     55.05505     492.3744        26     1.408     1.014  68.80   0
       106    837.3853    864.6949 307.5681383  +6.3464113      1607.43      2468.38     2138.024     78.04623     155.9681     312.1539      1.705     3.58     852.4741     55.05505     209.6304        16     1.102     0.938  50.61   0
       107    639.1981    864.1777 307.6504493  +6.3400094     948.0438     1693.861     2569.788     77.92186     155.9059     312.0606      1.862     3.74     854.8761     55.05505     182.6191        10     1.050     0.683  48.03   0
       108    191.7032    865.3525 307.8362160  +6.3245395      565.641     761.3258     730.7414      78.2944     156.0925     312.4955      1.500     4.05     852.1634     55.05505     87.04053         6     0.883     0.530  42.84   0
       109    964.4045    863.1953 307.5154450  +6.3512635      783.969      1416.68     1119.917     77.67251     155.7815      312.216      1.643     4.95     849.4799     55.05505     113.2939         8     1.199     0.578  71.58   0
       110    925.5670    858.0808 307.5317429  +6.3520815      2992.11     5046.519     5448.823     78.17041     156.1546     312.3092      1.859     3.44     850.7755     55.05505     380.6848        29     1.543     1.052  70.08   0
       111    641.8978    859.9126 307.6494713  +6.3418606     2161.567     3309.075     4109.975      78.2944     156.6507     312.3713      1.709     4.19      854.741     55.05505     289.7335        19     1.445     0.817  58.52   0
       112    335.7906    858.4952 307.7766209  +6.3322028     944.4076     1297.742     1108.154     78.04623     155.8437     312.1228      1.516     5.41     853.6436     55.05505     158.8665        10     1.365     0.850  79.39   0
       113    383.5147    854.0485 307.7569546  +6.3356378     2715.856     4179.904     4142.661      78.2944     156.1546     312.3402      1.617     3.37     853.5702     55.05505     383.3971        24     1.433     0.961  60.99   0
       114    519.9175    843.7767 307.7006622  +6.3444448     3121.676     4656.633     4218.523     78.17041     155.9681     312.2781      1.519     3.34      854.603     55.05505      461.381        23     1.371     0.893  51.86   0
       115    352.0096    845.9450 307.7703085  +6.3379280     549.1915     573.6378     351.5681     77.67251     156.1546     312.0606      1.384     3.64     853.4203     55.05505     89.19812         5     0.665     0.573  89.74   0
       116    864.5096    842.9969 307.5576010  +6.3562746     1035.781     1586.125     1667.683     77.79728     155.9059     312.0917      1.769     4.48     851.4818     55.05505     148.7573        12     1.033     0.874  76.41   0
       117    585.2448    841.5939 307.6736096  +6.3475308     839.0363     1286.408     1390.906     77.79729     156.0303     311.9985      1.870     5.29     854.4683     55.05505      106.053        10     0.939     0.841  44.50   0
       118    566.6702    839.8701 307.6813802  +6.3476215     6084.443     8959.644     9614.647      78.2944     156.3408     312.3092      1.545     3.42     854.4595     55.05505     820.2921        31     1.395     1.035  58.01   0
       119    573.5963    839.3093 307.6785230  +6.3480846     1364.638      2056.76     2529.651     77.79729     155.9059     312.0606      1.532     4.06     854.3871     55.05505     217.6912        13     1.317     0.700  60.80   0
       120    278.0747    840.4894 307.8011908  +6.3377022     804.7928      1201.26     1011.331      78.2944     156.5268     312.4334      1.373     4.91     852.9109     55.05505     120.0796         8     1.152     0.593  33.41   0
       121    484.5133    838.7787 307.7155308  +6.3453239      1498.72     2101.357     2436.247      78.2944     155.9681      312.216      1.589     3.51     854.1545     55.05505     231.6515        13     1.140     0.774  54.83   0
       122    902.4566    838.0947 307.5420076  +6.3595635     1170.076     1948.108      1629.67     78.17041     156.2167     312.5265      1.807     4.39     850.7438     55.05505     184.0077        16     1.337     0.942  34.23   0
       123    126.1481    837.8448 307.8643612  +6.3336959     1455.418     2191.879     1645.143     78.41818     156.1546     312.3402      1.564     3.66     850.0248     55.05505     214.9868        14     1.146     0.819  40.76   0
       124    702.0928    836.2078 307.6252706  +6.3536587     694.3458       1208.6     1210.084     77.92186     155.9059     312.1539      1.804     5.97     853.6572     55.05505     102.2592         9     1.327     0.755  56.76   0
       125    537.3623    833.7245 307.6937559  +6.3491787     19954.12     29664.26     31378.14     78.17042     156.2788     312.3713      1.592     3.35     854.1859     55.05505     2860.223        48     1.513     1.101  64.29   0
       126    378.4335    835.2620 307.7596958  +6.3432241     725.8807     1195.725     796.3661     78.04623     156.2788     312.2781      1.715     4.26     853.1905     55.05505     129.6453        10     1.187     0.615  53.48   0
       127    951.0840    832.0083 307.5220185  +6.3636967     3585.498     5787.107      5959.59     77.92186     155.9059     312.1849      1.703     3.55     849.5025     55.05505     521.3804        33     1.566     1.075  53.20   0
       128    183.9670    833.5412 307.8404993  +6.3374138     567.8386     903.0301      563.806     78.17041     156.2788     312.3092      1.498     3.01     851.2312     55.05505     101.4719         5     0.732     0.602  84.02   0
       129     70.7750    829.8509 307.8876216  +6.3351362     565.4887     773.8584     894.5942     77.92186     156.2167     312.2471      1.330     2.60     848.3204     55.05505     97.39886         6     0.736     0.552  39.35   0
       130     47.7554    824.0876 307.8973738  +6.3367421      1530.57     2372.668     1904.426      78.2944     156.0925     312.3713      1.575     4.35     847.7982     55.05505     223.8978        21     1.482     0.998  66.15   0
       131    330.1993    822.6965 307.7801462  +6.3467959     3354.312      5033.99     5601.969     77.79729     155.8437     311.9674      1.687     3.40     852.8732     55.05505     458.0559        28     1.585     0.945  50.74   0
       132    592.1896    822.8022 307.6713561  +6.3555217     490.1351     901.6671     946.3599     77.92186     155.9059     312.1539      1.664     7.00     853.7076     55.05505     87.20093         8     1.509     0.911  13.39   0
       133    795.5354    818.3112 307.5870684  +6.3641668     55391.98     83750.93     88903.73      78.2944     156.4649     312.3713      1.648     3.34     851.7856     55.05505     7456.449        80     1.671     1.205  57.71   0
       134     29.9984    820.5620 307.9048654  +6.3376009      2334.36     3606.288     3849.163     77.42236     156.0303     312.0917      1.612     3.55     847.4944     55.05505     324.6797        21     1.266     0.990  52.02   0
       135    734.0612    819.9382 307.6125410  +6.3614435     705.5093     1117.276     1467.173      78.2944     156.2167     312.3713      1.898     4.48     853.1963     55.05505     126.9355         8     0.990     0.716  68.99   0
       136    252.7486    816.0277 307.8125298  +6.3469525     5148.043     8231.021     10187.77     77.92186     156.3408     312.2471      1.869     3.32      851.725     55.05505     707.3437        38     1.645     1.094  64.36   0
       137    438.7721    816.8769 307.7352594  +6.3528356     824.7598     1443.913     1430.828     78.17041     156.2167     312.2781      1.896     5.54     852.9137     55.05505     123.0894        10     1.160     0.746  34.11   0
       138    920.7558    813.5141 307.5352307  +6.3703225     8184.775     13002.74     13884.75      78.2944     156.0925     312.3092      1.742     3.70     849.9031     55.05505     1107.661        41     1.618     1.105  53.38   2
       139    917.7808    805.0131 307.5367503  +6.3737334     6464.353     10246.47      10686.2     78.04623     155.9681     312.2471      1.681     3.44     849.7529     55.05505     917.4307        37     1.541     1.074  57.39   3
       140    723.7164    812.9229 307.6170716  +6.3639947     21680.82     34170.32     37409.54     78.41818     156.5268     312.4334      1.682     3.44     853.1736     55.05505     3181.294        56     1.674     1.145  65.54   3
       141    717.4805    809.4223 307.6197783  +6.3652319     89442.17     134153.4     142559.9     77.92186     155.9059     312.2781      1.638     3.29     853.1475     55.05505     12402.68        93     1.662     1.233  63.66   3
       142    362.3763    810.2810 307.7672029  +6.3530002     21308.13     31588.21     32987.46     78.04623     155.9059     312.2471      1.596     3.23     852.7094     55.05505     3213.309        52     1.549     1.086  59.15   0
       143    411.5304    810.4252 307.7467878  +6.3545872     1526.971     2143.378      2706.86     77.92186     156.0925     312.2781      1.554     3.65     852.6453     55.05505     192.3673        16     1.236     0.804  65.90   0
       144    424.2625    808.1676 307.7415769  +6.3559457     22787.56     33730.62      35547.2     78.04623     156.2788     312.3092      1.564     3.17     852.6147     55.05505     3641.448        52     1.539     1.111  54.00   0
       145    651.1555    809.6187 307.6473131  +6.3629356     804.9991     1064.012     1577.216     77.92186     156.0925     312.0917      1.442     4.20     853.3003     55.05505     118.1863         8     0.973     0.596  73.22   0
       146    961.2501    806.9335 307.5186350  +6.3743885     1931.747     3240.923     3153.243     78.17042     156.0925     312.3092      1.766     3.86     848.8842     55.05505     271.7048        23     1.401     1.004  66.57   0
       147    252.3086    794.6079 307.8134333  +6.3557814     769757.9      1785666      2004890     77.92186     155.9059     312.1228      2.312     5.08     851.0897     55.05505     63712.59       609     2.523     2.124  68.44   4
       148    447.0208    802.1870 307.7323277  +6.3591770     1743.051     2542.631     2645.088     78.04623     155.9059     312.2471      1.493     3.93     852.4819     55.05505      284.949        14     1.236     0.768  61.47   0
       149    172.2323    801.3079 307.8464573  +6.3503282     759.8221      1239.16     669.7275     78.41818     156.0303     312.3713      1.840     4.97     850.2384     55.05505     91.28589         8     1.100     0.635  54.96   0
       150    611.2596    796.2082 307.6643294  +6.3671394     941.8493     1261.025     1742.306     77.67251     156.0303     312.0606      1.458     3.62     852.8439     55.05505      145.607        11     1.040     0.727  51.44   0
       151    137.5740    795.2819 307.8610511  +6.3516525     1090.925     1709.801     1717.473     78.17042     155.9681     312.3402      1.740     3.80     849.1188     55.05505     182.7078        13     1.159     0.859 -86.46   0
       152    886.4069    795.8208 307.5500860  +6.3764832     700.2472      954.733     995.1343     77.92186     156.0303     312.1539      1.548     3.83     850.0815     55.05505     137.2818         6     0.887     0.474  49.07   0
       153    162.2744    794.8402 307.8508099  +6.3526642     921.2543     1349.609     924.1002     78.17042     156.2167     312.3713      1.539     3.76      849.924     55.05505     165.3099        12     1.228     0.654  56.61   0
       154    693.3593    794.1846 307.6303053  +6.3707179     2638.254     3869.942     4017.053     77.79729     156.0303     312.1228      1.517     3.23     852.7449     55.05505     358.4825        19     1.145     0.944  68.16   0
       155    427.1737    790.7988 307.7409516  +6.3632144     54734.77     81690.88     86014.61     77.92186     155.9059     312.1228      1.572     3.21     852.0255     55.05505     8309.438        81     1.570     1.242  59.31   0
       156    970.0773    792.2324 307.5154607  +6.3807525      690.001     881.8009     1457.975     78.17041     156.2167     312.2781      1.351     3.99     848.4229     55.05505     122.7057         6     0.804     0.567  42.07   0
       157    544.8477    789.7805 307.6921224  +6.3675728     7419.565     10687.74     11057.62     77.79728     156.2167     312.1539      1.510     3.16     852.0909     55.05505     1186.146        31     1.394     0.976  60.64   0
       158    461.8227    788.4582 307.7266425  +6.3653408     4645.379     6860.499      7878.88     77.92186     156.2167     312.1849      1.582     3.36     851.9808     55.05505      675.261        26     1.363     0.958  62.26   3
       159    458.2875    781.8716 307.7283317  +6.3679420     2371.092     3513.635     3824.534     78.41818     156.4649     312.3402      1.561     3.41     851.7503     55.05505     336.8716        20     1.357     0.856  74.14   3
       160    790.1342    786.4238 307.5903787  +6.3771526     11456.29     17667.81     18973.53     77.92186     156.2167     312.2781      1.648     3.41     851.1003     55.05505     1612.942        41     1.561     1.050  57.32   0
       161    658.3197    804.0009 307.6445265  +6.3654944     6618.052     9607.665     9745.604     77.54753     155.6569     312.1228      1.518     3.16     853.1376     55.05505     1061.171        31     1.416     0.954  52.78   0
       162     19.4237    782.6645 307.9105344  +6.3528920     1051.422     1623.486     1659.026     77.92186     156.2167     312.2471      1.694     3.78     847.2708     55.05505     165.9551        11     1.184     0.626  46.94   0
       163    811.7060    780.8128 307.5816086  +6.3801890     1284.301     1968.902     1241.537     78.04623     155.9681     312.1539      1.587     3.11     850.6186     55.05505     244.1343        12     1.135     0.701  55.76   0
       164    156.0479    778.7154 307.8539385  +6.3591126     3023.034     4781.379     5336.958      78.2944     156.2167     312.3713      1.660     3.24     849.1609     55.05505     448.4682        26     1.453     0.932  53.46   0
       165    140.1900    769.3713 307.8608379  +6.3624380     1862.329     2864.042      3104.07     77.79729     156.0303     312.1849      1.656     3.55     848.4615     55.05505     287.7179        17     1.240     0.882  71.66   3
       166    147.8714    778.4128 307.8573437  +6.3589630     11819.73     17930.95     19703.28     77.79729     155.9681     312.1849      1.626     3.29     848.9188     55.05505     1637.795        44     1.515     1.118  53.75   3
       167    140.0459    775.8757 307.8606786  +6.3597477     2828.585     4554.726     5172.667     78.17042     156.2788     312.3713      1.717     3.35     848.6571     55.05505     417.8635        25     1.455     0.966  41.73   3
       168    935.6586    774.9973 307.5303297  +6.3867223     6024.628     9662.561     10217.77     77.67251     156.0303     312.0917      1.693     3.32     848.9936     55.05505     887.7987        34     1.526     1.048  60.62   0
       169    984.9866    774.8130 307.5098513  +6.3884413     1425.546     2120.282     2435.362     78.17042     155.9059     312.2781      1.652     3.76     847.6507     55.05505     225.5808        20     1.357     0.947  66.24   0
       170    398.2032    803.5139 307.7525540  +6.3569944     473.5154     577.2437     429.7534     77.67251     155.8437     312.0606      1.435     3.75       852.54     55.05505     76.10065         5     1.040     0.389  83.87   0
       171    690.9988    772.6053 307.6320086  +6.3795488     1726.153     2416.163     2723.453     77.67251     155.9059     312.1228      1.419     3.53     851.8047     55.05505     247.1155        14     1.165     0.790  54.91   0
       172    578.0450    771.9197 307.6789365  +6.3760574     2418.839     3486.062     3664.322      78.2944     156.2167     312.3402      1.505     3.09     851.7726     55.05505     387.8534        17     1.236     0.796  44.64   0
       173    425.7834    770.9949 307.7421943  +6.3713445     1202.416     1724.168     1344.945     77.92186     155.9059     312.1849      1.543     3.95     851.1707     55.05505     199.6284        13     1.231     0.804 -78.09   0
       174    709.3621    770.0635 307.6244682  +6.3812115     479.1571     700.3962     120.2381      78.2944     156.1546     312.4023      1.521     3.92     851.7172     55.05505     83.83179         6     1.377     0.320  61.69   0
       175    929.8109    766.8976 307.5330289  +6.3898717     2886.981     4472.283     4677.205     78.04623     155.8437     312.1849      1.645     3.54     849.0601     55.05505     417.0825        25     1.383     0.973  64.28   0
       176    959.1761    766.3843 307.5208514  +6.3910619      2932.57     4799.435      4822.83     78.04623     156.0303     312.2781      1.708     4.12     848.1944     55.05505     379.8646        28     1.507     1.058  53.28   0
       177    990.2167    766.1686 307.5079683  +6.3921847     1910.986     2860.505     2937.541     77.92186     155.9681     312.2471      1.581     3.58      847.282     55.05505     278.0031        18     1.243     0.892  57.82   0
       178    682.3513    766.2565 307.6358123  +6.3818813     1417.525     2385.695     2900.638      78.2944     156.2167     312.4334      1.877     3.29     851.4642     55.05505     219.8949        14     1.058     0.874  82.79   0
       179    829.5872    764.7293 307.5747214  +6.3874261     998.9126     1540.727     1519.044     77.79729     155.9681     312.1849      1.764     4.15     850.1582     55.05505      150.431         8     0.928     0.764  70.29   0
       180    904.6451    762.0314 307.5436422  +6.3910424     873.7151      1320.55     1685.235     77.92186     156.2788     312.1849      1.749     5.67     849.3477     55.05505     130.0463        11     1.296     0.699  36.03   0
       181    254.7278    761.3062 307.8135496  +6.3696120     1908.383     2991.379      4017.29     78.17042     156.2788     312.4023      1.826     4.04     850.0128     55.05505     257.1649        17     1.311     0.816  65.24   0
       182    691.4605    758.2851 307.6322967  +6.3854769     714.9172     1039.305     1554.271     78.41818     156.2788     312.4334      1.542     3.49     851.1332     55.05505     102.5124         5     0.757     0.464  72.32   0
       183    947.9014    756.6937 307.5258574  +6.3946876     873.4544     1191.097     770.7391      78.2944     156.7745     312.2471      1.569     4.36     848.3716     55.05505     120.0397         8     0.974     0.614  66.00   0
       184    275.1490    756.7214 307.8052242  +6.3721898     745.3985     1114.044     1382.845      78.2944     156.2788     312.3402      1.562     4.24     850.0197     55.05505     126.0881         7     0.887     0.578  41.23   0
       185    170.5489    756.1541 307.8486772  +6.3689144     750.0784     1108.241     1096.592     78.41818     156.0925     312.4023      1.507     4.93     848.5925     55.05505     116.5061         9     1.309     0.527  55.15   0
       186    921.7595    755.4667 307.5367546  +6.3943232     1004.284      1837.78     1793.671      78.2944     156.1546     312.4334      1.708     4.83     849.0356     55.05505     159.7535        14     1.423     0.789  48.49   0
       187    974.1088    754.2870 307.5150545  +6.3965542     2597.017     3874.812     4225.424     78.04623     156.6507     312.4644      1.552     3.71     847.4873     55.05505     351.0637        20     1.267     0.934  52.05   0
       188    693.7285    753.5300 307.6315143  +6.3875159      1002.58     1671.009      1402.85     78.41818     156.3408     312.2781      1.800     5.43      850.967     55.05505     174.9033        10     1.347     0.618  56.83   0
       189   1015.9201    747.7534 307.4979094  +6.4006440     1586.565     2367.272      2833.65      78.2944     156.2167     312.3402      1.541     3.90     845.9482     55.05505     224.9286        15     1.304     0.763  64.98  16
       190    485.0350    748.8053 307.7183353  +6.3824897     653.3156      926.529     881.0171     77.54753     156.0303     312.1228      1.257     3.00     850.7524     55.05505     114.2823         6     0.880     0.463  38.48   0
       191    642.2905    747.1699 307.6530879  +6.3884236     696.9414     938.6835      735.777     78.41818     155.9681     312.3092      1.418     4.80     850.8521     55.05505     99.15656        10     1.212     0.630  55.08   0
       192    817.0004    745.8885 307.5805789  +6.3947854     1273.138     1989.911     1955.376     77.54753     155.7192     311.9985      1.488     4.21     849.8524     55.05505     211.2651        12     1.308     0.674  51.67   0
       193    903.6232    743.3047 307.5446928  +6.3987404     1712.779      2849.85     3358.427      78.2944     155.9681      312.216      1.893     4.51     849.1089     55.05505     250.7991        19     1.448     0.871  55.44   0
       194    878.0117    738.5071 307.5554893  +6.3998676     1049.577      1680.57     1888.094     78.04623     155.9059     312.1539      1.804     3.75     849.3707     55.05505     191.6298        13     1.092     0.916  59.48   0
       195    860.5056    734.9639 307.5628778  +6.4007469     1595.777     2311.182     1823.907     78.41818     156.0925     312.4334      1.498     3.32     849.4883     55.05505     223.6194        16     1.091     0.942  75.73   0
       196     59.6883    733.9149 307.8954598  +6.3743725     2471.044     3528.323      3424.68     78.04623     156.4649     312.4334      1.510     3.29     847.1442     55.05505     376.6248        20     1.413     0.855  50.73   0
       197   1006.5983    733.9070 307.5022431  +6.4060507     510.0765     699.3203     217.9444     77.79728     155.9059     312.0606      1.460     3.89     845.9388     55.05505     86.77539         5     0.884     0.490 -88.26   0
       198    123.4886    732.4781 307.8690161  +6.3771092       1011.7     1860.292     1947.106     78.04623     156.4649     312.4644      2.018     4.64     847.4047     55.05505     160.0096        12     1.343     0.645  75.83   0
       199    471.8204    732.9119 307.7243565  +6.3886094     598.4932     654.9607     798.1017     78.17041     155.9681     312.2471      1.238     4.69     850.1143     55.05505     111.0422         6     0.902     0.691  16.51   0
       200    714.8527    725.8967 307.6236679  +6.3996308     526.0624     649.7968       493.93     78.17041     156.2167     312.5886      1.289     3.77     850.1362     55.05505     102.9554         5     0.936     0.437  43.62   0
       201    672.2177    722.3011 307.6414937  +6.3996914     6506.778     9503.137     10301.04      78.2944     156.0925     312.0917      1.545     3.30     849.8806     55.05505     1011.936        33     1.474     1.010  67.86   0
       202    618.9847    721.6554 307.6636217  +6.3981793     1490.164     2318.424     2426.059     77.67251     156.1546     312.0606      1.717     3.51      850.355     55.05505     233.6213        14     1.197     0.768  67.40   0
       203    529.4028    721.7656 307.7008188  +6.3951384     751.5556     1091.332     772.6766     77.42236     156.0303     312.0917      1.433     3.20     849.8584     55.05505     117.3359         6     0.710     0.638  43.09   0
       204    135.2349    718.1269 307.8646221  +6.3834289     3870.723      5983.16     6156.034     78.17041     156.2167     312.2781      1.636     3.52     847.2023     55.05505     503.5118        29     1.457     1.023  60.58   0
       205   1009.2526    717.4008 307.5016923  +6.4129544     2396.715     3850.503     4335.548     77.67251     155.7815     311.9052      1.751     3.83     845.9684     55.05505     303.3521        23     1.332     1.004  67.28   0
       206    646.0970    718.0250 307.6524844  +6.4005843     2202.209     3179.683     2784.101     78.41818     155.9681     312.2471      1.465     3.19      850.037     55.05505     370.3519        16     1.163     0.782  57.41   0
       207    257.3970    717.8856 307.8139026  +6.3876287     681.0335     956.5778     1465.988     77.67251     155.8437     312.0606      1.294     3.50     848.3208     55.05505     123.4333         8     0.922     0.718  48.70   0
       208    789.1282    714.3873 307.5932082  +6.4068621     20442.05     30456.93     32632.62     77.79729     155.8437     312.1539      1.579     3.32     849.5327     55.05505     2987.979        54     1.543     1.135  60.06   0
       209    919.1209    714.0785 307.5392342  +6.4113241     3729.026     5528.046     5999.584     78.54177     156.4649     312.4644      1.559     3.20     848.1623     55.05505     594.6121        23     1.368     0.924  54.96   0
       210    488.1410    714.6000 307.7181941  +6.3967163     1422.866     1990.728     2094.053     77.54753     155.8437     311.9985      1.567     4.33     849.5678     55.05505     217.7787        12     1.222     0.680  71.28   0
       211    516.6528    714.4406 307.7063594  +6.3977362     834.7975     1192.912     851.2865     78.17042     156.2788     312.3402      1.461     3.41     849.5734     55.05505     145.3204         8     1.072     0.499  40.67   0
       212    333.5917    714.3381 307.7823817  +6.3916482     680.5032     950.2458     542.2039     77.67251     156.0303     312.1539      1.422     3.22     848.5509     55.05505     124.1821         6     0.900     0.642  29.99   0
       213    290.4036    714.4761 307.8003112  +6.3901434     658.8702     1003.869     1189.277     77.79729     155.7192      312.216      1.530     4.23     848.2269     55.05505     95.32343         7     0.860     0.685  13.62   0
       214    652.3465    708.4507 307.6502101  +6.4047462     943.3987     1709.216     1439.736     78.41818     156.1546     312.3713      1.809     6.74     849.8077     55.05505      121.144        15     1.783     0.715  77.86   0
       215    978.2296    710.0194 307.5148225  +6.4149692     448.7962     500.3339     726.2448     77.92186     156.0303      312.216      1.307     4.32     846.7153     55.05505     81.73285         5     1.040     0.512 -50.89   0
       216    262.6622    708.0605 307.8120469  +6.3918619      6310.89     9483.664     10108.79      78.2944     156.2167     312.3713      1.572     3.25     847.8735     55.05505     890.4264        31     1.407     1.013  56.30   0
       217    669.6453    707.1574 307.6430696  +6.4058581     7119.587     10675.68     11032.77      78.2944     156.2167      312.216      1.576     3.23      849.678     55.05505     997.8881        33     1.439     0.987  58.74   0
       218     97.5170    709.4863 307.8805755  +6.3857294     520.8953     720.1346     1338.189     78.04623     156.4029     312.4023      1.974     4.08      846.908     55.05505      91.9071         5     1.200     0.396  35.58   0
       219    929.2062    699.9180 307.5355193  +6.4175069     1165.974     1805.584     1899.421     77.92186     155.7815     312.1228      1.523     3.02     847.4991     55.05505     209.5505        13     1.124     0.724  60.94   0
       220    741.3400    695.7433 307.6136784  +6.4129651     3700.862      5783.66     6713.964     78.41818     156.2167     312.3713      1.719     3.84     849.5988     55.05505     498.2852        28     1.581     1.000  69.66   0
       221    696.4506    695.9946 307.6323120  +6.4113625     996.5061     1333.673     1528.431     77.67251     156.0303     311.9674      1.428     3.34     849.5475     55.05505     143.7558        10     1.031     0.688  25.17   0
       222   1007.6723    692.1331 307.5031927  +6.4233347     8843.221      13962.6     14467.67      78.2944     156.3408     312.3402      1.681     3.37     846.1275     55.05505     1187.715        41     1.572     1.113  59.83   8
       223    946.0394    692.7740 307.5287674  +6.4210174     2337.641     3786.697     2846.757     77.92186     156.0303     312.1849      1.682     3.80     847.0203     55.05505     336.4784        26     1.397     1.089  36.61   0
       224     26.8918    692.0122 307.9104915  +6.3905702     1875.503      3086.64     3782.673     78.04623     155.9681     312.1228      1.876     4.06     846.5067     55.05505     289.2618        24     1.466     0.996  49.99   0
       225    560.3701    690.3627 307.6890128  +6.4091399     663.2266     1046.019     1114.247     77.92186     155.9681      312.216      1.644     5.49     849.0175     55.05505     112.4073         9     1.454     0.585  30.29   0
       226    443.6855    689.9775 307.7374823  +6.4053943     617.0947     758.1239     548.0052      78.2944     156.0303     312.2471      1.345     4.19     848.4203     55.05505     105.0337         5     1.042     0.480  53.58   0
       227     85.0142    687.1511 307.8865202  +6.3945308     25724.48     39222.07     41302.27     77.67251     156.1546     312.0606      1.598     3.37      846.517     55.05505     3848.825        57     1.542     1.159  57.68   0
       228    546.1931    688.0637 307.6949774  +6.4096149     2081.394     3175.402     3576.727     77.67251     155.9059     312.1539      1.603     3.50     848.7813     55.05505     359.0393        18     1.310     0.801  61.35   0
       229    514.7363    685.1188 307.7081397  +6.4097785     1487.964     1944.054     2464.733     78.41818     156.2788     312.3402      1.373     3.47     848.5743     55.05505     217.0553        11     1.004     0.759  67.14   0
       230    935.8988    684.2329 307.5332643  +6.4242062     1113.781      1649.58     1508.156      78.2944     156.0925     312.4644      1.529     4.71     846.8967     55.05505     157.8586        13     1.232     0.849  46.88   0
       231    555.4662    681.8285 307.6913357  +6.4124995     1052.778      1390.71     1413.279     78.04623     156.1546     312.2781      1.442     3.45     848.7047     55.05505     177.7003         9     1.063     0.576  57.71   0
       232    731.1287    679.3296 307.6184689  +6.4194012     3673.502     5207.557     5017.852      78.2944     156.3408     312.2781      1.462     3.28     849.2739     55.05505     550.8262        20     1.286     0.840  53.20   0
       233    752.9866    677.3623 307.6094573  +6.4209431     3946.632     6014.316     6740.354     77.79728     156.0303     312.0606      1.616     3.49     849.1622     55.05505     593.1049        24     1.381     0.954  60.79   0
       234    584.6003    675.4866 307.6794496  +6.4160922      3493.79     4974.921     5195.244     77.54753     155.7192     311.9985      1.548     3.18     848.8986     55.05505     491.1368        23     1.314     0.884  62.28   0
       235    420.5422    675.8876 307.7475666  +6.4104368     1377.317      2096.67     2454.408      78.2944     156.1546     312.4644      1.637     4.02     847.8677     55.05505      218.678        16     1.381     0.719  64.75   0
       236    328.6016    674.5732 307.7857914  +6.4078989     1394.455     2158.916     2188.581     77.79729     155.9059     312.1228      1.655     4.21     847.3331     55.05505     194.4429        15     1.366     0.784  70.57   0
       237    245.1343    675.0879 307.8204355  +6.4048874     1824.475     2800.576     2690.975      78.2944     156.4028     312.3713      1.475     3.61     846.2234     55.05505     283.1217        14     1.200     0.738  61.46   0
       238    991.3475    672.5461 307.5106269  +6.4308785      8158.97     12406.66     12932.29     78.54177     156.1546     312.3713      1.667     3.53     846.3088     55.05505      1060.44        41     1.546     1.102  59.27   0
       239      7.0436    694.6085 307.9186457  +6.3888309      609.494     828.6143     568.9904     77.79728     156.0303     305.0189      1.343     3.88     846.5044     55.05505     104.7744         5     1.235     0.350  45.95  16
       240    711.2656    671.3305 307.6269860  +6.4220407      929.486     1339.953     1006.625      78.2944     156.2788     312.3402      1.417     3.57     849.0975     55.05505      179.899         9     1.157     0.494  52.82   0
       241    102.6540    669.6038 307.8797869  +6.4023682     722.9315     1294.294     1511.963     77.67251     155.9681     311.9985      1.928     5.71     846.2177     55.05505     98.09027        12     1.553     0.591  68.16   0
       242    149.7824    666.0244 307.8603369  +6.4054290     24177.62        36836     38358.39     78.04623     156.0925     312.2781      1.595     3.40     846.2033     55.05505     3393.456        53     1.552     1.122  61.36   0
       243    436.5681    666.8864 307.7412138  +6.4146899     2909.452     4374.749       5104.1      78.2944     156.0303     312.2781      1.657     3.58     847.6829     55.05505     446.1616        19     1.315     0.820  64.48   0
       244    817.9268    666.4060 307.5828547  +6.4276338     1291.007     1728.957     2011.792     77.92186     155.7815     312.2471      1.405     4.00     848.6722     55.05505     182.6539        12     1.135     0.718  75.15   0
       245    369.2944    661.3295 307.7693380  +6.4147308     763.1671     900.8806     618.4031     78.17042     156.2788     312.3402      1.380     4.90     847.2269     55.05505      92.0025         9     1.019     0.666  85.67   0
       246    986.2280    655.4786 307.5133235  +6.4377550     6942.082     11024.34     11816.47     78.17042     156.1546     312.3402      1.741     3.65     845.6808     55.05505     897.2027        39     1.640     1.093  51.33   0
       247     30.6494    654.9818 307.9101804  +6.4059852     1075.485     1687.422     1912.735     77.79728     156.2788     312.1539      1.760     4.20     845.9349     55.05505       169.93        15     1.322     0.843  46.46   0
       248    579.7556    650.8242 307.6822890  +6.4261129     49870.55     73315.42     77194.93     77.79729     156.2167      312.216      1.554     3.28     848.0611     55.05505     7729.767        70     1.554     1.153  60.71   0
       249    944.4964    652.4511 307.5307563  +6.4376151     635.4775     901.8591     963.1645     78.17042     156.1546     312.5265      1.517     4.53     846.2577     55.05505     108.9388         7     0.979     0.743  34.65   0
       250    538.8434    651.2505 307.6992653  +6.4245686     798.1944     920.7103     1405.675     78.41818     156.2167     312.3713      1.379     4.74     847.7141     55.05505     104.7886        11     1.158     0.727  68.63   0
       251    187.2283    647.5123 307.8454106  +6.4143293     2841.675     4212.201     4303.461     78.41818     155.9681      312.216      1.607     3.49     845.5043     55.05505     393.6724        22     1.337     0.969  73.27   0
       252    991.0707    647.1870 307.5115893  +6.4413398     646.8942     861.9233     1097.323     77.79728     155.9681      312.216      1.308     5.15     845.2958     55.05505     107.4246         8     1.135     0.660  60.50   0
       253    510.3126    647.8883 307.7112268  +6.4250023     629.7381      788.695      763.602     78.04623     156.7126     312.4334      1.116     2.90     847.5168     55.05505     119.7775         5     0.896     0.349  44.70   0
       254     79.9820    641.6866 307.8901429  +6.4131325     1344.392     1980.459     1906.603     78.04623     155.9681      312.216      1.466     4.12     845.4462     55.05505     193.0548        14     1.274     0.840  72.23   0
       255    477.0508    634.6395 307.7254852  +6.4293593      63968.1     95251.09     100395.9     78.17041     156.2167     312.3092      1.577     3.27      847.042     55.05505      9736.03        79     1.599     1.180  61.65   0
       256     20.5717    636.0952 307.9150025  +6.4134439      1852.45     2746.993     3207.063     78.41818     155.9681     312.2781      1.561     3.78      845.613     55.05505     265.2648        16     1.227     0.828  54.51   0
       257    662.9648    632.0687 307.6483613  +6.4366380     937.0667     1202.751     800.4627     78.17042     156.2788     312.4334      1.371     2.37     847.5933     55.05505     182.2483         8     0.785     0.655  43.09   0
       258    151.3474    629.6938 307.8609113  +6.4204813     1608.074     2308.494     1837.098     78.17042     156.1546     312.5886      1.532     3.70     845.0526     55.05505     221.3383        15     1.312     0.699  73.50   0
       259    430.6508    627.8379 307.7449833  +6.4306140     996.5316     1357.457     1422.803     78.04623     156.1546     312.2781      1.489     3.96     846.5919     55.05505     155.0501        10     1.121     0.655  61.21   0
       260    946.6589    627.2970 307.5306991  +6.4480730     700.7667     870.7186     428.2353     78.04623     156.2167     312.4644      1.315     3.47     845.8421     55.05505     117.6429         8     1.028     0.620  49.63   0
       261    623.0918    626.6270 307.6651033  +6.4375523     962.1199     1293.115     1429.517     78.41818     155.9681      312.216      1.583     5.83        847.4     55.05505     126.6742        11     1.303     0.734  72.40   0
       262    504.7989    625.9858 307.7142521  +6.4338609     571.3303     698.3395     1140.178     77.92186     155.9059     312.1228      1.407     3.80     846.9441     55.05505     104.6781         5     0.918     0.635  59.59   0
       263    322.4536    624.0077 307.7900455  +6.4285701     2091.516     3544.221       4023.3     77.79728     156.0303     312.0606      1.792     3.97     845.1508     55.05505     322.6324        21     1.435     0.960  69.73   0
       264     23.6002    626.2027 307.9140786  +6.4176300     480.9201     782.8435     1530.442     77.67251     155.7815     312.0917      1.482     3.39     845.4078     55.05505      81.5777         5     1.236     0.269  34.59   0
       265     30.3936    623.6548 307.9113435  +6.4189104     512.9639     642.5431     1147.759     77.79729     155.9681     312.0606      1.314     4.41     845.3257     55.05505     85.15643         5     1.039     0.532  46.99   0
       266    474.3318    622.3892 307.7270258  +6.4343262     786.0153     1209.122     1846.395     77.79729     156.0303     312.1849      1.497     3.91     846.6924     55.05505     153.7512         6     0.720     0.679  67.33   0
       267    749.0970    618.1414 307.6130565  +6.4452649     5426.417     7967.326     7994.049     78.04623     156.2167     312.4955      1.503     3.35     847.6069     55.05505     889.2098        29     1.393     0.959  58.85   0
       268    802.6276    613.3605 307.5909844  +6.4490253     14285.34     20914.66     21967.68     77.92186     156.0303      312.216      1.579     3.17     847.4353     55.05505     2029.972        43     1.510     1.032  60.94   0
       269    544.9534    613.5196 307.6979944  +6.4403514     1201.663     1671.255      2336.55      78.2944     156.2167     312.3402      1.594     3.71     846.8274     55.05505     192.5831        11     1.132     0.623  70.10   0
       270   1019.8233    614.1528 307.5007515  +6.4559367     965.3021     1193.354     1013.372     77.92186     156.2167     287.7731      1.230     2.94     842.9283     55.05505     145.6175         8     0.774     0.693  46.21  16
       271    626.4755    611.4180 307.6642081  +6.4439450     3044.109     4604.972     4665.648     77.79729     155.9681     312.2471      1.613     3.34     846.7815     55.05505     454.0984        21     1.384     0.861  65.79   0
       272     47.6108    612.3026 307.9045767  +6.4241761     667.6807     1049.479     1327.555     78.04623     155.8437     312.1539      1.709     3.91     844.9225     55.05505     101.2214         7     0.872     0.834 -26.47   0
       273    943.6512    607.6812 307.5326041  +6.4560720     1205.863     1574.359     1736.927      78.2944     156.2167     312.3402      1.357     3.09     845.6637     55.05505      180.007        12     1.010     0.758  82.80   0
       274    385.1163    604.8737 307.7646656  +6.4385702     818.7406     1325.359     1263.576     78.41818     156.5268     312.3713      1.627     4.78     845.1685     55.05505     136.7838        11     1.372     0.631  49.08   0
       275    238.7779    605.0115 307.8254344  +6.4336068     1226.869     2112.719     2614.524     77.92186     155.9681     312.2471      1.908     4.67     844.2292     55.05505     190.9259        14     1.370     0.795  64.94   0
       276    369.0269    604.7179 307.7713527  +6.4380954     510.0179     711.3354     407.4212     78.17042     156.0303     312.2781      1.347     4.56     844.8185     55.05505     78.36841         6     1.091     0.542 -81.10   0
       277    202.3410    605.4807 307.8405504  +6.4321903     593.2848     793.1085     236.6909     78.41818     156.2167     312.3402      1.530     3.54     844.2197     55.05505     99.69104         5     1.069     0.594  32.93   0
       278    878.7248    596.6024 307.5599404  +6.4584825     2862.079     4202.156     4199.637     77.79729     155.7192      312.216      1.575     3.26     846.2137     55.05505     439.0421        21     1.275     0.884  60.55   0
       279    173.9670    596.2059 307.8526462  +6.4350670     772.6555     1366.437     1980.537     77.67251     156.0303     312.1539      1.736     4.31     844.1495     55.05505     109.8077         7     0.856     0.679  57.15   0
       280    808.3207    590.0178 307.5894015  +6.4588532     2494.193     3845.332     4763.856     77.92186     155.9059     312.2781      1.785     3.33     846.7669     55.05505     375.4964        21     1.285     0.951  66.88   0
       281    818.0300    585.2652 307.5855281  +6.4611394     159618.4     236485.9     250131.5     78.04623     156.2167     312.2781      1.567     3.34     846.5295     55.05505     24236.39       134     1.700     1.254  62.55   0
       282    265.4203    589.0565 307.8149071  +6.4410880     7554.453     11424.77     11773.04     77.92186     156.2167     312.1539      1.595     3.57     844.0446     55.05505     1048.264        34     1.464     1.020  61.57   0
       283    750.8035    590.5422 307.6132723  +6.4567172     636.5966     903.4601     1467.467     77.67251     156.0925     312.0917      1.433     2.89     846.7607     55.05505     117.4421         5     0.732     0.434  24.58   0
       284    837.4400    594.1454 307.5771693  +6.4581203     2625.631     4000.983     4698.182     78.17042     156.2788     312.3402      1.641     3.46     846.5594     55.05505      361.025        20     1.356     0.852  52.41   0
       285    199.6256    583.6426 307.8424136  +6.4411154     58229.86     89223.25     95228.45     77.92186     156.2167     312.1539      1.671     3.53      843.855     55.05505     7824.093        87     1.667     1.235  64.13   0
       286    747.8197    585.5245 307.6146796  +6.4586893     642.9126     1105.903     1128.809     77.92186     155.9681     312.2781      1.765     4.90     846.5853     55.05505     106.5606         8     1.040     0.653  59.55   0
       287    123.5422    579.8692 307.8741375  +6.4401184      6254.65     9563.732     9346.103     78.41818     156.1546     312.3092      1.632     3.48     844.0063     55.05505     836.5364        34     1.469     1.056  55.40   0
       288    989.0052    576.8896 307.5147965  +6.4702963     1335.627     1960.323     2068.397     77.79729     155.9059     312.0917      1.455     3.33     843.3082     55.05505     229.0314        14     1.190     0.736  56.69   0
       289   1009.8981    576.0699 307.5061462  +6.4713304     671.1508     1064.015     848.3904     78.17042     156.4028     312.3402      1.546     3.71     842.6993     55.05505     114.1587         5     0.660     0.601  84.42   0
       290    237.9537    575.0684 307.8267849  +6.4459418     817.4516     1325.236      1412.09      78.2944     156.1546     312.3092      1.832     4.58     843.6399     55.05505      148.144         8     1.294     0.462  53.20   0
       291    854.5389    572.4727 307.5707930  +6.4676390     4649.902     6514.353      6246.53     78.41818     156.2167     312.3713      1.505     3.32     845.8404     55.05505     675.2565        24     1.372     0.867  67.16   0
       292    373.0295    570.7586 307.7708324  +6.4522506     16887.89     25752.58     27370.52     77.92186     156.0925      312.216      1.589     3.54     844.1623     55.05505     2483.669        43     1.531     1.063  59.77   0
       293    463.5283    570.5945 307.7332526  +6.4553495     643.8367     817.2849     1119.943     77.92186     155.7815     312.2471      1.750     5.65       845.05     55.05505     96.66437         9     1.350     0.666 -86.91   0
       294    174.7817    569.6266 307.8532033  +6.4460682     1817.256      3030.74     4101.625     77.92186     156.0303     312.2471      1.882     3.89     843.7399     55.05505     275.7175        16     1.317     0.796  60.44   0
       295    808.5091    565.7999 307.5901341  +6.4688587     5869.964     8728.742     9088.211     77.54753     155.7192     312.1228      1.587     3.54     846.1112     55.05505     848.2809        30     1.440     0.937  57.74   0
       296    539.3668    565.5694 307.7019243  +6.4599623     6572.659     9939.349     11000.26     77.79729     155.9681     312.0606      1.655     3.59     844.8808     55.05505     903.6355        31     1.454     0.974  65.75   0
       297    250.1805    567.2111 307.8219716  +6.4495961     1062.225     1693.078     1832.656     77.92186     155.9059     312.2471      1.653     4.68     843.5443     55.05505     145.9312        11     1.234     0.648  62.41   0
       298    180.1725    566.5394 307.8510686  +6.4475237     700.2501     1566.698     3174.347     77.92186     156.2788     312.2471      2.851     6.35     843.6656     55.05505     103.1338         9     1.510     0.750  60.36   0
       299    112.1986    566.9385 307.8792843  +6.4450760     904.6396     1253.343     1210.097     77.67251     156.0303     312.0606      1.465     4.53     843.8612     55.05505     129.7407        11     1.049     0.860  78.32   0
       300    397.6892    562.3128 307.7608749  +6.4565639      1376.67     2061.805     1784.384     78.04623     156.6507     312.4644      1.563     3.86     844.3671     55.05505     214.1189        15     1.351     0.729  55.11   0
       301    186.4528    558.8711 307.8487187  +6.4509006     6667.662     10629.78     11966.34     78.17042     156.1546     312.2781      1.723     3.63     843.5007     55.05505     922.9061        39     1.608     1.089  63.45   0
       302    281.6315    555.2604 307.8093121  +6.4555852     85749.52     131792.3     139592.1     78.04623     156.2788     312.3092      1.657     3.44     843.4743     55.05505     11413.85        93     1.663     1.241  62.10   0
       303    584.0549    558.5988 307.6835982  +6.4643350     2277.838     4029.606     4514.527     77.67251     155.9681     311.9674      1.902     4.24     844.5788     55.05505     295.6592        23     1.262     1.206  68.07   0
       304    867.5339    558.2616 307.5658712  +6.4739399      642.137     913.0141     1062.625      78.2944     156.1546     312.3402      1.474     4.11     845.3682     55.05505     94.55286         7     0.991     0.487  82.91   0
       305    825.2309    558.3339 307.5834389  +6.4724992     1482.693     2041.997     1945.226     78.04623     156.2167     312.2781      1.475     2.92      845.761     55.05505     240.0483        12     1.015     0.704  59.52   0
       306     58.0190    557.3602 307.9021077  +6.4472098     5065.609     7921.193     8512.321     77.92186     156.0303     312.0606      1.663     3.60     843.9642     55.05505     694.5425        31     1.505     1.024  61.08   0
       307    571.3480    552.9774 307.6890644  +6.4662311     983.2416     1358.385     1969.064     77.79728     156.2167      312.216      1.561     4.30     844.3237     55.05505     161.0995        10     1.127     0.776  62.64   0
       308    804.7797    547.6954 307.5922893  +6.4762095      16344.7     23801.86     25088.62     78.17042     156.0303     312.1539      1.542     3.33     845.6586     55.05505     2469.997        43     1.513     1.013  61.84   0
       309    265.3896    550.3627 307.8162224  +6.4570626     1424.733     2117.421     2263.535     77.79729     156.0303     312.0295      1.584     3.85     843.2911     55.05505     190.3945        15     1.189     0.830  62.92   0
       310    980.9254    548.8199 307.5190906  +6.4816169     1542.806      2376.28     2732.189     77.92186     156.0925     312.2781      1.578     3.74     842.9412     55.05505     250.7571        14     1.243     0.743  50.27   0
       311    508.3947    546.0977 307.7154416  +6.4669655     40103.57     65204.44     70115.88     78.04623     155.9059     312.0606      1.763     3.63     844.1464     55.05505     5455.927        80     1.728     1.334  50.06   0
       312    220.9566    543.0393 307.8349224  +6.4585953     1717.004     2794.002     2673.479     78.04623     156.2167      312.216      1.673     7.39     842.8969     55.05505     243.7982        21     2.032     0.753  55.48   0
       313    658.8145    544.6651 307.6530157  +6.4725870     1022.813     1545.698     1691.372     77.79729     156.0925     312.2781      1.640     2.65     844.8687     55.05505     185.9559         9     0.904     0.695  53.19   0
       314     56.4718    543.0033 307.9032345  +6.4530853     1269.724     2205.582     2233.434     77.79728     155.8437     312.1849      1.753     5.26     843.7711     55.05505     187.4915        19     1.583     1.013  65.15   0
       315    730.7316    540.4902 307.6232858  +6.4767129     1235.149      2090.79     1969.922     78.41818     156.3408     312.3092      1.820     5.12     844.9933     55.05505     189.1844        17     1.601     0.791  54.47   0
       316    668.2792    541.1990 307.6492009  +6.4743343     2893.491     4272.979     4312.822     77.54753     155.6569     312.1228      1.549     3.60     844.8581     55.05505     444.7528        20     1.316     0.866  56.83   0
       317    678.4048    540.9387 307.6450041  +6.4747800     1399.124     2006.764     1986.057     77.79728     156.0925     312.1228      1.532     3.65     844.9477     55.05505     192.3783        16     1.115     0.973 -76.88   0
       318    106.7488    542.4476 307.8823733  +6.4550044     585.6918      813.785      819.882     78.41818     156.0925     312.3402      1.380     3.80     843.5512     55.05505      132.374         5     0.876     0.544  54.51   0
       319    405.9183    536.7456 307.7583167  +6.4673956     1993.617     2658.833     2461.404      78.2944     156.2167     312.4023      1.445     3.47     843.6359     55.05505     278.2676        18     1.256     0.840  57.16   0
       320     87.2940    537.8203 307.8906090  +6.4562611     691.0826     1254.469     1454.356     78.17042     156.0303     312.1849      1.915     4.90     843.5623     55.05505     87.03949         7     1.012     0.672  75.87   0
       321    337.6742    535.1373 307.7867140  +6.4657728      3972.85     6104.104     5977.765     78.54177     156.2167     312.3402      1.653     3.76     842.6008     55.05505     502.9577        28     1.519     0.966  54.49   0
       322    152.7255    533.6173 307.8635767  +6.4601946     25627.37     38921.72     41062.08     77.79729     155.9681     312.2471      1.634     3.45     843.2852     55.05505     3572.959        56     1.543     1.143  59.69   0
       323    517.4947    534.4382 307.7120536  +6.4720840     2038.258      3346.29     3720.027     78.41818     156.0925     312.4644      1.793     3.67     843.7545     55.05505     274.9327        19     1.338     0.889  49.14   0
       324    880.6785    533.5881 307.5612374  +6.4845656     1589.451     2341.269     2478.858     77.92186     155.9059     312.1849      1.571     3.96     844.4142     55.05505      216.913        16     1.244     0.837  62.62   0
       325    117.8873    531.9061 307.8781029  +6.4597309     2777.579     4422.847     4380.154      78.2944     156.6507     312.4023      1.644     3.38     843.3463     55.05505     411.7483        25     1.368     1.068  61.47   0
       326    354.7730    530.1295 307.7797810  +6.4684135     1067.596     1541.772      1936.93     77.92186     156.0925     312.2781      1.582     4.77     842.3325     55.05505     154.6912        11     1.100     0.778  58.83   0
       327    978.3307    528.2696 307.5208552  +6.4900156      5111.08     7665.477     7393.449      78.2944     156.3408     312.3092      1.580     3.56     842.6245     55.05505     727.8416        31     1.518     0.966  54.61   0
       328    551.4148    520.7155 307.6984262  +6.4788847     1507.622     2334.941     2350.898     77.92186     155.9681     312.2471      1.687     3.72     843.3047     55.05505     237.2344        15     1.230     0.774  56.07   0
       329     16.9776    518.0132 307.9204796  +6.4620749     24795.44     38228.79     41174.77     78.04623     156.0303     312.2471      1.620     3.51     843.9274     55.05505     3606.037        59     1.623     1.140  61.55   0
       330    449.7236    514.7764 307.7408616  +6.4779334     42175.83     64099.28     67454.65     77.92186     156.0925     312.3092      1.633     3.42      843.028     55.05505     6195.092        63     1.572     1.165  60.24   0
       331    657.7778    514.4504 307.6544595  +6.4850275     12228.92     17913.04     18805.78     77.79729     156.2788      312.216      1.563     3.39     843.6199     55.05505     1733.906        37     1.441     1.020  58.09   0
       332    297.7188    515.3247 307.8039750  +6.4726132      1043.51     1678.855     1973.722     78.54177     156.4649     312.4023      1.695     4.73     840.8817     55.05505     136.2639        12     1.115     0.970 -68.20   0
       333    214.9205    512.3643 307.8384625  +6.4710575     18947.26     30096.15     32389.58     78.17042     156.2788     312.3402      1.710     3.59     841.2179     55.05505     2610.863        56     1.699     1.151  56.60   0
       334      1.5031    512.8292 307.9270811  +6.4636947     47985.96     63570.14     68363.04     70.33269     126.4302     237.7562      1.323     3.38     844.0859     55.05505     12742.71        59     1.756     0.892 -89.07  24
       335    991.8425    512.6666 307.5157646  +6.4969079     1075.878     1577.332     1324.186      78.2944     156.1546     312.4023      1.538     4.39     842.2509     55.05505     142.9463        12     1.187     0.837  72.35   0
       336    180.5095    513.3072 307.8527222  +6.4695130     1518.349     2198.096     1639.017      78.2944     156.7126     312.3713      1.531     3.78     842.3016     55.05505     223.2834        17     1.244     0.839  60.35   0
       337    579.5864    511.1691 307.6870459  +6.4837685     2751.152     4092.896     4006.315     77.92186     155.9681     312.2781      1.550     3.50      843.058     55.05505      387.386        20     1.349     0.820  64.56   0
       338    920.0438    512.1492 307.5456041  +6.4947296        734.8     927.8017     1040.612     78.41818     156.1546     312.3713      1.496     3.70     842.9521     55.05505     127.0994         5     0.838     0.469  70.10   0
       339    831.8770    512.3389 307.5822183  +6.4917117     865.5145     1122.698     879.6797     78.54177     156.2788     312.3092      1.417     3.87     844.3104     55.05505     130.8818         7     0.844     0.624  30.99   0
       340    953.3988    508.2990 307.5318785  +6.4974308     4795.913     7480.844     7439.375     77.79729     155.8437     312.0606      1.671     3.65     842.4828     55.05505     664.6494        31     1.493     1.001  60.48   0
       341    626.5602    506.9486 307.6676772  +6.4870815     6496.459     9867.237     10581.52     78.17041     156.2167     312.3402      1.600     3.62      843.119     55.05505      946.103        33     1.544     0.960  64.07   0
       342    114.1107    507.3696 307.8804986  +6.4697343     1059.747     1589.762     1685.298     78.41818     156.0303     312.2781      1.598     5.34     842.9216     55.05505     150.0059        10     1.234     0.703  55.92   0
       343    525.6591    505.5951 307.7096312  +6.4842659     553.7856     1169.081     1038.342     77.67251     156.0925     312.1228      2.241     6.33     842.9117     55.05505     76.21533         7     1.417     0.793  18.49   0
       344    976.0016    500.5736 307.5227485  +6.5013734     3429.136     5237.848     5443.684     77.92186     155.9059     312.1228      1.581     3.69     842.1876     55.05505     513.4766        25     1.431     0.942  55.31   0
       345    538.7698    498.0060 307.7044406  +6.4878380     7381.028     11241.57     11656.92     77.79729     156.0303     312.1228      1.582     3.36     842.6547     55.05505     1107.781        32     1.387     1.027  59.93   0
       346    384.6921    498.1416 307.7684305  +6.4826232     2686.237     4020.973     4181.316     78.17042     156.1546     312.4644      1.545     3.46     841.0272     55.05505     368.1228        22     1.379     0.858  53.52   0
       347    754.4131    498.4681 307.6148578  +6.4948539     603.8531     793.4362     412.0313     77.79729     156.0925     312.2471      1.462     5.29     844.0865     55.05505     84.87189         7     1.186     0.666  55.84   0
       348    414.4336    499.3564 307.7560370  +6.4831181     740.6348      890.416     817.8655     77.92186     156.2167      312.216      1.487     4.73     841.9042     55.05505     107.3253         7     0.885     0.719  36.18   0
       349    107.3403    497.8033 307.8836330  +6.4734565     518.6766     728.4158     476.8075     77.67251     156.0303     312.0606      1.421     6.33     842.7817     55.05505     89.48425         7     1.308     0.860   2.28   0
       350    895.2510    493.8568 307.5565139  +6.5014560     3308.112     4679.864      5355.53      78.2944     156.2167     312.3402      1.478     3.49     842.8554     55.05505     501.5005        22     1.362     0.827  59.18   0
       351    547.9753    494.7947 307.7007250  +6.4894718      680.976     1196.054      932.141     77.79729     155.9681     312.1849      1.540     3.98     842.5637     55.05505     109.4296         6     1.012     0.448  39.78   0
       352    243.5960    493.2618 307.8271962  +6.4799067     656.1488     974.2427     885.0653     77.67251     155.9681     312.0606      1.213     3.97     839.4951     55.05505     109.9474         6     0.864     0.522  49.28   0
       353    902.6058    488.2971 307.5536451  +6.5039967     2130.672     3322.065     3771.188     78.04623     155.9059     312.1539      1.633     3.51     842.5294     55.05505     323.8007        18     1.387     0.756  48.83   0
       354    942.0984    487.6389 307.5372632  +6.5055846     1226.293     1967.037      1870.73      78.2944     156.0925     312.5576      1.613     4.17     842.0538     55.05505     178.2365        13     1.233     0.753  68.51   0
       355    121.9040    488.0293 307.8779140  +6.4779811     617.9571     960.4287     993.5641     78.41818     155.9681     312.3402      1.560     3.72     842.5719     55.05505     109.0893         5     1.177     0.338  64.44   0
       356    726.5781    484.1391 307.6268994  +6.4998408     2925.651     4232.797     4319.771     77.92186     156.1546     312.2471      1.490     3.57     843.5327     55.05505     431.5484        20     1.355     0.813  64.03   0
       357    280.3543    486.1591 307.8121686  +6.4840724     502.3469     641.5417     159.6922     78.17042     156.2167     312.1849      1.322     3.04     838.5228     55.05505       95.396         5     0.748     0.435  70.89   0
       358     88.3589    483.4213 307.8920013  +6.4787564     1911.897     2815.979     2737.383     77.92186     156.0303     312.1539      1.593     3.49     842.6965     55.05505     273.9401        22     1.278     1.039  65.66   0
       359    437.9622    482.8796 307.7468185  +6.4907090     929.8649      1386.87      1214.96     78.17042     156.2788     312.3402      1.504     3.91     841.5754     55.05505     169.4497        10     1.065     0.834  59.32   0
       360    397.4269    482.4106 307.7636703  +6.4895448     3589.105     5471.664     5675.917     77.92186     156.0303      312.216      1.602     3.62     840.5004     55.05505     510.2781        23     1.430     0.851  57.12   0
       361    625.2110    478.9758 307.6691761  +6.4985859     9722.113     14820.76     15729.77     77.92186     156.0303     312.2471      1.603     3.41     842.2427     55.05505     1557.658        38     1.496     1.043  56.49   0
       362    787.9446    475.5304 307.6016986  +6.5054437     16489.78     24114.84     25386.73      78.2944     156.0925     312.2781      1.541     3.29     843.4665     55.05505     2630.179        48     1.503     1.076  64.61   2
       363    791.9958    470.8955 307.6001711  +6.5074926     1323.082     2158.375     2253.023     78.04623     155.9059     312.1228      1.749     4.92     843.2695     55.05505     212.9203        13     1.345     0.643  66.63   3
       364    307.5857    475.9380 307.8012025  +6.4892058     2676.454     4058.341     4125.118     77.79728     156.0925     312.1539      1.615     3.87     838.1787     55.05505     384.9818        22     1.389     0.923  71.04   0
       365    431.3922    475.1868 307.7498059  +6.4936651     608.6907     978.1643     820.9941     77.92186     156.0303      312.216      1.631     3.02     840.9822     55.05505     103.1567         5     0.730     0.452  71.13   0
       366    390.8945    472.4734 307.7667176  +6.4934288     1570.114     2195.359      2801.42     78.17041     156.3408     312.3402      1.485     3.61     839.7662     55.05505     241.7252        12     1.198     0.641  70.38   0
       367    973.3617    470.8008 307.5248404  +6.5135784     1768.833     2741.295     2823.074     77.42236     156.0303     312.0917      1.576     4.35     841.3996     55.05505     292.7886        16     1.415     0.704  65.01   0
       368    917.4246    473.2180 307.5479943  +6.5107166      517.124     631.3936       393.65     78.04623     156.0925     312.2781      1.200     3.41     841.8467     55.05505     74.14594         5     0.741     0.454  70.45   0
       369    816.9196    472.5305 307.5897639  +6.5076492     1327.555     1838.387     2004.968     78.54177     156.5268     312.3402      1.457     3.81     843.1784     55.05505      177.758        11     1.061     0.704  85.27   0
       370    721.7131    469.9999 307.6293941  +6.5055161     590.7824     850.2821     263.0396     77.54753     155.7192     312.0606      1.537     4.12      842.915     55.05505     107.0991         6     0.873     0.618 -51.03   0
       371    379.7975    468.6046 307.7714567  +6.4946543      572.712     950.5934     1544.319     77.67251     155.7815     312.1539      1.611     4.14     839.2731     55.05505     118.2778         5     1.095     0.447  58.29   0
       372    125.2784    467.3783 307.8772088  +6.4866206     4275.704     6693.919     6886.504     77.92186     155.9681     312.3402      1.648     3.60     841.8644     55.05505     554.8268        29     1.473     0.981  61.88   0
       373    763.5236    466.4811 307.6121454  +6.5083649     2378.756     3566.984     3235.182     78.54177     156.4649     312.4644      1.573     3.86     843.0352     55.05505     340.1799        18     1.356     0.779  62.30   0
       374    283.3169    464.4462 307.8116690  +6.4931365     1608.523      2476.14     2741.318      78.2944     156.2167     312.3402      1.603     3.69     837.9086     55.05505     269.9786        18     1.365     0.804  66.30   0
       375    361.3743    462.2275 307.7793232  +6.4966698     3095.422     4565.773     5341.345     77.79729     156.0303      312.216      1.652     3.63     838.3867     55.05505     434.8239        23     1.387     0.907  58.48   0
       376    717.3071    460.0666 307.6315571  +6.5094703     1676.284     2471.452     2520.913     78.17042     156.4028     312.3402      1.544     3.58     842.4494     55.05505      254.678        18     1.239     0.914  63.85   0
       377    249.2088    458.4126 307.8260386  +6.4944833     779.7581     1480.718     1771.568     78.04623     156.0303     312.2781      1.893     3.94     838.2503     55.05505     105.8388         8     1.074     0.597  81.48   0
       378    558.8440    452.4053 307.6976338  +6.5073372     982.5421     1242.015     1323.723     77.67251     155.9059     312.0295      1.470     4.94     841.0978     55.05505      144.512        10     1.218     0.609  69.30   0
       379    481.0136    451.2635 307.7299996  +6.5052041     1209.305     1790.109     2268.738     77.79729     156.0303     312.1849      1.494     4.89     839.9012     55.05505     196.3784        14     1.402     0.711  53.10   0
       380    991.1474    458.9511 307.5178488  +6.5190634     648.3055     917.0312     967.6767     78.41818     156.0925     312.3402      1.302     3.17     840.6948     55.05505     117.2268         6     0.889     0.466  55.88   0
       381    843.3173    450.1598 307.5795480  +6.5177663     1618.568     2399.384     2197.604      78.2944     156.2788     312.2781      1.503     3.55     842.0419     55.05505      231.681        16     1.209     0.840  73.34   0
       382    829.1196    449.1086 307.5854806  +6.5177267     1969.925     2858.348     2734.809     78.04623     156.4649     312.3713      1.417     3.47     842.1431     55.05505     330.3057        14     1.219     0.670  62.51   0
       383    726.3967    447.2388 307.6282115  +6.5150703     15015.18     22254.01     23316.38     77.42236     156.0303     312.0917      1.563     3.37     842.0479     55.05505     2199.022        40     1.455     1.038  61.98   0
       384    647.4619    443.1886 307.6611344  +6.5141056     2749.479     3962.655     4670.988     77.79729     156.0303     312.1228      1.514     3.32     841.2191     55.05505     402.6904        22     1.322     0.902  55.13   0
       385    720.0674    441.5512 307.6310311  +6.5172072     727.6424     1217.232     1354.395     78.17041     156.1546     312.3713      1.872     5.18     841.7943     55.05505     102.7435         8     0.977     0.776  39.74   0
       386    642.1954    441.8394 307.6633672  +6.5144866     617.2841     733.0081     1143.211     77.42236     155.9681     312.0295      1.227     3.38     841.1491     55.05505     107.0418         5     0.975     0.339  45.33   0
       387    619.8804    438.4024 307.6727514  +6.5151597     12710.49     25768.34     30258.75     77.67251     155.7815     312.0917      2.248     6.28       840.83     55.05505     2297.127        64     2.426     1.134  39.13   0
       388    951.6738    437.1249 307.5349751  +6.5267603     3830.553     5691.579     6151.944     78.54177     156.4649     312.4334      1.594     3.51     840.2476     55.05505     547.5193        24     1.369     0.880  56.39   0
       389    390.7969    433.1497 307.7680805  +6.5096613     28640.75     43515.88      45950.9     77.67251     155.9681     311.9363      1.596     3.37     837.7016     55.05505     4310.203        58     1.582     1.118  60.57   0
       390    427.8837    434.1852 307.7526414  +6.5104762     569.8983     507.8547     102.5607     77.92186     155.9059      312.216      1.161     4.45      838.329     55.05505     93.84485         7     1.010     0.557  78.71   0
       391    907.1823    432.7718 307.5536018  +6.5270750     1396.057     2445.976     3120.978     77.92186     156.0303     312.2471      2.251     8.20     840.7737     55.05505     204.5095        19     1.999     0.939  54.67   2
       392    136.7026    432.5672 307.8736376  +6.5013768     2396.337     3620.338     4019.032      78.2944     156.0925     312.4644      1.627     3.71     840.1971     55.05505      339.588        19     1.286     0.892  59.86   0
       393    920.5308    427.6223 307.5482293  +6.5296461     5100.062     7467.409     7349.371     77.92186     156.1546     312.3092      1.541     3.32     840.4821     55.05505     725.9606        28     1.397     0.931  59.40   0
       394    602.1007    429.0451 307.6804505  +6.5184288     529.4009     599.5609     350.4672      78.2944     156.1546     312.5576      1.346     4.36     840.3756     55.05505     83.33832         6     1.137     0.477  60.88   0
       395     70.0286    427.9460 307.9014856  +6.5010441     1435.459     2278.067     2295.597     78.04623     156.2788     312.2471      1.635     4.18     841.4161     55.05505     225.8873        14     1.263     0.788  73.33   0
       396    248.3253    423.6487 307.8275762  +6.5088067     13742.41     20918.61     22077.75     78.17042     156.2788     312.3713      1.646     3.55     837.7542     55.05505      1831.11        39     1.500     1.059  64.07   0
       397    976.3005    424.8363 307.5251564  +6.5326546     626.9881       976.11     836.7745      78.2944     156.0925     312.5265      1.367     4.15     839.2711     55.05505     96.48877         5     1.107     0.443 -83.40   0
       398    743.1473    417.5598 307.6222484  +6.5278836     790.3446     1198.367     1265.604     78.17042     156.2167     312.3402      1.544     4.85     840.9016     55.05505     119.9156         9     1.199     0.629  67.87   0
       399     83.6801    417.3706 307.8961724  +6.5058692     683.5638     1045.448     857.3528     78.17042     156.2167     312.3092      1.427     4.54     840.8286     55.05505     106.0933         7     1.046     0.560  64.66   0
       400   1020.4686    416.4954 307.5070882  +6.5375693     589.8743     862.6143     530.0838     78.17042     156.2788     280.5021      1.510     5.06     837.7428     55.05505     106.9789         7     1.026     0.707  47.76  16
       401    711.3850    416.8611 307.6354652  +6.5271114     683.8347     874.8571     431.5132     77.79729     156.1546     312.1228      1.222     2.37     840.8251     55.05505     139.7032         6     0.778     0.485  85.76   0
       402    971.2984    415.4037 307.5275496  +6.5363826     927.7357       1400.1     1555.808     78.04623     155.9059     312.0295      1.664     5.83     838.9609     55.05505     127.9836        11     1.149     0.832  39.43   0
       403    148.5868    412.3106 307.8693845  +6.5101392     5062.233     7906.141     8108.133     78.04623     155.9681      312.216      1.672     3.53     839.0773     55.05505     677.5452        32     1.480     1.066  63.19   0
       404    361.3165    413.4045 307.7809895  +6.5168256     1451.774     2340.662     2593.741     77.79729     155.8437     312.0606      1.879     4.04      836.289     55.05505     222.1258        15     1.257     0.869  60.87   0
       405    194.2157    413.6926 307.8503860  +6.5111010     805.0309     1213.405     1117.687     78.04623     156.0303      312.216      1.665     4.61      838.226     55.05505     118.2687         9     1.002     0.724  56.77   0
       406    388.3460    412.3664 307.7697974  +6.5181601     550.5687     645.1177     709.0147     78.17042     156.2167     312.2781      1.322     4.20     836.6212     55.05505     85.66345         7     1.137     0.442  60.71   0
       407    446.0044    411.2306 307.7458863  +6.5205606     669.4796     1087.826     1014.046     77.79729     156.0925     312.1228      1.743     4.12     836.9596     55.05505     111.2789         7     1.121     0.432  57.37   0
       408    253.2560    411.1819 307.8259481  +6.5141193     1302.149     1948.109     2154.339     77.79729     156.1546     312.0917      1.663     4.03     837.4423     55.05505     205.6024        16     1.305     0.825  58.32   0
       409    170.5313    408.1519 307.8604100  +6.5125933     2429.963     3996.142     4355.308      78.2944     156.1546     312.3402      1.799     4.29     838.5649     55.05505     271.8448        27     1.584     0.985  74.09   0
       410    834.9219    409.0148 307.5844128  +6.5344745     802.4238     933.3706     804.1105     77.92186     155.9681     312.1849      1.340     3.21     840.6207     55.05505     139.7139         8     0.955     0.657  -2.50   0
       411    566.2033    407.2915 307.6960915  +6.5262099     903.1755     1450.578     1256.502     77.92186     155.9059     312.0917      1.689     4.57     839.2139     55.05505     162.9992        11     1.335     0.784  66.93   0
       412    982.7703    402.2279 307.5232248  +6.5422048     990.6548     1753.265     2147.934     77.79729     155.9681     312.1228      2.298     6.99     838.1702     55.05505     129.4625        16     1.364     1.003 -67.02   0
       413    394.0109    402.7359 307.7677683  +6.5223261     2136.243     3318.985     3672.836     77.79729     156.0303     312.2471      1.695     3.44     836.3433     55.05505     336.2087        20     1.285     0.896  63.41   0
       414     13.4281    403.9212 307.9258046  +6.5090598     748.5743     899.5315     1044.127     78.17041     156.1546     312.3402      1.453     3.93      841.955     55.05505     97.61017         5     0.895     0.494  87.77   0
       415    327.7304    400.6537 307.7953689  +6.5209641     606.9368     957.8562     1092.041     78.17042     156.1546     312.2471      1.409     4.05     836.2324     55.05505     92.29169         6     0.904     0.517 -46.38   0
       416    619.3383    397.8798 307.6743363  +6.5318727     490.5392      816.567     779.6001     78.41818     156.2788     312.3402      1.779     4.53     839.0328     55.05505     99.63806         6     1.140     0.581  65.99   0
       417    601.6185    399.0519 307.6816574  +6.5307963     511.8869     943.8119     592.4235     77.79728     156.2788     312.0917      1.762     4.29     838.9427     55.05505     109.2051         6     0.823     0.639  45.91   0
       418    447.9912    396.4761 307.7455570  +6.5267189     7322.675     11040.71     11460.92     77.92186     155.7192     312.1539      1.591     3.37     836.2369     55.05505     1041.297        35     1.456     1.029  60.94   0
       419     44.3328    397.4273 307.9131878  +6.5127802     3017.355     5045.764     5506.417     77.92186     156.0925     312.2471      1.820     3.79     841.1714     55.05505      407.772        31     1.476     1.299  74.06   0
       420    780.6727    395.5625 307.6073979  +6.5382186     2005.214     2928.649     2897.766     78.17042     156.2167     312.4023      1.517     3.26     840.3006     55.05505     291.5526        20     1.220     0.961  57.78   0
       421    788.5693    393.8490 307.6041752  +6.5391896     12949.56     18832.35      19521.4     77.92186     156.2788     312.2471      1.537     3.30     840.2557     55.05505     1991.468        38     1.488     0.971  62.69   0
       422    351.9302    392.3900 307.7855952  +6.5251873     1091.802     1561.144     1075.602     77.79728     156.0303     312.1849      1.429     3.18      835.671     55.05505     178.2623         9     0.911     0.656  60.07   0
       423    963.6160    385.3824 307.5317448  +6.5485221     691.0731     970.2667     1580.517     78.04623     155.9059     312.2781      1.565     3.89     838.1447     55.05505     124.7744         7     1.008     0.553  25.05   0
       424    197.0019    384.6736 307.8502066  +6.5231755     823.1634     1306.198     1449.104     77.79728     155.6569      312.216      1.671     4.72     837.7687     55.05505     114.6697         8     1.217     0.519  42.43   0
       425      2.3993    382.9112 307.9310946  +6.5173630      969.158     1829.808     2310.959     77.54753     138.6513     251.5528      2.141     6.36     841.8843     55.05505     112.9464        13     1.381     0.823 -60.89  24
       426    496.1924    380.0370 307.7260878  +6.5351201     3051.282     4600.233     4636.271     77.54753     156.0303     312.0917      1.575     3.64     835.9345     55.05505     451.7966        22     1.344     0.888  57.90   0
       427    468.2965    380.6439 307.7376548  +6.5339356     2235.604     3241.322     3374.934      78.2944     156.1546     312.4955      1.548     3.51     835.5142     55.05505     316.8326        18     1.262     0.859  67.92   0
       428    924.6832    379.6525 307.5481091  +6.5495907     890.6291     1358.096     1123.407      78.2944     156.2167     312.4334      1.517     3.64     839.1525     55.05505     149.1656         6     0.874     0.458  83.77   0
       429    853.9359    376.7749 307.5775940  +6.5484201     32921.15     50772.43     53669.48     77.92186     156.2167     312.2781      1.618     3.56     839.4857     55.05505      4761.83        61     1.632     1.142  68.63   0
       430    999.5601    376.5926 307.5171073  +6.5533486     457.2878     396.1581    -215.4771     77.67251     155.9681     312.0295      1.434     4.86     836.6764     55.05505     69.93188         5     1.142     0.585  58.42   0
       431     71.5705    373.0559 307.9026970  +6.5237580     567.4225     998.8419      835.642     78.04623     156.2788     312.2471      1.556     5.64     839.9756     55.05505     93.82483         7     1.308     0.686  57.04   0
       432    346.1638    372.4088 307.7886627  +6.5332437     901.7722     1306.826     1594.661     77.79729     155.9681     312.1228      1.383     3.83     835.2141     55.05505     136.1864         9     1.046     0.585  58.93   0
       433    625.6324    369.2369 307.6726829  +6.5439092     2581.265     4041.138     4094.071     77.92186     155.9681     312.0917      1.709     3.54     837.4553     55.05505     421.3295        25     1.427     0.961  53.82   0
       434     33.8378    369.5323 307.9184883  +6.5239441     1010.331     1539.002     1551.465     78.17042     156.2167     312.4644      1.655     3.58      840.878     55.05505     153.2493        10     1.085     0.620  51.31   0
       435    710.4007    362.7554 307.6376880  +6.5494179     80666.73     119070.8       125326     77.67251     155.9059     311.9363      1.576     3.38     838.3417     55.05505     11633.91        90     1.614     1.181  60.77   0
       436    868.5609    364.2805 307.5719370  +6.5540666     1364.616     1954.841     2065.081      78.2944     156.2788     312.2781      1.430     3.50     839.0427     55.05505     199.5192        13     1.207     0.658  48.78   0
       437     89.5648    362.2009 307.8955891  +6.5288446     1408.755     2056.524     1982.783     77.42236     156.0303     312.1539      1.488     3.54     839.2226     55.05505     211.7024        14     1.183     0.833  59.86   0
       438    572.9069    359.6098 307.6949077  +6.5461210     2624.951     4065.212     4328.719     77.92186     155.8437     312.1539      1.638     3.61     836.5148     55.05505     390.2085        22     1.405     0.869  59.18   0
       439    110.0254    358.3193 307.8872216  +6.5311348     5995.907     9442.152     9851.138     78.04623     156.0303     312.3402      1.661     3.46     838.8478     55.05505     886.0825        35     1.536     1.042  63.29   0
       440    952.1743    359.9749 307.5373474  +6.5586314     741.6213     962.1712     568.3277     77.79729     156.0303      312.216      1.412     4.34      837.756     55.05505     112.8433         8     0.958     0.630  26.47   0
       441    556.1323    355.6687 307.7020081  +6.5471870      7395.25     10987.97     11565.09      78.2944     156.3408     312.3402      1.575     3.34     836.1097     55.05505     1036.215        35     1.456     1.020  56.85   0
       442    419.0330    350.8350 307.7591200  +6.5445930     26017.02     39383.41      41498.1     77.92186     155.9681     312.0917      1.587     3.37     834.0684     55.05505     3936.588        58     1.571     1.134  63.44   0
       443    285.0746    353.1017 307.8146874  +6.5391664      2683.83     4033.534     4106.912     77.79729     156.3408     312.3092      1.579     3.43     834.9662     55.05505      353.743        23     1.280     0.973  60.18   0
       444    597.6485    350.3659 307.6849405  +6.5507650     609.3146     896.2832     778.8765     78.04623     156.2167     312.2781      1.389     4.05     836.2396     55.05505     116.0936         6     1.059     0.442  57.40   0
       445    526.7805    349.5906 307.7144047  +6.5487144     1464.081     2114.118     2383.161     77.92186     155.9681     312.1849      1.621     4.18     835.2201     55.05505     223.6117        15     1.312     0.826  50.43   0
       446    685.8054    349.6376 307.6483448  +6.5540124     472.5141     784.8118       651.07     77.42236     155.9681     312.0917      1.607     3.95     837.0025     55.05505     74.87549         6     1.247     0.358  62.17   0
       447    398.8473    348.6857 307.7675771  +6.5448041      1364.04     2157.412     2756.433      78.2944     156.1546     312.3402      1.748     4.27     834.1483     55.05505     198.8134        12     1.141     0.710  83.75   0
       448    498.4343    345.9246 307.7263027  +6.5492793     1224.807      1877.41     1878.935     78.17041     156.2167     312.3092      1.582     3.96     834.2747     55.05505     200.7932        14     1.325     0.729  68.21   0
       449    814.0836    343.5318 307.5952620  +6.5608163     1059.162     1515.992     1141.297     78.54177     156.4649     312.3713      1.509     5.39     838.4622     55.05505     148.2972        12     1.336     0.685  64.23   0
       450    508.1237    341.3205 307.7224324  +6.5515046     8712.777     12910.71     13581.19     78.54177     156.4649     312.4644      1.561     3.48     834.3117     55.05505     1350.142        36     1.519     1.011  66.34   0
       451    396.0998    343.2299 307.7689019  +6.5469646     811.8628     1245.344     1493.452      78.2944     155.9681     312.4023      1.626     4.41     833.9371     55.05505     119.9813         8     1.081     0.513  58.13   0
       452    777.1722    340.0654 307.6107114  +6.5610157     3174.338     4739.493      4944.68     77.92186     156.2167     312.2781      1.542     3.33     838.1974     55.05505     549.7789        22     1.318     0.900  50.44   0
       453    932.5119    339.3929 307.5462039  +6.5664743     896.5592     1403.378      1661.55     77.79729     155.9059     312.0917      1.610     5.10     837.5927     55.05505     150.7492        11     1.273     0.672  77.25   0
       454    724.9467    339.8556 307.6324133  +6.5593586     816.5154     1150.685     1171.305     78.41818     156.2167     312.3092      1.452     3.88     837.6425     55.05505     123.8832         9     0.946     0.709  69.61   0
       455    334.5664    337.8155 307.7946441  +6.5471375      1068.07     1663.396     1707.446     77.92186     155.9681      312.216      1.572     4.28     834.4365     55.05505     152.2822        10     1.132     0.673  45.05   0
       456    446.9903    331.7325 307.7481491  +6.5534164     603.1956     804.0168     1107.998     77.79728     156.0303     312.2471      1.640     4.83     833.1437     55.05505     96.13324         5     1.165     0.567  80.61   0
       457    270.1747    331.8901 307.8215908  +6.5474241     609.5059     899.3917     592.4991     78.41818     156.0303     312.1849      1.564     3.85     834.9374     55.05505     100.5692         5     0.801     0.531  31.40   0
       458    170.2281    331.5959 307.8631163  +6.5441905     1101.791     1483.319     1997.959     77.79729     156.0303     312.1849      1.494     3.80     837.6138     55.05505     160.7281        11     1.072     0.690  49.84   0
       459    398.0415    325.3943 307.7686952  +6.5543935     7438.018     11582.26     12387.97     77.54753     155.9059     312.0606      1.640     3.46     833.1764     55.05505     1089.533        34     1.442     1.068  61.65   0
       460    253.8124    325.9214 307.8285884  +6.5493394     2195.811     3260.846     3273.192     77.92186     155.9059     312.1849      1.595     3.56     835.0992     55.05505     321.4903        20     1.300     0.914  66.39   0
       461    182.7051    328.1177 307.8580509  +6.5460456     2474.278     2442.922     2155.872     78.04623     156.5268     312.4644      0.849     1.71     837.0588     55.05505      957.468         8     0.790     0.434 -44.35   0
       462    751.3772    325.0952 307.6219286  +6.5663355     1056.312     1551.355      1855.11      78.2944     156.0303     312.1849      1.561     3.75     837.2419     55.05505     161.6834        11     1.142     0.641  60.46   0
       463    765.8700    321.3092 307.6160349  +6.5683825     54351.43     79824.97     83901.95      78.2944     156.3408     312.3402      1.558     3.38     837.2468     55.05505     7966.708        68     1.579     1.096  60.14   0
       464    437.4135    320.7810 307.7524954  +6.5576173      2439.99     3580.301     3671.048     78.04623     155.9681     312.2471      1.578     3.45     832.6113     55.05505     339.2565        20     1.300     0.879  65.83   0
       465   1000.7698    318.4272 307.5185493  +6.5774046     1756.871     2710.619     2959.446     77.79729     155.9681     312.1849      1.703     4.01     834.9371     55.05505     269.1198        19     1.405     0.865  54.82   0
       466    941.6751    317.5130 307.5431292  +6.5758135     2477.847      3643.61     3330.342      78.2944     156.5268     312.4023      1.537     3.58      836.364     55.05505     336.4156        17     1.204     0.808  65.29   0
       467    583.7604    318.4071 307.6917824  +6.5634957     1212.561     1634.086     1439.594     77.67251     155.9059     312.0606      1.473     3.65     834.7236     55.05505     178.1166        11     1.067     0.658  52.66   0
       468    423.9864    316.3065 307.7582234  +6.5590149     1992.462     3293.847     3404.547     78.04623     155.9681     312.1849      1.772     4.83     832.3724     55.05505     285.2462        23     1.732     0.888  57.92   0
       469    474.5681    317.0760 307.7371860  +6.5603912     1227.535     1699.297     1827.796     78.17041     156.2167     312.3092      1.532     3.81     832.4061     55.05505     183.6205        13     1.212     0.671  55.35   0
       470    181.1606    315.6176 307.8591138  +6.5511546     3480.163     6456.346     6075.596     77.92186     156.0303     312.1228      1.946     5.18     836.7734     55.05505      1399.94        13     2.112     0.359  87.94   0
       471    303.8030    315.4517 307.8081755  +6.5553392     722.2014     859.6788     1039.693     77.67251     155.9681     311.9363      1.227     3.15     834.2313     55.05505     126.6003         7     0.856     0.594 -84.81   0
       472    845.3243    310.8698 307.5833779  +6.5753441     1190.407     1770.488     1351.901     78.41818     156.3408     312.3402      1.527     4.30     837.4502     55.05505     165.1852        11     1.095     0.803  63.96   0
       473    474.3693    311.4198 307.7374587  +6.5627199     754.6681     1253.028     1457.962     77.79729     156.0303      312.216      1.858     3.61     832.1132     55.05505     105.8438         8     0.929     0.646  -0.25   0
       474    977.0186    309.8347 307.5287035  +6.5801613     415.3406     790.3737     398.4709     77.79729     156.0303     312.1228      1.860     3.73     835.2736     55.05505     84.63477         5     0.801     0.502  60.16   0
       475    200.4716    307.5403 307.8513645  +6.5551379     2267.265     3384.276     3637.827     78.41818     156.2167     312.3713      1.662     3.65     835.9034     55.05505     310.1138        21     1.352     0.952  61.60   0
       476    764.2958    305.8539 307.6172068  +6.5747112     6018.615     8933.793      9507.71     78.17042     156.2167     312.5886      1.579     3.51     836.5049     55.05505     968.0944        28     1.434     0.925  63.00   0
       477    454.6822    307.6898 307.7457621  +6.5636007     1199.817      1747.73     2455.413     78.04623     156.4649     312.4023      1.503     3.31     831.9735     55.05505     197.6157        11     0.991     0.768  39.83   0
       478     96.6928    305.1874 307.8945516  +6.5526229     991.1579     1498.681     1710.904     78.04623     155.9681     312.1539      1.592     4.32     838.4669     55.05505     141.8685        12     1.190     0.735  78.44   0
       479    236.4308    305.7965 307.8364863  +6.5570650     756.4138     1006.973     566.7678     77.79729     156.0303     312.1539      1.388     3.95     834.8776     55.05505     110.3449         6     0.923     0.654  63.68   0
       480    780.7992    303.7347 307.6104220  +6.5761371     2814.829     3956.978      3682.73     77.54753     155.9059     312.0917      1.509     3.47     836.7892     55.05505     447.3926        20     1.289     0.875  64.46   0
       481    903.3115    303.1836 307.5595459  +6.5804513     548.4343     733.6851     544.4103     78.04623     155.9681      312.216      1.450     5.21     836.4492     55.05505     119.7095         5     1.031     0.743  41.78   0
       482    483.1097    302.5607 307.7341256  +6.5666702     619.9077     920.8568     818.2546      78.2944     156.1546     312.3713      1.512     4.69     831.7827     55.05505     89.76978         7     1.119     0.558  25.63   0
       483    370.2111    298.6434 307.7811556  +6.5645055     1703.649     3507.268     4158.948     77.79729     156.0303     312.0606      2.333     5.69     832.9399     55.05505     245.2329        26     1.764     1.018  17.02   0
       484     83.8506    299.2104 307.9000876  +6.5546589     1343.504     2066.329     2297.241     77.67251     156.0925     312.0606      1.612     4.17     838.4849     55.05505     191.5115        15     1.218     0.848  79.64   0
       485   1018.8729    294.7089 307.5118216  +6.5878005     5791.399     8803.415     9080.573      78.2944     156.4028     297.5174      1.615     3.61      834.188     55.05505     872.6161        31     1.505     0.981  60.63  16
       486    496.9935    294.6817 307.7286229  +6.5703881      1958.98     2876.992     2908.905     77.92186     155.7815     312.1539      1.550     3.58     831.8482     55.05505     305.6365        15     1.234     0.756  63.33   0
       487    259.6154    290.2480 307.8273793  +6.5642626     5712.922     8826.628     9586.774     77.79729     156.1546     312.0917      1.636     3.35     834.2599     55.05505      744.949        30     1.378     1.041  59.06   0
       488    824.1562    288.5409 307.5929194  +6.5838572     593.1439     804.5867     628.8318     78.17042     156.1546     312.4334      1.272     2.61     836.7756     55.05505      137.202         6     0.723     0.625  59.39   0
       489    779.2110    283.8520 307.6117479  +6.5842933     809.4911       1132.5     1096.537     77.67251     156.0925     312.0917      1.478     2.82     835.9129     55.05505      162.879         7     0.848     0.554  53.42   0
       490    393.7991    280.9322 307.7719529  +6.5726085     1679.479     2679.719      3245.77     77.67251     155.7815     312.1228      1.805     3.92     831.7018     55.05505     231.5496        17     1.307     0.793  52.24   0
       491    980.8088    279.8672 307.5281310  +6.5926608     974.8135     1405.398     1467.457     77.79728     155.9681     312.2471      1.610     3.77      834.333     55.05505      163.137        12     1.199     0.753  40.59   0
       492    316.2489    276.9984 307.8043000  +6.5716328     1182.189     1719.312     1272.058     77.67251     155.8437     311.9363      1.486     4.65     833.4312     55.05505     207.9567        14     1.344     0.698  54.60   0
       493    199.8028    278.2039 307.8526310  +6.5672274      591.269     847.4427     1116.744     77.67251     155.7815     312.1539      1.570     4.61     835.1038     55.05505     94.85028         5     0.802     0.753  86.40   0
       494    163.2560    276.5936 307.8678666  +6.5666649     1777.396     2667.508     2901.574     77.79729     156.0925     312.0606      1.667     3.77     836.1655     55.05505     258.2015        18     1.280     0.869  50.88   0
       495    573.2258    272.4337 307.6977022  +6.5821247     2178.862     3163.777      3198.61     77.79729     156.0303     312.1228      1.542     3.68     832.6348     55.05505     310.0925        19     1.307     0.886  69.02   0
       496    916.9348    271.7053 307.5549397  +6.5939024     1686.314     2413.608     3041.302      78.2944     156.3408     312.3713      1.546     4.10     834.8267     55.05505     245.6423        14     1.357     0.684  45.55   0
       497    736.8082    270.0512 307.6298259  +6.5885757     4992.898     7731.778     7905.287     77.79728     156.0925     312.0295      1.583     3.42     834.4321     55.05505     744.2592        30     1.473     0.961  57.85   0
       498    974.4299    269.8352 307.5311166  +6.5965904      629.832     978.2173     1013.096     77.92186     155.9681     312.1539      1.784     4.91     834.1169     55.05505     114.3741         7     1.427     0.479  67.51   0
       499    677.4514    269.6997 307.6544961  +6.5867381     2227.205     3233.218     3391.871      78.2944     156.2167     312.5576      1.508     3.51     834.1356     55.05505     328.5834        20     1.309     0.882  61.24   0
       500    236.3798    282.2186 307.8373018  +6.5667978     658.9356     928.5179      1073.99     78.04623     156.1546     312.2471      1.839     2.65     834.3285     55.05505     115.9075         5     0.727     0.442  69.61   0
       501    932.8349    262.3402 307.5486475  +6.5982990      1137.52       1610.2      1874.75      78.2944     156.2167     312.3092      1.321     3.07     834.1812     55.05505     184.0234        10     0.998     0.601  59.44   0
       502    236.2680    255.2505 307.8382567  +6.5779283     2339.636     3693.094     3680.033     78.17042     156.0925     312.2781      1.680     3.66     833.9338     55.05505     335.5074        22     1.368     0.931  58.68   0
       503    878.8950    254.4927 307.5713191  +6.5997410     1706.555     2456.237     2552.724      78.2944     156.7745     312.3092      1.522     3.78     834.6628     55.05505     245.1787        16     1.291     0.819  62.71   0
       504    769.5275    253.7836 307.6167784  +6.5963847     1670.028     2320.391     2352.042     77.79729     156.1546     312.2471      1.521     3.69     834.4653     55.05505     237.8081        15     1.252     0.752  52.93   0
       505    257.9085    248.8068 307.8294842  +6.5813150     718.6512     1152.138      879.385     77.92186     155.9059     312.1228      1.553     5.75      833.631     55.05505     119.1121        10     1.100     0.846 -85.96   0
       506    470.1521    245.1856 307.7414367  +6.5899251     22820.32      34995.3     37067.77     77.67251     156.1546     312.0606      1.606     3.48     830.4478     55.05505      3459.54        54     1.550     1.147  63.58   0
       507    796.2548    244.3049 307.6059925  +6.6011905     13505.36      20195.3     22499.67     78.17042     156.2167     312.5576      1.639     3.47     834.2883     55.05505     2043.976        55     1.577     1.279  49.52   0
       508    331.3228    246.8390 307.7990534  +6.5845903     689.9493     875.6426      501.744     78.17042     156.2788     312.3402      1.364     4.45     832.5718     55.05505      104.175         7     0.862     0.652  64.26   0
       509    475.8901    240.0526 307.7392255  +6.5922365     1361.836     2388.481     3024.181      78.2944     156.0303     312.4644      1.975     4.98     830.3744     55.05505     170.1617        16     1.413     0.819  54.23   0
       510    158.3842    238.5785 307.8711719  +6.5821963     2392.888     3712.487       4149.8     78.04623     155.9681     312.2781      1.680     3.85     834.9835     55.05505     316.0229        24     1.434     0.968  61.89   0
       511    734.7040    239.6206 307.6317202  +6.6010697     775.8623     807.5682     908.3124     78.17042     156.0303     312.1539      1.279     4.39     833.6709     55.05505     130.2668         7     0.908     0.605  73.19   0
       512    185.1301    236.7513 307.8601231  +6.5838490     694.1285     1156.142     1324.846      78.2944     156.1546     312.3713      2.001     4.45      834.434     55.05505     98.33325         8     0.968     0.664  59.97   0
       513    133.0356    237.0760 307.8817525  +6.5819649     920.1597      1384.02     1702.776     78.17042     156.2788     312.3713      1.388     2.43     835.6638     55.05505     194.5612         7     0.848     0.508  47.69   0
       514    932.7405    234.8310 307.5496072  +6.6096540     1558.493     2343.434     2406.115     78.04623     156.2167     312.3092      1.601     4.57     833.1769     55.05505     193.7111        15     1.335     0.698  60.68   0
       515    594.1744    230.8144 307.6903969  +6.6000091     4783.646     7016.234     7243.278     78.04623     156.0303     312.2781      1.552     3.40     831.0873     55.05505     709.0601        25     1.412     0.867  61.07   0
       516    556.7762    230.9304 307.7059295  +6.5987102     2131.934      3092.29     3700.993     77.92186     156.0925     312.3092      1.574     3.75     830.6033     55.05505     311.8423        21     1.381     0.871  68.91   0
       517    314.5685    231.7177 307.8065224  +6.5902715     1104.282     1543.729     1348.562     78.17042     156.0303     312.2471      1.524     3.42     832.5478     55.05505     163.7905        10     1.049     0.617  54.00   0
       518    901.2581    227.4939 307.5629321  +6.6116340     11346.88     16547.02     17340.24     78.17042     156.2167     312.5265      1.561     3.34     833.1117     55.05505     1649.346        43     1.505     1.060  58.80   0
       519    398.6009    229.8638 307.7716759  +6.5938542     1639.166     2420.669     2274.017     77.54753     155.9681     312.0917      1.585     4.21     830.7197     55.05505     229.6962        17     1.363     0.782  59.13   0
       520    699.3997    225.6413 307.6468557  +6.6056622     2688.775     4300.495     4771.119     77.54753     155.9059     312.0295      1.795     3.78     833.2391     55.05505     458.1598        23     1.659     0.897  71.51   0
       521    955.0573    228.1291 307.5405599  +6.6131648     2637.662     3699.975     3160.238     78.41818     156.2167     312.3092      1.454     3.55     832.9036     55.05505      421.952        17     1.285     0.763  58.09   0
       522    576.2525    227.3438 307.6979588  +6.6008425     947.9409     1547.704     1468.634      78.2944     156.2167     312.3092      1.748     4.75      830.675     55.05505     143.0788         9     1.166     0.548  49.79   0
       523    328.9252    227.9163 307.8006863  +6.5923224     976.3536     1510.821     1567.113     78.41818     156.5268     312.4023      1.608     4.72     832.1974     55.05505     134.4899        10     1.065     0.749  44.13   0
       524    220.5880    227.7131 307.8456982  +6.5887712      636.033     783.9837     524.7764     77.92186     155.9681      312.216      1.471     4.70     833.7103     55.05505     102.4999         7     1.031     0.608  65.59   0
       525     27.3746    224.0769 307.9260828  +6.5837794     25684.33     39574.12     41718.81     77.92186     156.2167     312.3092      1.633     3.47     837.6023     55.05505     3627.044        55     1.587     1.127  61.17   0
       526    987.9342    225.2586 307.5269970  +6.6154453     9855.531     14406.75     14623.35     78.41818     156.1546     312.3713      1.532     3.44      832.805     55.05505      1409.55        32     1.428     0.969  58.91   0
       527    273.5701    225.3746 307.8237674  +6.5915150     1116.856     1697.158      1555.29     77.79729     156.0303     312.1849      1.549     3.34     833.0825     55.05505     199.0377        13     1.133     0.790  47.49   0
       528    507.9362    220.3001 307.7265764  +6.6014647     1902.853     2780.422     2936.653      78.2944     156.3408     312.3402      1.587     3.53     830.1096     55.05505     276.2101        17     1.229     0.851  67.29   0
       529    839.9247    216.9576 307.5887660  +6.6139388     2038.053     2871.125     3080.714     78.17042     156.2788     312.3713      1.517     3.52     832.8918     55.05505     314.8708        17     1.283     0.802  64.21   0
       530    519.8829    216.0903 307.7217547  +6.6036027     2605.067     4038.491     4317.803     78.04623     156.4649     312.4334      1.683     3.73     830.0648     55.05505     406.7264        25     1.493     0.980  63.98   0
       531    425.6408    217.7802 307.7608492  +6.5997492     544.9758      788.506     911.9495     77.92186     156.0303     312.0917      1.426     2.55     830.1961     55.05505     106.7344         5     0.719     0.448  72.22   0
       532    892.0979    215.8742 307.5671267  +6.6161262     2138.689     3190.588     3606.542     77.92186     156.2788     312.3092      1.581     3.60     832.5853     55.05505     349.6113        17     1.350     0.732  49.28   0
       533    751.4520    213.4444 307.6256398  +6.6124366     40731.23     59101.17     61958.63      78.2944     156.1546     312.3402      1.579     3.32     832.7924     55.05505      5770.31        62     1.562     1.079  60.62   0
       534    354.5340    212.8203 307.7905559  +6.5994138     5783.513     11717.77      12526.4     77.92186     156.2167      312.216      2.110     6.04     831.6151     55.05505     703.1044        45     1.975     1.173  89.96   0
       535    985.2546    212.2893 307.5285440  +6.6207108     2916.688     4243.952     4031.871      78.2944     156.0925     312.4644      1.537     3.32     832.0906     55.05505     448.6188        17     1.253     0.726  63.73   0
       536    919.3819    210.6147 307.5559674  +6.6192073     7536.308     10840.75     11343.24     78.04623     155.9059     312.2471      1.560     3.38     832.1083     55.05505     1072.467        31     1.477     0.907  59.82   0
       537   1023.3151    210.6449 307.5127863  +6.6226573     1478.689     1829.084     1938.515     72.37174     129.3126     240.7562      1.302     3.77     832.0356     55.05505     255.5741        13     1.226     0.639  72.99  24
       538    462.8401    209.6358 307.7456693  +6.6043578     5063.368     7886.183     7938.941     78.04623     156.2167     312.1849      1.651     3.66     830.0502     55.05505     741.0198        29     1.552     0.943  55.40   0
       539    237.2254    206.5505 307.8394998  +6.5980670     646.1742     917.4774     939.8297     77.92186     156.2788     312.2471      1.440     4.74     833.2762     55.05505     105.5746         5     1.099     0.580  66.48   0
       540    120.2221    200.9559 307.8882936  +6.5964470     4854.167     7390.122     7566.829     77.79728     156.0925     312.1539      1.602     3.57     834.8411     55.05505      739.365        28     1.434     0.981  67.37   0
       541    939.7164    200.3880 307.5478614  +6.6241075     850.4669     1237.758     1234.073     77.92186     156.0303     312.1849      1.608     4.54     831.4312     55.05505     114.7533         8     1.003     0.583  67.16   0
       542    290.5156    197.6148 307.8176627  +6.6035446     34169.16     52047.03     54459.15     77.92186     155.9681     312.2471      1.656     3.48      832.498     55.05505     4569.796        63     1.610     1.155  61.34   0
       543    265.7242    198.6690 307.8279262  +6.6022775     6698.068     10085.91     10383.81     78.41818     156.3408     312.3402      1.637     3.54     832.8245     55.05505      957.127        33     1.503     1.027  56.84   0
       544    616.5963    198.3196 307.6821728  +6.6141752     691.6591     1205.284      1511.06     77.79729     155.7815     312.0606      1.803     4.62     830.7234     55.05505     112.0007         6     1.259     0.481  85.29   0
       545    719.7343    197.0449 307.6393668  +6.6181483     978.9777     1208.725     1362.236      78.2944     156.1546     312.3402      1.430     3.61     832.0887     55.05505     163.5304        10     1.084     0.740  62.26   0
       546    414.5983    193.1252 307.7662658  +6.6095585      50273.1     76875.12      81105.1     77.79729     155.6569      312.216      1.621     3.40     830.1714     55.05505     6779.498        70     1.612     1.167  62.38   0
       547    170.4747    194.3650 307.8676401  +6.6008566     3946.021     6093.773     6088.566     78.17042     156.2788     312.3092      1.663     3.54     833.1644     55.05505     529.6932        29     1.369     1.092  69.07   0
       548    431.9597    193.5918 307.7590376  +6.6099476     1417.437     1955.501     1738.776     77.67251     156.0303     312.0606      1.464     3.81     830.0546     55.05505     202.0273        13     1.095     0.766  51.89   0
       549    318.6073    190.8192 307.8062214  +6.6072926     18313.41     27893.43     29705.86     77.92186     155.9059     312.1539      1.616     3.39     832.0656     55.05505     2615.298        54     1.592     1.129  59.57   0
       550    753.8664    189.3602 307.6254440  +6.6224611     33412.67     49315.86     52052.92     78.17042     156.1546     312.4334      1.561     3.44     831.7795     55.05505     4897.162        58     1.602     1.059  60.78   0
       551    584.8694    191.7617 307.6955738  +6.6158218        542.5     905.5807      1357.84     78.17041     156.2167     312.4644      2.162     4.17     830.1852     55.05505     94.48199         6     0.774     0.643 -79.31   0
       552    326.2383    190.2336 307.8030710  +6.6077903     1921.155     3677.475     5033.763     78.04623     156.0303     312.1228      2.293     5.40     831.9761     55.05505     261.4619        25     1.785     0.997 -87.25   0
       553    551.6968    191.3397 307.7093694  +6.6148862     586.9691     949.3384     1456.688     78.04623     156.2167     312.4334      2.057     3.45     829.8519     55.05505     106.3976         5     1.176     0.293  36.37   0
       554    802.1097    189.7420 307.6053881  +6.6239139     1227.889     1703.663     2127.755     78.17042     156.2167     312.4644      1.393     3.90     831.8395     55.05505      187.248        12     1.163     0.704  44.91   0
       555     70.6708    186.6149 307.9093618  +6.6007020     9118.975     13948.94     14559.24     77.79729     156.1546     312.2471      1.644     3.65     836.3407     55.05505     1211.058        34     1.488     1.027  62.09   0
       556    104.7349    184.7423 307.8952742  +6.6026204     1409.922     2029.638     2278.857     78.41818     156.1546     312.3713      1.572     4.32     834.8461     55.05505     190.9951        17     1.436     0.787  52.63   0
       557   1012.1118    183.5106 307.5183481  +6.6334876     1129.039     1632.904     1354.854     78.04623     156.7126     312.4334      1.545     3.95     830.5519     55.05505     192.4446        10     1.096     0.679  65.47   0
       558    702.0882    190.9733 307.6469015  +6.6200657     1223.115     1585.467     1507.334     78.41818     155.9681     312.2471      1.441     4.16     831.8187     55.05505     147.7623        12     1.067     0.818  47.94   0
       559    587.4523    173.8872 307.6951009  +6.6232881     854.6523     1234.059     1302.079      78.2944     156.0925     312.4644      1.743     5.33      829.915     55.05505      138.706         9     1.369     0.586  66.30   0
       560   1013.3153    170.2109 307.5182927  +6.6390189     2068.608     3094.207     3776.472     77.92186     155.9681     312.1849      1.699     3.74     829.7825     55.05505     332.9698        19     1.435     0.759  57.73   0
       561      3.7424    171.6718 307.9376693  +6.6046201     1024.984      1472.24     1161.079     78.41818     152.3822     270.5753      1.520     3.51     839.7824     55.05505     146.4034        10     1.040     0.645  71.11  16
       562    596.3942    167.3390 307.6916058  +6.6262908      882.785     1249.402     1447.913     77.67251     156.0303     312.1228      1.426     3.09     829.8637     55.05505      155.938         9     0.908     0.710  72.24   0
       563    604.7435    165.6280 307.6881944  +6.6272764     1955.396     2592.704     2886.975     77.92186     156.2788     312.2471      1.435     3.36      829.907     55.05505     271.4658        16     1.226     0.786  54.22   0
       564    289.4133    163.8667 307.8192572  +6.6174411     30505.16     47018.88     49850.84     77.79729     156.0303     312.2471      1.639     3.47     832.0281     55.05505     4123.099        55     1.572     1.130  61.83   0
       565    348.8166    165.6833 307.7945175  +6.6186835     930.8401     1456.552      1858.22     77.92186     155.9059     312.2471      1.610     3.76     831.6857     55.05505     171.7709         7     0.973     0.550  66.21   0
       566     34.6350    162.4050 307.9251489  +6.6094853     4425.559     6988.492      6950.37     77.54753     156.0303     312.1228      1.670     3.50     838.2261     55.05505     621.9032        30     1.511     1.034  66.24   0
       567    721.0706    160.5528 307.6400353  +6.6332598     8379.213     12049.59     12863.97      78.2944     156.1546     312.3402      1.540     3.54     830.5797     55.05505     1235.861        33     1.480     0.932  58.98   0
       568    198.4989    161.8635 307.8570938  +6.6152164     924.8989     1269.571     1772.218     78.17041     156.2788     312.3713      1.861     4.22     832.4735     55.05505     132.2764        11     1.076     0.703  46.14   0
       569    275.2596    158.8704 307.8253055  +6.6190290     712.9592     999.0059     1239.026     78.41818     156.2167     312.3713      1.529     5.02     832.1805     55.05505     112.0425         9     1.215     0.710  59.71   0
       570    131.8743    157.5972 307.8849155  +6.6147397     4938.967     7443.748     7609.598     77.79729     155.7192      312.216      1.602     3.39     832.9125     55.05505     710.5604        28     1.413     0.959  65.07   0
       571    471.0093    154.9513 307.7441138  +6.6272091     1354.703     2210.696     1563.619     77.79729     156.0303     312.0295      1.656     4.31     829.3716     55.05505     218.1362        15     1.341     0.932  61.53   0
       572    593.7507    155.6230 307.6930974  +6.6310396     849.1708     1395.684     1328.564     77.92186     156.2788     312.2471      1.849     3.69     829.5663     55.05505      137.309         9     1.033     0.785  40.02   0
       573    659.5448    154.3687 307.6658045  +6.6337573     854.2175     1151.229     1226.604     78.17042     156.2788     312.3092      1.491     2.95     830.0951     55.05505     149.8808         9     0.902     0.732  26.37   0
       574    402.4821    153.5535 307.7726305  +6.6254905     3956.013     6497.956     7003.291      78.2944     156.2167     312.3402      1.834     4.19     830.3747     55.05505     510.8412        28     1.537     1.056  61.03   0
       575    366.9766    152.5235 307.7874159  +6.6247256     3202.125     4807.273     4838.454     77.92186     156.0925     312.3092      1.585     3.44     831.3215     55.05505      444.912        23     1.353     0.911  59.38   0
       576    121.5381    152.6374 307.8893768  +6.6164400     1911.981     2893.503     2886.064      78.2944     156.2788     312.3402      1.607     3.83     833.1587     55.05505     276.0885        19     1.364     0.834  62.38   0
       577    682.3712    150.0305 307.6564665  +6.6363113     768.8903     1139.487     1063.482     77.79728     155.9681     312.0917      1.529     4.48     830.0291     55.05505     108.7398         9     1.008     0.646  36.32   0
       578   1013.9008    146.4463 307.5188441  +6.6488505     1477.543     2469.411      2242.04      78.2944     156.0925     312.5576      1.737     4.86     828.3875     55.05505     208.8813        18     1.477     0.846  50.15   0
       579    739.4883    146.8443 307.6328430  +6.6395348     428.8415     839.1253     978.2267      78.2944     156.0925     312.3713      1.771     3.75     829.9084     55.05505     106.7762         5     0.897     0.529  40.02   0
       580    218.7873    141.3740 307.8493558  +6.6243571     5566.038     8376.911      8729.99     77.92186     156.0303     312.2781      1.588     3.37     832.4515     55.05505     792.0294        30     1.461     0.987  59.77   0
       581    101.4715    141.3146 307.8980951  +6.6204402     2271.061     3479.428     3826.613     78.41818     156.4649     312.3713      1.645     3.85      833.448     55.05505      338.107        23     1.459     0.964  52.62   0
       582    680.5810    140.2075 307.6575398  +6.6403072      6388.21     9304.682     9541.155     77.92186     155.9059     312.1849      1.533     3.40     829.5278     55.05505     894.9279        31     1.482     0.912  57.81   0
       583    828.6600    139.7372 307.5960326  +6.6454459     1201.119     1693.328     1560.138      78.2944     156.1546     312.3713      1.455     3.45     829.1168     55.05505     173.7798        10     1.046     0.637  75.14   0
       584    632.7889    137.5207 307.6774861  +6.6398190      9595.25      14609.7     16321.71     77.92186     155.9059     312.1849      1.663     3.59     829.1433     55.05505      1425.56        40     1.563     1.018  65.87   3
       585    636.3629    129.0043 307.6762871  +6.6434547     52967.09     80414.48     85240.35     77.42236     155.9681     312.1539      1.594     3.42     828.7774     55.05505     7842.091        80     1.627     1.178  64.51   2
       586    571.1135    137.4983 307.7031110  +6.6377656     601.2322     784.2645     879.9286      78.2944     156.6507     312.4023      1.472     4.34     828.7726     55.05505     92.72528         8     0.910     0.657  54.62   0
       587    267.1351    137.6115 307.8293968  +6.6275334     746.6696     1016.557     1169.146     77.79729     156.0303     312.1849      1.469     4.03     832.1542     55.05505     127.7612         7     0.975     0.598  50.07   0
       588     31.5347    136.8017 307.9273013  +6.6199515     1036.979     1602.862     1260.621     77.67251     155.9059     312.1228      1.678     4.65     838.1038     55.05505     144.9973        13     1.118     0.952  78.22   0
       589    359.9535    133.1904 307.7909843  +6.6324722     3547.747     6069.021     6686.365     77.79729     156.0925     311.9985      1.829     3.93     831.5897     55.05505      476.718        31     1.484     1.174  78.61   0
       590    541.6348    132.5346 307.7155251  +6.6388286     1693.451     2435.459     2430.389     78.17042     156.2167     312.3713      1.507     3.61     828.5288     55.05505     252.3885        15     1.250     0.736  64.65   0
       591   1006.5003    131.9964 307.5224020  +6.6545701     751.9597     1099.525     690.9979     78.04623     155.9681     311.9985      1.339     4.46     827.5748     55.05505     117.8767         8     0.987     0.600  50.45   0
       592    315.4258    122.6020 307.8098399  +6.6353505      3647.94     5511.041     6078.338     77.92186     155.9059     312.1539      1.647     3.58     831.9309     55.05505      491.726        24     1.400     0.957  65.00   0
       593    510.8605    120.0482 307.7287303  +6.6429539      563.761      798.942     846.7899      78.2944     156.1546     312.4023      1.435     4.76     828.1315     55.05505     78.78137         7     0.915     0.701  34.59   0
       594    715.6390    117.6549 307.6437306  +6.6507899     926.4445     1177.999     1202.048      78.2944     156.2788     312.3402      1.340     3.70     828.4824     55.05505     142.9387         9     1.091     0.556  46.47   0
       595     12.9444    105.8054 307.9360710  +6.6321230     722148.9      1596020      1765170     77.79728     156.0303     312.0606      2.230     6.08     839.3219     55.05505     62064.68       458     2.310     1.899  67.69  28
       596    686.4565    116.1757 307.6559049  +6.6504257     1279.443      1949.65     2200.339     77.92186     156.2167     312.1539      1.473     3.90      828.334     55.05505     201.2378        12     1.253     0.624  43.33   0
       597    700.8378    112.9591 307.6500377  +6.6522342     3345.017     4936.422     5191.893     78.04623     156.2167      312.216      1.546     3.86     828.2114     55.05505     472.5625        20     1.366     0.817  57.67   0
       598    269.0295    113.2090 307.8294318  +6.6376719     506.9982     632.6249     813.4388     77.79729     156.0303     312.1539      1.296     3.83      831.989     55.05505     69.66321         5     0.821     0.512 -52.93   0
       599    442.4312    103.9561 307.7577015  +6.6473063     4135.345     6082.791     5971.516     77.92186     156.2788      312.216      1.543     3.37     828.9041     55.05505     592.3293        23     1.397     0.889  60.29   0
       600    915.0709     99.3646 307.5614820  +6.6649968     4054.836     6292.313     6715.567     78.17041     156.2167     312.3402      1.622     3.54     826.3045     55.05505     639.6199        26     1.399     0.957  58.82   0
       601    896.9495    100.0520 307.5689883  +6.6641088     2068.717     2973.439     3091.251     78.41818     156.0925     312.3713      1.450     3.99     826.3821     55.05505     312.7699        15     1.299     0.747  74.32   0
       602    607.2821     97.9203 307.6894129  +6.6553161     1757.761     2628.267     2365.796     78.41818     156.4649     312.4644      1.537     3.08     827.4719     55.05505     324.2766        19     1.301     0.905  63.06   0
       603    594.7334     99.5528 307.6945718  +6.6542224     836.4158     1046.684     1263.767      78.2944     156.1546     312.3713      1.492     4.25     827.5262     55.05505     115.4802         7     0.982     0.525  59.30   0
       604    627.1410     97.9920 307.6811595  +6.6559506     542.7739     716.6735     754.9202     77.67251     156.0925     312.0917      1.470     3.86     827.4553     55.05505     86.49774         5     0.829     0.516  33.01   0
       605    406.0399     95.9042 307.7730918  +6.6494113     2015.649      3087.54     2759.738      78.2944     156.0925     312.4955      1.529     3.88     830.0682     55.05505     277.3561        20     1.354     0.895  70.03   0
       606    252.9278     96.9800 307.8366681  +6.6438318     936.7228     1420.556     2135.879     77.92186     156.0925     312.3092      1.641     3.77     831.8203     55.05505     123.2525         9     0.812     0.761  79.62   0
       607    153.7914     92.7787 307.8779965  +6.6422371     3212.787     4996.803     5254.401     77.92186     156.0303     312.1228      1.652     3.83     831.2189     55.05505     420.1512        26     1.498     0.918  64.02   0
       608     35.6495     90.5385 307.9271539  +6.6391899     12447.36     19072.77     20178.35      78.2944     156.1546     312.4023      1.673     3.68     836.5497     55.05505     1643.192        45     1.574     1.085  59.67   0
       609    562.4200     90.2867 307.7083086  +6.6569671     807.3165     1267.911     873.6904     78.04623     155.9681     312.2471      1.781     5.37     827.1396     55.05505     118.2183        11     1.271     0.727  78.15   0
       610    302.0538     91.0709 307.8164572  +6.6479200     1283.964     1978.654     2819.939     78.17042     156.1546     312.2781      1.656     4.16     832.1232     55.05505     187.0225        13     1.262     0.678  66.14   0
       611    770.5775     89.4785 307.6218492  +6.6642581     636.4623     703.2318     989.8494     77.92186     155.9681     312.3092      1.403     5.06      827.211     55.05505      99.1076         7     1.048     0.690  54.99   0
       612    575.2002     90.0312 307.7030073  +6.6575002     644.1699     852.4812     476.5721     77.54753     156.0303     312.1539      1.584     4.50     827.1481     55.05505     111.7278         7     1.026     0.619  32.24   0
       613    782.4268     85.4924 307.6170595  +6.6662994     3475.344     4964.429     4889.032     78.41818     155.9681     312.1849      1.562     3.53     827.0816     55.05505      487.066        25     1.475     0.862  60.73   0
       614    427.7018     86.3277 307.7644140  +6.6540910     1063.962     1463.246     715.0124     78.04623     156.3408     312.3402      1.477     4.42       829.23     55.05505      175.686        12     1.294     0.650  48.13   0
       615    904.4619     86.6740 307.5663148  +6.6698828     608.1434     855.9152     323.3922     78.54177     156.2167     312.3402      1.612     3.47     825.9161     55.05505     117.9077         5     1.013     0.344  67.73   0
       616    837.4088     85.1497 307.5942262  +6.6682758     6281.177     9081.358       9584.4     77.79729     156.0925     312.0295      1.506     3.35     826.4772     55.05505     946.7963        27     1.443     0.865  60.23   0
       617    928.7430     85.6404 307.5562606  +6.6711190     493.6826     781.9998     825.4642      78.2944     156.2788     312.3713      1.534     3.43     825.7764     55.05505     91.73364         5     0.743     0.458  14.04   0
       618    769.5302     84.8286 307.6224402  +6.6661429     612.5793     815.9729     1012.459     78.04623     156.2167     312.2781      1.524     5.21     827.1051     55.05505     83.02722         8     1.021     0.752  56.28   0
       619    107.0282     85.2674 307.8976777  +6.6437665     471.4173     646.9667     819.7791     78.04623     156.1546     312.3092      1.479     3.83     831.3692     55.05505      88.3761         5     0.833     0.506  56.51   0
       620    544.6637     83.5644 307.7159119  +6.6591484     1136.335     1767.774      2219.14     78.17042     156.1546     312.3713      1.659     4.59     826.9454     55.05505     191.4367        11     1.258     0.697  56.35   0
       621     75.9578     82.3665 307.9106838  +6.6439195      3228.33       4958.9     5373.553     78.04623     156.2167     312.1539      1.608     3.72     832.8076     55.05505     441.5402        23     1.415     0.910  64.62   0
       622     60.4186     83.3816 307.9171053  +6.6429779     994.6378     1273.217     970.2195     78.04623     156.0303     312.2781      1.445     3.97     833.9843     55.05505     132.9725         9     0.925     0.760 -64.97   0
       623    436.9291     82.2429 307.7607177  +6.6560866     1079.088     1407.027     1123.876     78.17041     156.2167     312.3713      1.463     3.16     828.8385     55.05505     202.7238        11     1.065     0.720  68.63   0
       624    599.8879     79.1083 307.6931167  +6.6628358     1377.288     2151.007     2029.678      78.2944     156.6507     312.4334      1.589     4.35     826.7565     55.05505     200.0707        16     1.333     0.923  76.75   0
       625    271.1620     79.0289 307.8296972  +6.6518552     590.5966      864.937     769.1094     77.79729     155.9681      312.216      1.542     3.97     832.0617     55.05505     71.92578         6     0.941     0.480 -53.02   0
       626     18.2735     77.7638 307.9348041  +6.6438794     2587.491     3971.516     4421.273     78.17042     156.2167     312.3402      1.626     3.92     836.2539     55.05505     361.6317        20     1.382     0.839  59.59   0
       627    776.9968     73.0408 307.6197330  +6.6712591     1959.125      3026.89     3475.282     77.54753     155.9681     312.0917      1.588     3.87     826.7705     55.05505      289.986        18     1.368     0.807  57.62   0
       628    417.9014     73.3194 307.7689234  +6.6591333     1159.493     1520.861     1227.242     78.17042     156.5888     312.4023      1.417     4.89     829.6205     55.05505     136.5326        13     1.234     0.756  51.63   0
       629     90.8675     73.6655 307.9047832  +6.6480131     659.1904     1019.022     936.1088      78.2944     156.2167     312.3713      1.676     4.34      831.512     55.05505     98.68506         7     1.080     0.496  47.38   0
       630    114.9139     71.3860 307.8948699  +6.6497626     949.2058     1205.859     1504.334     77.92186     156.0303     312.2471      1.426     3.88     830.9855     55.05505      158.567        12     1.051     0.829  61.20   0
       631    103.6604     66.6725 307.8997043  +6.6513304     9519.451     14732.23     15851.92     78.41818     156.2167     312.3713      1.680     3.56     830.9545     55.05505     1306.778        40     1.539     1.096  66.90   0
       632    432.8414     66.4766 307.7629463  +6.6624591     2635.518     4040.976     4222.719     78.17042     156.2167     312.3713      1.614     3.51     828.8922     55.05505      399.029        22     1.393     0.868  60.03   0
       633    253.9854     66.4545 307.8372572  +6.6564701     622.0592     1064.883       1661.1     77.67251     156.1546     312.0606      1.861     4.00     831.6807     55.05505     88.76715         5     0.921     0.498  -0.08   0
       634    646.4999     58.7398 307.6744337  +6.6728040     19094.13      27900.3      29820.3     78.04623     156.2167     312.4955      1.557     3.38     825.9678     55.05505     2693.887        44     1.530     1.007  64.50   0
       635    270.4465     60.4426 307.8306206  +6.6595047     1467.785     2531.748     3550.539      78.2944     156.2167     312.2781      2.213     5.41      832.196     55.05505     200.9791        16     1.526     0.823  61.63   0
       636    675.8420     60.0203 307.6621992  +6.6732561     596.0356     848.8701     1255.239     77.79729     156.0303     312.1849      1.314     3.31     826.0126     55.05505     118.5694         6     0.918     0.437  54.00   0
       637    546.2138     54.7700 307.7162352  +6.6710887     5429.513     8018.056     8888.391     77.92186     155.9681     312.2781      1.577     3.64     826.0567     55.05505      830.668        28     1.404     0.930  62.96   0
       638    264.4204     54.9741 307.8333086  +6.6615602     2102.603     3348.019     4838.508     77.92186     156.0303     312.2471      2.064     3.99     832.0087     55.05505     272.4077        20     1.382     0.866  61.95   1
       639    451.8243     50.4397 307.7555986  +6.6697161     22926.92     34738.16     36366.08     77.92186     156.0303     312.1228      1.628     3.53     827.7292     55.05505     3257.034        55     1.600     1.100  65.26   0
       640     13.6067     52.9809 307.9375799  +6.6539541     1179.932     1816.469     1387.525     77.92186     155.9059     312.1539      1.569     4.31     832.9799     55.05505     158.2592        14     1.250     0.748  59.58   0
       641    632.8493     49.2294 307.6804247  +6.6762742     3015.637     4976.424      6010.88     77.92186     156.2788     312.2471      1.940     5.46     825.5979     55.05505     434.6364        30     2.075     0.845  65.10   0
       642    272.3613     50.8309 307.8301489  +6.6635373     9299.246     14159.38     15843.16     77.92186     155.9681     312.1849      1.640     3.55     832.3508     55.05505     1238.252        39     1.485     1.116  63.04   0
       643    929.9979     50.7792 307.5569059  +6.6855543     1796.753     2743.893     3051.356     77.92186     155.9059     312.0917      1.631     3.81     824.4515     55.05505      283.866        17     1.363     0.754  55.54   0
       644    332.1603     51.3270 307.8052871  +6.6653388     870.6262      1324.51      1175.47     78.17042     156.2788     312.4023      1.696     5.64     833.0495     55.05505     99.83289        11     1.303     0.688  56.18   0
       645     37.7711     50.3098 307.9276308  +6.6558699     2372.402     3425.253      3401.23     78.41818     155.9681     312.2471      1.550     3.59     831.9842     55.05505     326.8897        20     1.328     0.854  63.83   0
       646    565.1871     50.0978 307.7085089  +6.6736526     622.2668     729.6641     842.8763     78.17041     155.9681     312.0917      1.294     3.92     825.8252     55.05505     115.1815         7     1.086     0.501  52.41   0
       647    536.7532     50.0160 307.7203258  +6.6727348     527.7476     844.8301     1038.207     77.79728     156.0925     312.0917      1.671     4.28     825.9348     55.05505      89.1402         5     1.030     0.507  53.88   0
       648    260.2554     47.4425 307.8352928  +6.6645299      3052.34      4746.25      5632.09     78.17042     156.2167     312.3713      1.714     3.78      831.858     55.05505     441.4437        24     1.470     0.877  65.12   0
       649    313.2833     45.7588 307.8133176  +6.6670044     1035.711     1565.979     2015.808      78.2944     156.2167     312.2781      1.614     3.79     833.1653     55.05505     136.7133        10     1.033     0.671  48.98   0
       650    950.2373     40.8401 307.5488288  +6.6903325     1033.087      1568.11     2122.167     78.04623     156.2167      312.216      1.687     4.89     823.6235     55.05505     141.9979        11     1.050     0.935   2.77   0
       651    701.7561     40.1573 307.6520983  +6.6823230     1773.515     2586.209     2279.095     78.04623     156.2167     312.1849      1.554     3.42     825.5456     55.05505     258.0854        16     1.174     0.821  59.40   0
       652    267.5598     35.1611 307.8326717  +6.6698456     858.5599     1506.594     1949.131     78.04623     156.2788      312.216      2.264     4.54     832.2899     55.05505     123.7469         8     1.171     0.500  68.17   0
       653    212.8696     35.5735 307.8553804  +6.6678392     815.4118     909.4315     924.2344     77.92186     156.0925     312.2781      1.307     4.29     829.9996     55.05505     115.9601        10     1.036     0.824  36.24   0
       654    189.8938     32.8284 307.8650188  +6.6682009     10912.05     16530.53     17314.97     78.41818     155.9681     312.2471      1.598     3.49     829.9204     55.05505     1634.906        40     1.486     1.056  61.13   0
       655      3.2446     33.2150 307.9425525  +6.6617658     952.9592     1456.573     1542.039     77.67251     147.9906     263.7131      1.443     4.26     830.1587     55.05505     180.6753         8     1.070     0.588  52.58  16
       656    935.5983     30.6496 307.5552526  +6.6940521     4244.415     5896.393     5824.106     77.67251     155.8437     311.9363      1.472     3.39     823.5502     55.05505     629.6108        22     1.310     0.848  61.24   0
       657    534.0220     30.9643 307.7221007  +6.6805093     3052.109     4245.589     3790.898     77.79729     155.9681     312.0917      1.445     3.65     825.3734     55.05505     436.8876        21     1.326     0.867  60.34   0
       658    736.4772     29.1608 307.6380402  +6.6880230      2056.96     2975.887     2634.123     78.17042     156.2167     312.3402      1.538     3.58     825.5762     55.05505      313.319        17     1.318     0.773  56.99   0
       659    472.1889     29.4214 307.7478441  +6.6790760     1836.178     2705.448     2549.937     77.92186     155.9681      312.216      1.516     3.67     826.1184     55.05505     261.1729        15     1.226     0.794  70.63   0
       660    556.6900   1014.8253 307.6796550  +6.2750517     4141.042     6942.598     7908.406     78.41818     156.0303     312.1849      1.885     3.90     856.7886     55.05505     590.2477        35     1.641     1.117  72.43  19
       661    639.9191     22.5701 307.6783821  +6.6875175     3767.891      5606.29     6105.004     78.17041     156.0925     312.3092      1.601     3.68     824.6198     55.05505     532.4047        24     1.382     0.920  64.88   0
       662    342.0675     22.5248 307.8021405  +6.6775624     914.6553     1583.253      1636.38     78.41818     156.3408     312.3402      1.862     4.10     833.6979     55.05505     144.1193         9     0.991     0.818  40.37   0
       663    395.3127     20.8629 307.7800736  +6.6800338     751.7972      1078.03     881.6178      78.2944     156.4028     312.3713      1.523     4.87     831.0677     55.05505     103.3149         7     1.184     0.568  73.84   0
       664    553.8588   1007.0784 307.6810903  +6.2781556     8144.489     12656.54     14445.15     78.41818     156.2167     312.2781      1.669     3.32     856.6307     55.05505     1175.214        39     1.597     1.052  57.21   3
       665    687.0186     17.8749 307.6589694  +6.6910303     1012.298     1437.288      1562.68     77.79729     155.9681     312.2781      1.508     3.62     824.6248     55.05505     186.4869        10     1.118     0.599  57.84   0
       666    527.2948   1016.4352 307.6918051  +6.2734040     1046.928     1694.416     2388.527     78.41818     156.0925     312.4334      2.108     6.59     856.8047     55.05505      155.174        15     1.601     0.805  59.61  16
       667    515.7704     15.6975 307.7301973  +6.6862015      862.821     1245.446      1250.45     78.41818     155.9681     312.3713      1.517     3.63      825.008     55.05505     150.1639        10     1.010     0.728  48.65   0
       668    761.1634   1014.2357 307.5947819  +6.2821250     7278.532     11762.44     12572.38     78.04623     156.0925     312.1228      1.733     3.66     855.3407     55.05505     891.6727        42     1.652     1.132  50.41  16
       669    306.7131   1013.6657 307.7834758  +6.2671622     14748.31     22905.85     24424.02      78.2944     156.4028     312.3713      1.674     3.46      857.217     55.05505     1989.843        50     1.551     1.211  59.30   2
       670    310.9683   1010.2800 307.7818231  +6.2687026     994.0979     1695.714     2593.161     78.17042     156.1546     312.3092      1.806     4.26     857.2159     55.05505     151.2249         9     1.065     0.615  42.78   3
       671    822.5637   1013.6539 307.5693089  +6.2844134     962.7034     1612.254     1860.754     78.17042     156.2167     312.3713      1.889     5.73     854.7635     55.05505     136.8109        14     1.336     0.774  69.62   0
       672    431.0778   1013.9197 307.7318358  +6.2712231     987.6768      1351.19     1593.118     78.54177     156.4649     312.4955      1.522     4.78     856.8652     55.05505     151.7902         9     1.243     0.520  40.14   0
       673    278.2752   1010.7911 307.7953787  +6.2673957     938.4812     1536.942     1768.474     77.92186     155.8437     312.1849      1.801     4.62     856.7604     55.05505     154.7186        12     1.310     0.771  49.14   0
       674    922.4092   1007.7731 307.5280507  +6.2901697     7558.063     13380.58     15111.22     77.92186     156.0303      312.216      1.939     3.87     853.6387     55.05505     876.1559        45     1.665     1.266  62.31   0
       675    896.1599   1003.8654 307.5390799  +6.2909084      10983.9     19190.54     20484.25      78.2944     156.1546     312.4644      1.872     3.74     853.8243     55.05505     1399.116        51     1.639     1.332  55.19   0
       676   1017.8639   1003.3958 307.4885646  +6.2951557     4031.424     7664.794     8222.304     77.54753     155.9681      305.559      1.981     4.35     848.7404     55.05505     474.3788        38     1.646     1.275  59.34  16
       677    608.8986   1004.2369 307.6583343  +6.2811686     1321.333      1905.34     1484.497      78.2944     156.0925     312.5265      1.575     4.78     858.2899     55.05505      146.661        17     1.327     0.938  46.43   0
       678    540.1846   1002.9240 307.6869069  +6.2794137     4034.301     6589.932     7689.178     77.79728     155.9681      312.216      1.778     3.59     856.4436     55.05505     552.5407        28     1.441     1.030  61.08   2
       679    649.8796   1002.3709 307.6413823  +6.2833084     1386.846     2175.728     1933.479     78.17042     156.2167     312.3092      1.631     3.63     856.9461     55.05505      221.707        15     1.191     0.847  50.39   0
       680     74.6426   1001.6717 307.8802242  +6.2643270     904.1934     1499.744     1633.066     78.17042     156.2167     312.3713      1.737     4.81      854.034     55.05505     123.6456         9     1.092     0.673  43.53   0
       681    805.8666   1001.1695 307.5766590  +6.2890112     505.4781     670.6711     190.6495     78.04623     156.2167     312.2781      1.504     3.85     854.8154     55.05505     90.92578         5     0.748     0.696  19.66   0
       682    493.3694    999.5153 307.7064578  +6.2792551     2134.589     3311.157     3249.145      78.2944     156.0303      312.216      1.688     4.01     857.4488     55.05505     304.2766        20     1.320     0.986  68.42   0
       683    927.8680    991.4394 307.5263301  +6.2970955     38887.63     66996.25     73069.07     78.17042     156.2167     312.4644      1.880     3.87     853.2478     55.05505     4686.582        80     1.774     1.391  57.90   0
       684      1.6862    991.3063 307.9108611  +6.2661548     2071.449     2864.816     2723.562     72.37174     129.6871     240.9173      1.394     3.70     853.2487     55.05505     364.1062        14     1.258     0.744  74.57  24
       685    235.1279    989.5521 307.8140063  +6.2747179     1661.831     2562.243     2857.781      78.2944     156.2788     312.3713      1.670     3.46     855.5844     55.05505      234.343        15     1.161     0.821  60.64   0
