#   1 NUMBER                 Running object number                                     
#   2 X_IMAGE                Object position along x                                    [pixel]
#   3 Y_IMAGE                Object position along y                                    [pixel]
#   4 ALPHA_J2000            Right ascension of barycenter (J2000)                      [deg]
#   5 DELTA_J2000            Declination of barycenter (J2000)                          [deg]
#   6 FLUX_APER              Flux vector within fixed circular aperture(s)              [count]
#   9 FLUXERR_APER           RMS error vector for aperture flux(es)                     [count]
#  12 FLUX_RADIUS            Fraction-of-light radii                                    [pixel]
#  13 FWHM_IMAGE             FWHM assuming a gaussian core                              [pixel]
#  14 BACKGROUND             Background at centroid position                            [count]
#  15 THRESHOLD              Detection threshold above background                       [count]
#  16 FLUX_MAX               Peak flux above background                                 [count]
#  17 ISOAREA_IMAGE          Isophotal area above Analysis threshold                    [pixel**2]
#  18 A_IMAGE                Profile RMS along major axis                               [pixel]
#  19 B_IMAGE                Profile RMS along minor axis                               [pixel]
#  20 THETA_IMAGE            Position angle (CCW/x)                                     [deg]
#  21 FLAGS                  Extraction flags                                          
         1      1.6087     22.0242 307.9346667  +6.6315121     178605.1     240786.1     262063.3     83.15871     149.5198     279.1829      1.381     3.43     1206.071     64.21953     48092.75       142     2.135     1.152 -87.50  24
         2    426.9055     19.5118 307.7578891  +6.6468546     1620.108     4838.735     6638.263     91.32731     182.7269      364.405      3.047     9.41     1174.034     64.21953     195.8934        44     2.023     1.783  55.22   0
         3    899.0567     14.3302 307.5617022  +6.6648019     2067.878     5105.662     5727.335      91.4717     182.2206     364.2963      2.520     6.98     1159.963     64.21953     242.2373        38     1.870     1.453  37.06   0
         4    880.4995     15.3262 307.5693867  +6.6637708     1185.553      2522.59     2470.125     90.74745     182.3654     364.2601      2.131     7.05     1160.033     64.21953     170.3125        17     1.529     0.999  67.67   0
         5    591.9033     12.4118 307.6895090  +6.6553194     781.2822     1998.128     2576.857     91.03784     181.9307     364.1151      2.194     3.76     1166.802     64.21953     104.0654         6     1.221     0.333  50.86   0
         6    138.1068      8.6875 307.8783548  +6.6416171     1491.863     4250.943     5710.587     91.32731     182.7269     364.4412      2.976     8.62     1190.498     64.21953     196.1107        34     1.895     1.730  57.07  18
         7     20.1898      6.4039 307.9274677  +6.6385883     5265.156     15119.85     18273.08     90.74745     181.8581     349.9204      2.741     6.74      1204.38     64.21953     616.0648        65     2.128     1.844  45.46  16
         8    821.8500      1.8478 307.5942307  +6.6673769     2635.859     4194.886     4726.708     86.42719     153.6982     283.9171      1.715     6.40     1158.436     64.21953     376.8168        19     1.588     0.829   8.86  24
         9    766.4586      2.0310 307.6172616  +6.6654492     1598.868     2702.836     3193.168     88.09085     156.6746     287.1985      1.796     6.90     1159.533     64.21953     224.9241        19     1.591     1.053  10.07  24
        10    896.3678   1004.2009 307.5296878  +6.2559369     674.2459     1096.177     1983.703     90.60191     182.0032     364.0426      1.518     3.45     1219.728     64.21953     86.92761         5     0.756     0.455  74.59   0
        11    934.9454   1023.5895 307.5130080  +6.2492176     828.7346     936.7773      784.176     80.25129      146.398     275.4711      1.072     3.38     1219.417     64.21953     170.6256         5     0.783     0.423  22.36  24
        12    883.4238   1023.6321 307.5344170  +6.2474806     758.7266     1137.829     957.2649     79.25846     145.1305     274.5594      1.293     4.01     1220.931     64.21953     135.0336         7     1.008     0.456  10.14  24
        13    826.4687   1001.6714 307.5588202  +6.2546475     2445.232     4941.885     4836.304     91.32732     182.3654     364.2963      2.110     5.82      1220.95     64.21953     251.0847        29     1.690     1.188  41.71   0
        14    747.1860   1000.6318 307.5918020  +6.2524276       1054.4     2025.922      1864.46     90.89276     181.9307     364.2601      1.975     6.94     1221.119     64.21953     149.2025        16     1.439     1.054  31.89   0
        15    809.2355   1000.1077 307.5660341  +6.2547176     930.5457     1676.426     1222.231      91.4717     182.0757     364.3687      1.846     4.03     1221.057     64.21953     127.8289         9     1.000     0.896 -47.12   0
        16    570.8459    997.0441 307.6652020  +6.2480094     1838.867     3855.406     3603.808     91.32731     182.2206     364.2601      2.136     6.31     1224.388     64.21953     226.5181        26     1.686     1.057  29.91   0
        17    275.9823    987.3322 307.7880583  +6.2421320     982.5317      2205.86     2750.396     90.74745     182.1481     364.2238      2.472     8.58     1223.567     64.21953     136.9153        18     1.586     1.297  14.66   0
        18    699.4935    985.3039 307.6121349  +6.2571627     3033.011      6490.46      7159.23     91.32732     182.7991     364.2601      2.198     5.79     1220.666     64.21953     348.0377        36     1.731     1.371  44.08   0
        19      2.0102    985.0240 307.9019800  +6.2338724     7138.839     11020.24     11225.66     87.79071     155.9993     286.6005      1.632     7.58     1221.745     64.21953      1234.46        30     1.689     0.953  74.33  24
        20    609.7700    983.7737 307.6494719  +6.2547926     1279.649      2574.15     2385.719     90.74745     182.0032     364.1514      2.029     8.08     1222.617     64.21953       164.33        19     1.483     1.232  42.71   0
        21    229.1908    982.5943 307.8076615  +6.2425168     787.1328     1568.485     1004.296     90.60191     182.0032     364.1514      1.954     6.76     1223.432     64.21953     111.3455        10     1.309     0.978  82.39   0
        22     65.5569    975.1050 307.8759093  +6.2401073     5172.126     11004.68     12028.58     91.32731     182.1481     364.4774      2.223     5.40     1221.722     64.21953     729.8531        47     1.991     1.342  41.25   0
        23    794.7131    974.1160 307.5729393  +6.2649659     10255.07     20330.27     21649.73     91.03784     182.4377     364.3687      2.095     4.93       1219.8     64.21953     1173.666        55     1.852     1.381  38.13   0
        24    569.2775    953.7604 307.6673061  +6.2658309     2611.748     6058.514     8074.624     91.18269     182.2206     364.3325      2.703     9.71     1222.161     64.21953     309.1736        43     2.360     1.451  32.32   3
        25    578.1525    965.1888 307.6632345  +6.2614088     99644.16     222377.7       253094     90.74745     182.0757     363.9701      2.330     5.32     1222.583     64.21953      11494.3       110     2.087     1.647  39.41   3
        26    579.9308    957.9300 307.6627390  +6.2644658     47069.53     103991.6     116214.1     91.32732     182.3654     364.2963      2.282     5.36     1222.211     64.21953     5403.038        79     2.047     1.516  34.41   3
        27    212.1909    968.2533 307.8152085  +6.2478675     2355.176      5260.51      5898.01     90.60191     182.0757     364.0064      2.264     6.24     1223.127     64.21953     298.8353        35     1.915     1.276  41.75   0
        28    789.0853    961.9904 307.5756840  +6.2697852     4837.758     9729.042     10402.65     90.89276     181.8581     364.1514      2.122     5.08     1219.229     64.21953      589.653        42     1.913     1.230  39.35   0
        29    886.9595    958.9467 307.5351113  +6.2743111     1184.192     2037.068     2454.584     91.18269     182.2206     364.3687      1.826     7.52      1218.07     64.21953     171.8368        16     1.464     1.083  48.70   0
        30    209.7245    957.2587 307.8166037  +6.2523248     1473.415     3059.707     3513.226      91.4717      182.293     364.2963      2.140     6.70      1222.87     64.21953     194.9141        22     1.684     1.048  28.44   0
        31    427.6408    954.7023 307.7261338  +6.2606957     2590.781     5992.997     7179.411     91.32732     182.0757      364.586      2.460     6.17     1222.881     64.21953     345.1151        40     1.969     1.377  40.83   0
        32    712.8647    954.4201 307.6076131  +6.2703635     4980.188     10717.11     11878.07     90.89276     182.2206     364.1514      2.233     5.26      1219.84     64.21953     510.5995        48     1.978     1.366  36.46   0
        33    704.6320    953.4984 307.6110653  +6.2704688     850.9787     1638.316     2025.103     91.32732     182.0757     364.4774      1.983     5.98     1219.972     64.21953     117.1163        10     1.249     0.805  46.41   0
        34    744.7175    949.4109 307.5945436  +6.2734971     984.5457     2348.656     3729.042     90.89276     181.8581     364.1514      3.232     8.91     1219.101     64.21953     134.3196        18     1.835     1.208  30.36   0
        35    952.3420    943.8015 307.5084458  +6.2827474     5571.363     10313.08     10200.44     90.60191     181.8581     364.0064      1.900     4.83     1215.984     64.21953     663.4509        37     1.712     1.141  39.54   0
        36    711.0424    942.3372 307.6087753  +6.2752923     1715.188     4105.158     5671.717     91.32731     182.1481      364.405      2.755    10.34     1219.592     64.21953     246.0363        38     2.349     1.430 -19.52   0
        37    236.7498    943.7059 307.8058297  +6.2588293     828.3286     1758.096     2204.542     91.18269     182.0757     364.5498      2.233     5.45     1222.704     64.21953     110.5516         9     1.148     0.955 -25.13   0
        38    435.3760    942.1550 307.7233409  +6.2661364     784.9429     1332.215     1586.922     90.74745     182.2206     364.1876      1.826     4.17     1222.682     64.21953     116.4233         6     1.186     0.419  54.44   0
        39    359.2493    939.4342 307.7550679  +6.2647064     1060.478     2606.164     3228.865     91.18269     182.2206     364.2601      2.532     8.36     1222.991     64.21953     169.5828        17     1.714     1.140  15.15   0
        40    969.0184    936.8265 307.5017483  +6.2861841     577.9543     870.9674     601.4308     90.89276     182.0032     364.2238      1.943     4.32     1215.159     64.21953      103.849         5     1.035     0.514  32.99   0
        41    745.6861    928.9961 307.5948250  +6.2819599     5029.586     10664.17     11369.16     90.74745     181.7855     364.0064      2.205     4.98     1218.309     64.21953     615.8372        43     1.825     1.350  40.19   0
        42    541.3140    929.6181 307.6797373  +6.2748640     2329.394     5890.798     7160.924     90.89276     181.9307     364.2238      2.607     6.25     1220.945     64.21953     307.2582        40     1.882     1.476  33.15   3
        43    538.4181    921.8734 307.6812007  +6.2779652     5019.873     11839.68     13317.68     90.74745     182.1481     364.2238      2.403     5.84     1220.657     64.21953     625.3906        51     2.016     1.473  46.58   3
        44    291.5420    928.6484 307.7835672  +6.2668876     8807.005     20429.36     24365.93     91.32732     182.2206     364.4412      2.443     5.46     1223.037     64.21953     1211.771        71     2.145     1.715  24.85   0
        45    806.8424    927.9432 307.5694444  +6.2844386     829.8083     1718.026     1546.547     91.18269     182.1481     364.3325      1.747     5.65     1217.286     64.21953     123.5074         8     1.454     0.619  52.39   0
        46    263.1519    926.0026 307.7954541  +6.2670267     610.7135     1190.969     956.3286     90.60191     181.8581     363.8613      1.531     4.09     1222.721     64.21953     87.51855         6     1.329     0.359 -89.99   0
        47    906.9230    922.4390 307.5280359  +6.2900536      6661.69     13078.71     14147.87     91.18269      182.293     364.3325      2.068     5.14     1215.965     64.21953     706.5143        43     1.840     1.226  35.76   0
        48    880.5624    918.5346 307.5391218  +6.2907860     9315.628     18647.38     19998.55     91.18269     182.1481     364.4412      2.098     4.98     1216.079     64.21953       1015.7        51     1.826     1.355  36.82   0
        49   1002.3614    918.0577 307.4885184  +6.2950469     3888.508     7178.377     6589.369     91.32731      182.293     364.3325      1.906     4.90     1213.321     64.21953     462.8168        29     1.611     1.107  37.13   0
        50    593.7740    919.2853 307.6582828  +6.2808878     859.9719     1537.208     1081.871      91.4717     181.9307     364.1876      1.859     7.25     1220.238     64.21953     125.9956        12     1.337     1.117 -26.32   0
        51    524.7899    917.7420 307.6870030  +6.2792147     2303.836     5613.256     7111.065     90.60191     182.1481     364.0064      2.600     6.08     1220.664     64.21953     290.4811        38     1.826     1.427  36.08   0
        52    246.8393    919.3406 307.8024572  +6.2692297     1164.798     1526.873     1452.772     91.32731      182.293     364.4412      0.729     1.07     1222.506     64.21953     496.1036         5     0.522     0.459 -28.31   0
        53    634.0241    916.8995 307.6416355  +6.2832203     893.3218     1896.701     2140.828      91.4717     181.9307     364.1151      2.310     7.95     1219.869     64.21953     102.1329        14     1.380     1.279  14.98   0
        54    478.3275    914.3759 307.7064248  +6.2790478     1255.553     2987.969     3229.379     90.89276     182.0757     364.2601      2.446     7.17     1221.109     64.21953      172.642        23     1.579     1.414  39.37   0
        55    912.3214    906.1547 307.5263369  +6.2969586     32520.26     64754.93     70207.48     91.32731     182.2206     364.2963      2.090     5.04     1214.656     64.21953     3573.978        75     1.939     1.399  39.22   0
        56    220.3735    904.2609 307.8139632  +6.2745676     1067.615     1949.946     2213.786     90.89276     182.2206     364.1876      2.047     5.74     1222.131     64.21953     133.3219        12     1.420     0.653  31.76   0
        57    810.2969    899.9891 307.5689446  +6.2960979     1583.268     3494.267     3738.501     91.03784     181.7855     364.1151      2.200     8.38     1215.637     64.21953     186.2441        23     1.476     1.329  71.09   0
        58    758.3898    897.7763 307.5905912  +6.2952770     4319.407     9510.912     11393.31     90.89276     182.0032     364.1876      2.308     5.67     1216.551     64.21953     522.4907        48     2.016     1.349  35.95   0
        59    228.0554    896.5959 307.8110289  +6.2779909     1025.859     2237.467     2527.981     90.60191     182.0032     363.9701      2.008     6.60     1222.174     64.21953     155.9001        12     1.659     0.738  21.02   0
        60     53.1102    895.1519 307.8837780  +6.2727040     1810.401     3719.965     4417.985     91.32731     182.0757     364.5136      2.237     5.77     1219.251     64.21953      212.151        26     1.623     1.264  18.20   0
        61    946.6355    892.8878 307.5125195  +6.3035824     5163.264     10132.33     10764.84     91.32731     182.0757     364.3325      2.077     4.86      1213.21     64.21953     566.6379        40     1.714     1.308  46.14   0
        62    920.7241    884.4789 307.5235697  +6.3061903     1560.412     2982.442     2610.569     91.61587     182.5101     364.4412      1.959     5.97      1212.87     64.21953     176.1216        21     1.463     1.053  60.92   0
        63    641.1143    880.7482 307.6399013  +6.2983865     2826.699     6331.143     6636.103     91.32731     182.1481     364.4412      2.253     5.58     1217.356     64.21953     352.7755        43     1.851     1.493  33.11   0
        64    253.6889    881.0912 307.8008984  +6.2852547      2680.05     6009.876      6643.59     91.32731     182.7991     364.4412      2.361     5.74      1222.49     64.21953     398.9006        38     1.941     1.338  32.31   0
        65    779.8312    881.0930 307.5822389  +6.3028831     933.7655     2027.294      2110.28      91.4717     182.0032     364.3325      2.315     7.62     1215.217     64.21953      114.731        11     1.619     1.004  28.60   0
        66     23.1779    878.8596 307.8967662  +6.2784240     1253.941     3070.635      4120.89     90.89276     182.1481     364.1876      2.525     8.34     1217.823     64.21953     220.7152        20     1.676     1.196  53.91   0
        67    872.2041    877.3122 307.5439747  +6.3075302     684.3345     998.0026     920.1343     90.74745     181.8581     363.9701      1.720     6.21     1212.737     64.21953     99.61023         7     1.071     1.011 -51.98   0
        68    996.3804    873.1912 307.4925034  +6.3133756      687.188     1474.819     1330.213     91.03784     181.9307     364.1151      1.973     4.38     1211.685     64.21953     86.78796         5     1.178     0.463  82.25   0
        69    566.6140    872.1818 307.6711508  +6.2994299     924.4631     2197.967     2479.502     91.03784     181.8581     364.2238      2.381     7.70     1218.181     64.21953     120.4678        16     2.062     0.805  17.12   2
        70    605.5797    869.0308 307.6550625  +6.3020358     979.1096     1869.415     1549.463     90.74745     182.0032     364.1876      1.810     6.73     1217.039     64.21953     131.8857        14     1.608     0.789  42.40   0
        71    285.5560    867.4831 307.7881132  +6.2919444     895.9088      1780.14      1869.31     91.32732     182.2206     364.2963      2.120     5.92     1222.951     64.21953     152.8563         8     1.097     0.898 -58.24   0
        72    889.3191    859.8803 307.5374448  +6.3153003     5061.049      10262.3     11131.79      91.4717     182.5101     364.5136      2.108     5.34     1211.364     64.21953     535.4828        39     1.741     1.286  48.37   0
        73    425.0499    858.6851 307.7304373  +6.3002589     1038.268     1994.886     2201.577     91.32731     182.2206     364.4412      1.724     5.75     1219.724     64.21953     188.6017        10     1.594     0.623 -17.56   3
        74    425.9698    855.8040 307.7301518  +6.3014795     1014.104     1902.221     2441.877     90.74745     182.0757     364.1151      2.770     7.07     1219.597     64.21953     183.2992        12     1.730     0.836 -10.58   2
        75    327.1377    855.7629 307.7712269  +6.2981804     5199.181     12571.06     14736.91     91.32731      182.293     364.3325      2.480     6.11     1222.565     64.21953     669.1022        56     2.101     1.550  41.83   0
        76    247.2593    854.8656 307.8044534  +6.2958684     3949.934     9386.427     10483.54      91.4717     182.1481     364.3687      2.406     5.93     1222.126     64.21953     453.9939        50     2.005     1.557  41.87   0
        77    575.7211    848.4022 307.6681639  +6.3095547     790.5876      1550.23     1794.816     90.60191     181.6403     364.0789      2.177     5.29      1216.72     64.21953     97.43884        10     1.343     0.588  54.33   0
        78    905.0173    844.2031 307.5314447  +6.3222984     770.5192     1389.016     1929.908     90.89276     181.7129     364.1514      2.339     5.33     1210.345     64.21953     108.9056         7     1.122     0.716  87.43   0
        79    741.3807    837.0911 307.5996933  +6.3197688     1065.967     2296.073     3654.277     91.18269     181.9307     364.1514      2.937     6.59     1213.081     64.21953     153.8616        12     1.207     1.011  36.05   0
        80    972.4870    833.3022 307.5037672  +6.3290514     918.4174     1770.842     2679.953     91.32732     182.7269     364.3687      2.144     5.77     1209.157     64.21953     107.6387        10     1.304     0.719  40.65   0
        81    659.9211    831.2442 307.6337452  +6.3194587     1637.856     3727.909     3697.498     91.32731     182.2206     364.3325      2.155     7.92     1214.441     64.21953     197.3892        29     1.705     1.294  51.31   0
        82     56.9150    828.1474 307.8844571  +6.3005006     1629.831     4015.938     4573.875     91.32731     182.1481     364.5136      2.499     6.10     1217.665     64.21953      249.649        34     1.742     1.425  64.25   0
        83    200.8790    826.8271 307.8246726  +6.3058881     1196.518     2682.128     2673.185     91.18269     182.1481     364.3325      2.224     8.01     1220.695     64.21953     159.7097        18     1.360     1.320 -39.31   0
        84     75.2081    827.0629 307.8768915  +6.3015641      1209.76     2589.252     3390.336     90.60191     181.9307     364.1151      2.488     4.61     1217.857     64.21953     183.3497        13     1.297     0.792  57.37   2
        85    654.6587    820.6551 307.6362874  +6.3236554     3963.631     9438.237     10551.72      91.4717     182.2206     364.3325      2.409     6.12     1214.026     64.21953     485.2627        49     1.989     1.495  46.36   0
        86    892.2327    816.8061 307.5376749  +6.3331855     1925.258         4089     4479.224     90.60191     182.0032     364.1151      2.160     7.12     1209.004     64.21953     192.9705        27     1.657     1.160  31.15   0
        87    337.7551    814.0283 307.7682184  +6.3157709     8202.365     21179.38      25349.3     90.89276      182.293     364.2238      2.574     6.24     1220.639     64.21953     1050.623        69     2.165     1.709  42.35   0
        88     28.2413    817.6266 307.8967282  +6.3038798     790.7296      1487.77     1823.621     90.89276     182.0032     364.1514      2.239     6.45     1217.344     64.21953     135.0768        10     1.258     0.927  47.52   0
        89    209.3507    813.8970 307.8215874  +6.3115122     663.3899      1371.93     753.0394     91.18269     182.1481     364.5136      2.001     5.58     1220.479     64.21953     113.1255         7     1.331     0.660 -79.25   0
        90     72.7557    813.6880 307.8783617  +6.3070046     778.8834     1437.461     1745.477     91.32732     182.0757     364.3687      1.740     4.53     1217.612     64.21953     139.7313         7     1.300     0.449  41.71   0
        91    101.9984    805.3720 307.8664894  +6.3114226     879.7305     2094.366     3077.734     90.74745     181.9307     364.0789      2.705     8.08     1217.646     64.21953     139.2847        11     1.494     1.223 -35.45   2
        92    882.1913    798.3490 307.5424659  +6.3404723     1314.206     2788.662     3580.373     90.74745     182.0757     363.9701      2.259     7.93     1208.212     64.21953     151.5465        21     1.433     1.227  11.78   0
        93    853.0755    797.9004 307.5545825  +6.3396853     1322.982     2694.697     2810.945     90.74745     182.3654     364.2238      2.056     5.89     1208.775     64.21953     180.5073        23     1.420     1.282  40.38   0
        94     84.5924    797.9916 307.8739720  +6.3138845     1553.195      3443.42     4171.711     90.60191     182.0032     364.1876      2.405     6.14     1217.382     64.21953     239.9973        23     1.501     1.179  48.60   0
        95    817.0427    797.3127 307.5695786  +6.3387244     1804.787     4158.163     4079.251     91.32731     182.0757     364.3687      2.275     6.47     1209.627     64.21953     225.2897        31     1.614     1.424  32.70   0
        96    552.7906    789.0405 307.6796866  +6.3333003     171186.8     437005.4     513982.3     90.60191     182.0032     364.0064      2.539     6.07     1214.239     64.21953     20628.69       178     2.272     1.863  40.39   0
        97    397.1177    791.7571 307.7442959  +6.3269599     4034.662     10178.37     12266.58     91.32731     182.2206     364.2963      2.568     6.11     1217.865     64.21953     507.6278        52     2.026     1.613  48.22   0
        98    340.2523    790.1692 307.7679832  +6.3257073      6351.42     16393.82     19042.28     91.18269     182.3654     364.2601      2.548     6.21     1219.506     64.21953     754.1364        65     2.142     1.691  33.46   0
        99    890.9840    784.9783 307.5392588  +6.3462874     3534.081      7483.14     8298.437     91.03784     181.9307     364.2601      2.227     5.24     1207.724     64.21953     363.1359        40     1.791     1.367  38.25   0
       100    657.0632    787.0632 307.6364146  +6.3376079      1092.93     2070.162     2599.188     91.32732     182.2206     364.3687      2.061     6.20     1212.149     64.21953     183.0831        14     1.736     0.622  35.17   3
       101    658.2927    784.9828 307.6359734  +6.3385081     1709.043     3177.426     4130.711     91.03784     182.0032     364.1514      2.224     8.03      1212.01     64.21953     234.8984        21     2.222     0.811  31.68   3
       102    632.9834    779.9714 307.6466607  +6.3397306     1689.075     3745.046     4815.055     90.89276     181.9307     364.2238      3.097     8.19     1211.788     64.21953     202.8601        31     2.062     1.319  19.60   0
       103   1023.2039    778.7487 307.4845106  +6.3532713     2657.588     3610.561     4045.953     85.19684     152.4913     282.5192      1.505     4.69     1205.087     64.21953     360.9128        14     1.255     0.739  78.88  24
       104    819.7367    778.2688 307.5690966  +6.3466787     782.4641     1648.042     1676.501     91.32732     182.2206      364.405      1.958     4.27     1208.843     64.21953     94.59412         7     0.973     0.534 -48.76   2
       105    626.6426    775.4012 307.6494495  +6.3414056     1034.014     3315.655     4802.551     90.60191     181.8581     363.9338      3.131     9.78      1211.47     64.21953     135.6802        20     2.216     1.204 -64.38   2
       106    320.6430    774.1349 307.7766725  +6.3316703     621.9583     1265.059     621.7194     91.32731     182.1481     364.3325      1.976     3.94     1219.406     64.21953     107.2526         6     1.035     0.430  77.02   0
       107    909.7664    772.6111 307.5318658  +6.3520216     1926.329     3886.282      4012.68     90.74745     181.9307     364.1514      2.098     5.81     1207.138     64.21953      222.064        26     1.542     1.201  31.62   0
       108    369.0169    768.3657 307.7567616  +6.3356764     1275.732     3251.728     4098.037     90.89276     182.0032     364.1514      2.804     8.23     1217.792     64.21953     159.3025        21     1.756     1.386  49.86   2
       109    504.3671    758.5728 307.7008359  +6.3442595     1494.753     3794.805     3526.538     90.74745     181.9307     364.0789      2.384    10.02     1213.627     64.21953     177.9998        32     1.927     1.451  37.86   0
       110    551.3075    754.8552 307.6814508  +6.3473675     3010.121     7899.345     10684.59     91.18269     182.1481     364.5136      2.880     6.47     1212.504     64.21953      418.769        53     2.134     1.621  25.04   2
       111    886.8080    753.0615 307.5420624  +6.3593284      745.746     1625.478     1168.841     90.60191     182.0032     364.0789      2.091     5.87     1206.924     64.21953     85.83887         9     1.280     0.758  61.04   0
       112    469.3896    753.0378 307.7155595  +6.3453728     761.2833     1731.968     1754.393     90.60191     182.0032     363.9701      2.625     6.86     1214.114     64.21953     104.3475        10     1.460     0.904  24.67   0
       113    521.8628    748.7884 307.6938927  +6.3488863     9729.065     25591.54     30157.18     90.74745     182.0032     364.0789      2.586     6.23     1212.757     64.21953     1135.108        73     2.158     1.743  41.83   0
       114    110.7740    752.2742 307.8646327  +6.3336439     617.6746     1415.683     1100.419     90.89276     182.0757     364.2963      2.066     3.42     1217.304     64.21953     105.9045         5     1.209     0.280  34.44   0
       115    935.4174    746.8043 307.5220672  +6.3635349     2441.267     5193.937     4885.479     90.89276     181.7855     364.1514      2.089     5.67     1206.062     64.21953     277.4192        33     1.703     1.297  29.80   0
       116    314.3992    737.2111 307.7805101  +6.3467081     1587.861     3959.608     4723.529     90.89276     181.8581     364.1151      2.640     8.56     1217.736     64.21953      188.557        31     1.934     1.479  15.58   0
       117    779.9307    733.1560 307.5871526  +6.3639783     31098.53     73477.39     84006.91     91.32731     182.1481     364.3687      2.405     5.74     1207.186     64.21953     3253.857        91     2.099     1.697  40.26   0
       118     15.3182    735.3550 307.9048754  +6.3374175      1213.98     2384.865     2160.109     91.32732     182.2206     364.2963      2.200     5.52     1217.142     64.21953     161.1785        12     1.146     0.979 -65.41   0
       119    237.2388    731.5336 307.8127710  +6.3464608     2583.596     7590.196     11381.01     91.18269     182.1481     364.4412      3.485     7.69      1217.77     64.21953     360.1647        59     2.310     1.771  55.69   1
       120    703.1556    724.9706 307.6193387  +6.3647914     40054.77     111299.6     160233.6     90.89276      182.293     364.1514      3.126     9.32     1207.255     64.21953     4901.259       161     3.561     1.788  31.25   0
       121    905.0534    728.3569 307.5353052  +6.3701395     5538.421     11775.19     13173.14     91.32731     182.2206     364.3325      2.260     5.59     1205.544     64.21953        568.3        52     1.985     1.425  45.19   3
       122    902.0248    719.5964 307.5368572  +6.3736562      4143.65     9171.255     9777.601     90.89276     181.8581     364.1514      2.254     5.62     1204.921     64.21953     441.5778        44     1.899     1.382  40.73   3
       123    346.9939    725.3784 307.7673609  +6.3526887     9777.094     25657.84     30875.96     90.89276     181.9307     364.1151      2.664     6.37     1216.123     64.21953     1209.879        76     2.275     1.760  34.92   0
       124    408.8475    723.2000 307.7417258  +6.3556639     10434.83     27842.15      33496.8     90.45612     181.7855     363.7888      2.619     6.26      1214.95     64.21953     1190.185        80     2.180     1.837  39.99   0
       125    236.8352    709.9854 307.8136644  +6.3553454     751400.6      2451410      3134266     90.89276     181.9307     364.1514      2.946     8.59      1216.06     64.21953     62923.71       496     2.691     2.182  44.65   4
       126    945.7579    721.3155 307.5186215  +6.3744059     1420.917     3221.253     4244.158     91.32732     182.0757     364.2601      2.610     7.27     1204.206     64.21953     174.5527        26     1.797     1.110  47.24   0
       127    642.6781    719.0989 307.6446732  +6.3651927     3194.758     8397.212     9940.718     90.89276     182.5101     364.3687      2.611     6.52     1207.594     64.21953     370.8535        50     2.027     1.627  44.39   0
       128    432.0293    716.5698 307.7323134  +6.3591795     887.8685      2124.74     2613.477     90.74745     181.9307     364.0426      2.649     8.26     1213.686     64.21953     111.1641        16     1.671     1.140  -0.78   0
       129    676.7905    710.2509 307.6307910  +6.3699881     992.6979     2820.796     3574.556     90.74745     182.0757     363.9701      3.229     9.29     1206.688     64.21953     140.1433        18     2.275     1.058  -6.34   2
       130    411.7425    705.9103 307.7411038  +6.3629008     24964.17     67550.91     81955.27     91.18269     182.1481     364.4774      2.666     6.42     1213.489     64.21953     2896.684       101     2.267     1.885  39.32   0
       131    529.4391    704.8724 307.6922185  +6.3672754     3547.343     9202.036     10897.21     91.18269     182.2206      364.405      2.629     6.58     1209.983     64.21953     391.7793        56     2.137     1.673  38.21   0
       132    146.8476    708.2202 307.8511252  +6.3530490     519.6506     1026.011     1308.255     90.89276     182.2206     364.1151      1.609     3.79     1214.968     64.21953     87.26135         5     1.190     0.346  11.54   0
       133    446.3378    703.2054 307.7268154  +6.3651781     2037.227     5909.421     8509.072     90.60191     181.9307     364.1151      3.187    10.02     1212.175     64.21953     245.5469        55     2.505     1.875  50.67   2
       134    443.1573    696.4387 307.7283648  +6.3678658     1052.461     2187.399     2801.073     91.03784     182.2206     364.1876      2.493     7.28     1211.803     64.21953     131.5731        15     1.626     0.913 -40.12   3
       135    774.5328    701.2643 307.5904647  +6.3769678     6601.986     15523.66     17182.31     91.32732     182.2206      364.405      2.398     5.54     1204.228     64.21953     729.6335        56     1.993     1.573  38.23   0
       136    795.5815    695.6409 307.5819038  +6.3799935     715.4353     1451.764      1372.69     90.89276     182.0032     364.0789      2.252     6.36     1203.633     64.21953     102.7501         8     1.279     0.889  62.27   0
       137    125.3973    683.7557 307.8608653  +6.3624299      1116.12     2004.583     3029.498     90.60191     181.7129     363.9338      2.514     4.62     1212.964     64.21953      162.869        11     1.088     0.884 -33.87   3
       138    131.9179    693.4316 307.8578289  +6.3586537     5500.114     15076.98      22146.1     91.18269     182.0757     364.2963      3.586    10.35     1213.702     64.21953      726.964       112     4.097     1.853  26.26   2
       139    141.0210    693.6115 307.8540394  +6.3588856     1608.335      3779.59     4969.195     90.89276     181.8581     364.1876      2.660     9.20       1213.8     64.21953     197.3649        27     1.809     1.374  51.39   3
       140    920.0156    689.8396 307.5303746  +6.3865451     4124.476     8847.734     9523.646     90.89276     182.0032     364.0426      2.246     5.14     1202.281     64.21953     459.2892        44     1.773     1.451  42.68   0
       141    968.8397    689.7578 307.5100824  +6.3882081     885.9685     2281.286     3103.093     91.03784     182.2206     364.1876      2.630     8.73     1201.316     64.21953     108.6809        17     1.618     1.314  33.24   0
       142    675.3638    687.5244 307.6321462  +6.3793254     1142.201     2329.003     3170.618     91.18269      182.293     364.3687      2.475     6.90     1205.112     64.21953     141.1053        14     1.297     1.029 -44.39   0
       143    563.0872    685.9424 307.6788682  +6.3762198     1119.135     2964.352     3688.033     91.32732     182.2206     364.4774      2.655     7.94     1207.572     64.21953     151.6285        17     2.126     0.830  12.23   2
       144    409.6277    686.9712 307.7426196  +6.3706507      501.084     1438.166      1867.53     90.74745     182.0032     364.1151      2.683     4.87     1211.952     64.21953     80.47827         5     1.453     0.463 -84.25   0
       145    943.4492    681.2246 307.5209220  +6.3908849      1877.74      4208.72     4782.443     90.89276      182.293     364.2238      2.290     6.19     1201.188     64.21953      238.876        30     1.675     1.334  60.89   0
       146    974.4105    681.1284 307.5080553  +6.3919576     1210.468     2558.695     2987.098     90.74745     181.7855     364.1514      2.119     7.52     1200.575     64.21953     148.4875        20     1.585     1.165  41.02   0
       147    666.7139    680.8440 307.6359657  +6.3817946     889.3395     1956.991     2951.385     91.32731     182.0757     364.3325      3.012     6.44     1204.727     64.21953     102.9215        10     1.301     0.896 -84.06   0
       148    239.9602    675.6530 307.8135219  +6.3696278     831.0424     2029.441     3150.403     91.18269     182.2206     364.2963      2.760     5.82     1213.419     64.21953     112.3807        11     1.714     0.556  51.84   0
       149    958.6295    669.2457 307.5150125  +6.3963382     1532.299     3498.197     4518.036     90.74745      182.293     364.1876      2.459     7.58     1200.048     64.21953     199.7961        24     1.616     1.270  45.46   0
       150    914.0966    681.8091 307.5331036  +6.3896638     1771.748     3984.053     4658.475     91.03784     181.7855     364.1151      2.252     6.62     1201.686     64.21953     183.4438        31     1.715     1.357  39.49   0
       151   1000.0414    662.2705 307.4980314  +6.4006001     1086.583     2238.052     2128.733     91.18269     182.2206      364.405      2.113     6.57     1198.977     64.21953     153.2509        15     1.321     0.918  28.06   0
       152    887.9081    658.0734 307.5447839  +6.3985915     1044.741     1968.236     1676.482     91.32732     182.3654     364.3687      2.140     7.34     1200.345     64.21953     113.4083        15     1.463     1.031  26.78   0
       153     44.7422    648.9289 307.8955631  +6.3740966     1184.739     2938.191     3927.357      91.4717     182.2206     364.2963      2.935     8.69     1211.843     64.21953     176.6495        22     2.044     1.262  46.90   0
       154    844.1885    649.3332 307.5632499  +6.4007408     1083.382     1834.312     1918.188     90.74745     182.0032     364.1876      1.796     6.03     1200.158     64.21953     115.8188        13     1.246     0.820  61.97   0
       155    656.5747    637.2131 307.6416437  +6.3994729     3036.407     7773.093     8752.457     91.03784     182.0032     364.2601      2.530     6.44     1202.624     64.21953     305.9578        50     2.025     1.588  27.29   0
       156    604.2088    636.3456 307.6634402  +6.3980782      718.754     1670.437     2571.825     90.60191     182.1481     364.0064      2.094     3.40      1203.31     64.21953     119.9078         5     1.133     0.296 -55.01   0
       157    119.6869    633.4195 307.8649362  +6.3830235     1869.844     4571.687      4960.26     91.03784     181.9307     364.1876      2.472     7.22     1210.967     64.21953     220.4033        36     1.782     1.510  61.33   0
       158    629.2465    634.6823 307.6530884  +6.3996033     771.5337     1471.969     2436.076     91.32732     182.2206     364.3325      2.088     4.86     1202.848     64.21953     122.9216         6     1.361     0.492  27.13   0
       159    993.5616    632.3445 307.5017254  +6.4127423     1622.614     3690.088      4343.05     91.32732      182.293     364.3687      2.343     6.26     1197.489     64.21953     220.9462        31     1.766     1.280  44.81   0
       160    773.5380    629.4119 307.5932856  +6.4066066     10522.14     26602.38     30930.04     90.74745     182.0032     364.0789      2.516     6.00     1199.618     64.21953     1159.393        69     2.081     1.694  43.20   0
       161    903.3972    628.9677 307.5393193  +6.4111281     2211.292     5204.705     5947.902     90.45612     182.0032     364.0789      2.315     6.60     1198.477     64.21953     240.1929        36     1.855     1.376  46.75   0
       162    631.4598    632.4444 307.6522434  +6.4006016      836.398     1693.704     2084.103     91.18269     182.1481     364.4774      1.977     3.75     1202.683     64.21953      101.922         6     0.974     0.415  18.05   0
       163    247.3058    623.3745 307.8122296  +6.3914627      2737.25     7610.887     9551.104      91.4717     181.9307     364.1514      2.819     6.91      1209.15     64.21953     334.9603        54     2.076     1.799  47.50   0
       164    654.0295    622.3119 307.6432016  +6.4055413     3328.104     8877.765     10221.06      91.4717     181.9307     364.1876      2.608     6.71     1201.965     64.21953     326.3606        52     2.037     1.679  45.83   0
       165    725.5214    610.6005 307.6138760  +6.4127694     1960.166     4883.969     5844.087     90.45613     181.4949     364.0789      2.581     6.57     1199.763     64.21953     209.1292        38     1.732     1.545  20.52   0
       166    992.0911    607.1464 307.5031792  +6.4230992     5682.285      12342.7     14152.54     91.18269     182.0032     364.4774      2.274     5.58     1196.142     64.21953     617.0302        51     1.969     1.421  40.36   0
       167    930.3760    607.1683 307.5288336  +6.4210310     1460.537     3247.699     2907.761     90.60191     182.0032     364.1151      2.317     8.19     1196.673     64.21953     166.7957        23     1.564     1.198  22.18   0
       168     12.4333    606.7372 307.9104161  +6.3904310     1066.176     2209.468     3601.784     91.18269      182.293     364.2963      2.891     6.08     1210.292     64.21953     190.2267        11     1.658     0.692  14.46   2
       169    530.3132    603.2109 307.6952696  +6.4092860     963.1074     2529.125      2897.18     90.89276     181.9307     364.1514      2.460     8.50      1204.09     64.21953      114.276        21     1.698     1.189 -58.08   0
       170     69.6533    602.4354 307.8867778  +6.3941342     11854.92     32141.95     39470.96     91.18269     182.2206     364.3687      2.729     6.42     1210.021     64.21953     1654.016        79     2.315     1.793  43.74   0
       171    500.3121    599.2004 307.7078753  +6.4099366      694.895     1520.152     1845.704     90.45612     181.6403     363.9701      2.368     5.86     1204.816     64.21953      88.5481         6     1.183     0.818  24.99   0
       172    920.6104    597.6417 307.5332119  +6.4246391      662.783     1356.287     2027.092     90.60191     182.0032     364.0426      1.805     3.48     1196.309     64.21953     111.3418         5     1.053     0.333 -20.22   0
       173    715.5549    594.3185 307.6185649  +6.4191598     1661.632     4384.104     5075.439     91.32732     182.2206     364.2963      2.528     7.18     1198.995     64.21953     188.7229        37     1.770     1.574  22.31   0
       174    737.2612    592.3912 307.6096062  +6.4206817     2051.413     5098.098     6079.132     90.60191     182.0757     364.0426      2.499     6.11     1198.293     64.21953     256.7101        42     1.819     1.623  43.48   0
       175    567.9778    592.4631 307.6799739  +6.4149862     876.6206     1406.945     2234.317     90.89276     182.2206     364.1876      1.764     5.13     1201.718     64.21953     140.4419         8     1.658     0.449  57.89   3
       176    569.4102    589.4927 307.6794782  +6.4162608      1351.78     2873.371     4094.957     90.89276     181.7855     364.1151      2.457     8.51     1201.409     64.21953     174.1036        24     1.958     1.170  35.90   2
       177   1010.2193    588.4917 307.4962669  +6.4314075     3460.807     7008.701     6800.899     91.18269     181.9307     364.1514      2.053     5.53     1194.515     64.21953     341.1394        34     1.810     1.200  47.63   0
       178    314.1589    589.6140 307.7855777  +6.4076497     721.5538     1596.099     1810.336     90.74745     182.0032     364.0426      2.286     6.97     1205.917     64.21953     126.7717         8     1.399     1.011 -57.00   0
       179    975.6121    587.3459 307.5106917  +6.4307263     5005.979     11317.34     12349.18     90.60191     182.1481     364.0064      2.269     5.58     1194.893     64.21953     592.6932        47     1.924     1.391  40.14   0
       180    230.2112    588.8998 307.8204965  +6.4051242     699.2805     1377.797     1864.992     91.03784     181.7855     364.0789      1.951     4.45     1206.617     64.21953      108.921         7     1.408     0.400  34.08   0
       181    134.3903    581.3558 307.8605803  +6.4050174      10640.7      29846.5     36540.31     90.74745     182.0757     364.0064      2.743     6.60     1208.636     64.21953     1403.433        84     2.284     1.876  44.79   0
       182    420.4149    583.9858 307.7415986  +6.4135403     959.9946     1798.612     2460.708     91.03784     181.8581     364.2601      2.456     7.56     1204.795     64.21953     124.5494        12     2.118     0.755  29.38   3
       183    422.1729    581.1189 307.7409643  +6.4147831     1217.421     2455.828     3444.957     91.18269     182.0032     364.3687      2.554     5.61     1204.429     64.21953     192.5582        17     1.641     0.752  21.24   2
       184    802.2395    581.2291 307.5829687  +6.4274634      746.032     1424.045     2004.654     90.74745     181.9307     364.1876      2.200     5.92     1196.455     64.21953     100.5626         9     1.139     0.867 -45.23   0
       185    970.4694    570.3936 307.5133966  +6.4375554     4393.734     10058.64     11962.07     90.74745     181.7129     364.1514      2.404     5.82     1193.819     64.21953     428.6033        56     2.082     1.551  43.88   0
       186    564.2419    565.9028 307.6824187  +6.4258292      20973.7     59563.98     73861.74     91.32731     182.0757      364.586      2.759     6.88     1199.324     64.21953      2385.92       100     2.306     1.941  37.07   0
       187   1023.5129    564.7889 307.4915328  +6.4416391     25634.39     34484.03     35938.04       81.232     147.3863     276.7139      1.347     4.88      1192.47     64.21953     4936.756        34     1.597     0.710 -89.05  24
       188    172.1510    562.7179 307.8455127  +6.4139838     1215.028     3015.526     3534.234     91.32731     182.2206     364.3687      2.577     6.67     1207.014     64.21953     153.2131        22     1.513     1.468  77.49   0
       189    461.4773    549.7804 307.7256794  +6.4290426     26401.31     77010.02     96826.88     90.89276     181.9307     364.2963      2.821     7.01     1200.832     64.21953     3062.134       112     2.391     1.988  37.82   0
       190      4.7495    549.9999 307.9155256  +6.4136010     701.2543     1511.619     2034.669     90.45612     181.6403     329.8059      2.519     4.90     1210.426     64.21953     119.1519         9     1.390     0.489  38.41  18
       191    135.4352    547.1660 307.8612989  +6.4191708     634.3945     1294.535     2212.588     91.03784     181.9307     364.0426      3.330     4.48     1206.608     64.21953     124.1344         6     1.069     0.648  41.83   0
       192    136.8747    543.8605 307.8608120  +6.4205842     678.3289     1371.398     2285.115     91.61587     182.2206     364.3325      2.966     4.84     1206.423     64.21953      85.7887         7     1.273     0.522  17.05   0
       193    307.5461    537.5694 307.7900785  +6.4289191     827.6055       2005.7     3074.183     91.18269      182.293     364.2238      2.585     5.81     1200.965     64.21953     135.3616         9     1.653     0.576  25.82   2
       194    733.6251    533.3185 307.6130981  +6.4449546     2463.725      6868.07     8462.837     91.03784     181.9307     364.2963      2.703     7.97     1194.898     64.21953     236.4902        47     2.044     1.634  24.39   0
       195    786.9993    528.3643 307.5910754  +6.4487850      6775.82     17533.89     20882.63     90.31011     182.0032     364.1151      2.567     6.16     1193.708     64.21953     714.8391        64     2.138     1.687  40.69   0
       196    611.2317    526.3254 307.6642135  +6.4437466     1246.182     3717.184     4062.683     91.18269      182.293     364.2963      2.699    10.03     1195.854     64.21953     170.0453        27     1.832     1.533  49.04   0
       197    927.6458    522.1335 307.5328137  +6.4560559     797.9474     1757.803     2182.586     91.32731     182.1481     364.3687      2.460     6.05     1191.106     64.21953     106.7789         8     1.502     0.686  88.90   0
       198    863.1135    512.2257 307.5599733  +6.4579927     1642.272     3677.406     4689.875      91.4717     182.0032     364.1876      2.431     8.58      1191.06     64.21953      191.689        24     1.689     1.226   9.32   2
       199    861.9987    509.6688 307.5605224  +6.4590114     879.0945     1475.024     3065.269     90.89276     181.7129     364.1514      2.096     4.21     1190.909     64.21953     145.6455         5     1.144     0.441 -17.20   3
       200    821.4978    509.2360 307.5773743  +6.4578371     1343.177     3322.773     3900.082     91.32732     182.0757     364.5136      2.472     8.49     1192.007     64.21953     144.3248        24     1.433     1.405  62.94   0
       201    248.6827    506.3172 307.8156002  +6.4398469     2150.938     3339.368     3832.601     91.03784     182.5101     364.4412      1.729     5.78     1199.644     64.21953     300.0553        17     1.575     0.734  35.20   3
       202    250.6614    503.3361 307.8148781  +6.4411444     3320.465     7252.603     8916.348     91.32732     182.2206     364.3687      2.456     7.16     1199.338     64.21953     418.0615        47     2.514     1.321  35.96   3
       203    792.5837    504.7401 307.5895454  +6.4587274     1340.519     3508.793     4754.421     90.74745     182.1481     364.0426      2.854     8.73     1192.575     64.21953     157.5381        23     1.673     1.272  82.07   2
       204    802.3898    500.2653 307.5856186  +6.4609031     75745.64     203100.5     242028.4     90.74745     182.0032     364.1876      2.627     6.39     1192.145     64.21953     7627.695       133     2.273     1.879  40.42   0
       205    184.2090    498.9574 307.8426498  +6.4407186     23743.69      70661.4      90753.2     90.74745     182.0032     364.0426      2.886     7.10     1202.234     64.21953     3079.667       111     2.413     2.026  42.56   0
       206    108.2658    495.4309 307.8743378  +6.4396200     2654.245     7624.212     9443.793     91.03784      182.293     364.2601      2.815     7.77      1204.05     64.21953     341.1586        54     2.106     1.794  36.02   0
       207    973.3614    491.7933 307.5148231  +6.4701108     686.9095     1577.253     1772.006     90.45612     181.8581     364.0064      1.996     4.78     1187.802     64.21953      111.472         6     1.389     0.467 -85.02   0
       208    838.8011    487.4988 307.5709088  +6.4673918     2209.777     5738.906     6588.428     90.74745     181.7855     364.0064      2.454     6.52     1189.894     64.21953     249.1123        42     1.858     1.553  54.53   0
       209    356.4797    487.5157 307.7714215  +6.4512317     5751.166     10710.92     12012.38     91.18269     182.5824     364.4412      1.973     5.02      1196.71     64.21953     663.2212        27     1.750     0.979  34.40   3
       210    358.1859    484.7308 307.7708060  +6.4524390     6774.567     13788.38     17942.83     90.74745     182.1481     364.2238      2.492     7.49     1196.469     64.21953     809.1779        53     2.633     1.243  34.42   3
       211    160.8716    484.2591 307.8528466  +6.4460032     856.2947     2070.048     3234.352      91.4717     182.2206     364.3325      2.263     6.92     1202.687     64.21953     107.2123        13     1.873     0.716  31.29   0
       212    792.7513    480.8255 307.5902771  +6.4686088     2899.117      7389.22      8681.51     90.89276      182.293     364.2238      2.521     6.26     1191.512     64.21953     326.8982        49     2.027     1.571  41.76   0
       213    522.6606    482.3222 307.7025118  +6.4589507     2023.028     3564.134     4392.149      91.4717      182.293     364.2963      1.951     5.38      1193.99     64.21953      232.136        21     1.627     0.869  38.27   3
       214    524.5723    479.7041 307.7018051  +6.4600959     2522.685     5659.262     7723.324      91.4717     181.9307     364.2601      2.801     8.23     1193.755     64.21953     266.2531        40     2.480     1.153  32.14   3
       215    383.0889    477.8469 307.7606851  +6.4561176     618.1255     1369.548     1701.206     91.32731     182.0757     364.5136      2.613     4.32     1195.806     64.21953     96.74158         5     1.061     0.501  52.72   0
       216    170.8358    474.1984 307.8490436  +6.4504928     2637.514     7741.365     9862.153     90.31011     182.0032     364.1151      2.854     7.32     1201.341     64.21953     327.9379        59     2.189     1.854  53.59   0
       217     42.6320    472.9662 307.9023794  +6.4466868      2171.46     6184.524     7365.513     90.74745     181.9307     364.0426      2.702     7.81     1203.967     64.21953     284.4752        50     2.211     1.752  38.94   0
       218    568.5812    474.7871 307.6836746  +6.4636010     1111.999     2875.023     4039.429     91.03784     181.9307     364.2238      2.781     7.35     1192.521     64.21953     125.1467        15     1.637     0.924  26.10   2
       219    266.1708    470.5908 307.8095338  +6.4551876     33971.17     103058.4     134635.7     90.74745     182.0032     364.1151      2.940     7.29     1196.443     64.21953     4044.855       124     2.484     2.061  40.35   0
       220    810.0155    472.9771 307.5833626  +6.4724268     719.0381     1346.263     1760.275     91.03784     182.0032     364.2238      1.981     5.35     1190.425     64.21953     84.04822         7     1.082     0.746  -0.95   0
       221    789.0502    462.6288 307.5924255  +6.4759995       7840.3     20367.56      24224.6     90.89276     182.3654     364.2238      2.583     6.36     1190.401     64.21953     832.2068        65     2.085     1.717  41.13   0
       222    491.8079    462.6145 307.7160004  +6.4660548     14542.53     30459.83     36599.23     90.89276     181.9307     364.1514      2.277     6.00     1193.618     64.21953     1698.933        44     2.122     1.124  30.81   3
       223    493.5895    459.9247 307.7153501  +6.4672253     16447.52     35045.67     44625.13     90.89276     181.7855     364.1151      2.433     7.21     1193.266     64.21953     1714.831        68     2.685     1.225  30.28   3
       224    965.9677    463.7779 307.5188341  +6.4814334     838.7617      1923.09     2003.797     90.74745     182.0032     364.1151      2.186     5.86     1186.043     64.21953     114.7646        10     1.715     0.564 -24.60   0
       225    204.3201    459.6526 307.8356143  +6.4576254     634.5942     1603.068     2386.008     91.32732     182.2206     364.3325      3.161     6.84      1198.54     64.21953     102.6716         6     1.887     0.695   9.33   2
       226    205.7160    456.7504 307.8351318  +6.4588708     852.7051     1977.018      2948.01     91.32732     182.2206     364.4412      2.943     6.37     1198.266     64.21953      155.392         9     1.529     0.745  25.55   2
       227    652.0754    458.3155 307.6495162  +6.4731990     1069.659     1986.005     3343.396      91.4717     182.5824      364.405      3.454     7.14     1190.574     64.21953     140.2815        13     1.355     1.053  11.40   3
       228    654.9775    455.9775 307.6483881  +6.4742616     1032.641     2182.515     4338.838     91.03784     182.1481     364.3325      4.111    10.17     1190.392     64.21953     143.7402        18     2.804     1.029  41.85   2
       229     41.7376    456.6086 307.9033034  +6.4534113     726.4713     1297.573     1399.386     90.60191     181.9307     364.1151      2.182     4.50     1203.477     64.21953     100.8741         7     1.049     0.550  61.57   0
       230    392.2386    451.7970 307.7577578  +6.4671819     765.9245     1660.394     2173.771     90.31011     181.9307     364.0426      2.352     5.47     1193.655     64.21953     106.5883         7     1.442     0.585  53.04   0
       231    321.4091    451.8010 307.7872031  +6.4648023     1361.567     2557.167     4064.378     90.60191     181.8581     364.0789      2.615     4.73     1194.121     64.21953     164.2179        15     1.296     0.897  53.44   3
       232    322.9799    449.2845 307.7866348  +6.4658942     1512.964     3509.576     5223.746     90.89276     181.8581     364.2601      3.165     9.17      1193.89     64.21953     196.5576        28     2.315     1.148  35.40   2
       233    137.2141    448.9602 307.8638715  +6.4597836     10544.06     31065.03     39325.55     90.74745     182.0032     364.0426      2.833     6.96     1200.655     64.21953     1358.614        88     2.340     1.940  42.59   0
       234    502.0638    449.9005 307.7121640  +6.4716488     926.0186     2554.568     3198.793     91.32732      182.293     364.3687      3.004     5.99     1192.123     64.21953     135.4319        14     1.746     1.088 -19.15   0
       235    866.4974    450.2604 307.5606413  +6.4836949     679.3538     1736.862     2839.279     91.03784     182.2206     364.4412      2.494     5.48     1187.604     64.21953     102.4418         7     1.527     0.554 -25.77   2
       236    102.2478    449.8256 307.8783780  +6.4582496       739.51     1332.008     2431.553     90.89276      182.293     364.2238      3.007     5.80     1201.718     64.21953     106.8043        10     1.734     0.546  56.01   2
       237    103.5100    446.4732 307.8779664  +6.4596763     1171.904     2368.452     3206.437     91.32732     182.5101     364.3687      2.293     6.52     1201.437     64.21953     183.1591        14     1.988     0.601  37.64   2
       238    962.6453    443.1022 307.5209070  +6.4898608     2894.988     6685.036     7650.556     91.32731     182.0757     364.5498      2.374     6.88     1184.941     64.21953     293.4958        37     1.852     1.367  40.14   0
       239      2.7396    433.7121 307.9202880  +6.4615524     10420.48     24429.57     27221.26     91.18269      166.872     299.5247      2.283     7.67     1203.982     64.21953     1379.865        50     2.094     1.393  77.60  24
       240    432.9970    431.5107 307.7414956  +6.4769267     13389.33     25912.01     29191.75     90.60191     181.8581     363.9701      2.061     5.85     1191.525     64.21953     1648.857        40     2.090     0.976  39.08   3
       241    434.7753    428.8804 307.7408447  +6.4780725     16331.01     35262.08     44113.52     91.03784     182.0032     364.2963      2.452     7.17     1191.224     64.21953      1947.29        63     2.578     1.207  35.23   3
       242    642.0420    429.4456 307.6546563  +6.4847850     5163.649     14458.34     18376.76     91.18269     182.2206     364.1514      2.805     7.00     1189.011     64.21953     548.5308        70     2.198     1.875  43.92   0
       243    199.3844    427.7189 307.8387425  +6.4706462     7849.953     23736.61     31310.08     90.89276     181.9307     364.1876      2.931     7.34     1196.913     64.21953     946.0869        82     2.411     1.945  45.05   0
       244    563.1930    424.5013 307.6876035  +6.4841861     1212.768     3057.299     4416.971     91.03784     181.7855     364.1151      3.003    11.68      1189.58     64.21953     135.1589        24     2.240     1.696  37.49   2
       245    937.6683    423.1562 307.5319588  +6.4972641     2546.531     6075.724     6579.899     91.32731     182.1481     364.3687      2.325     6.36     1184.961     64.21953     274.8987        42     1.892     1.482  24.03   0
       246    610.0096    423.5258 307.6681724  +6.4861571     2293.765     4081.326     5145.244     90.89276     181.7855     364.1876      1.907     5.80     1189.345     64.21953     277.7604        20     1.693     0.827  36.01   3
       247    611.8157    420.8700 307.6675107  +6.4873143     2536.734     5569.799      7036.46     90.74745     182.1481     364.2238      2.423     7.32     1189.122     64.21953      293.802        35     2.278     1.062  31.50   3
       248    960.1000    415.6835 307.5228825  +6.5010986     1892.476     4445.082     4637.029     91.32731     182.7991     364.4412      2.322     6.91     1183.561     64.21953     210.5055        32     1.750     1.420  38.85   0
       249    522.2365    415.2349 307.7049423  +6.4866402     2348.825     4369.381     5319.805     91.03784     181.9307     364.0426      2.129     7.99     1188.961     64.21953     332.1171        25     2.225     0.962  55.01   3
       250    523.5240    412.0089 307.7045154  +6.4880155     2842.057     6358.089     8225.351     90.89276     181.6403     364.1151      2.602     7.23      1188.64     64.21953     353.0101        36     2.336     1.115  46.57   3
       251    369.2322    413.3315 307.7686165  +6.4822939     981.1038     2942.816     3455.762     91.18269     182.2206     364.3325      2.752     8.75      1190.79     64.21953     155.5037        24     1.762     1.681  -4.90   0
       252    878.2997    409.9256 307.5570850  +6.5007457      1350.67     2470.814     3984.438     90.74745     182.3654     364.2238      2.262     5.89     1186.116     64.21953     182.5199        12     1.826     0.534  67.23   3
       253    879.7949    407.8705 307.5565322  +6.5016443     1515.838     3198.107     4672.853     90.74745     181.7855     364.1876      2.779     7.22     1185.904     64.21953     212.3219        18     1.721     0.966  52.85   2
       254    925.7014    402.3589 307.5376302  +6.5054531     697.3436     1602.121     1299.774     91.32732     182.0757      364.586      2.098     7.73     1184.014     64.21953     93.29468         9     1.500     1.114  58.92   0
       255    886.7897    403.1089 307.5537834  +6.5038442      1108.26     2539.775     2984.831     91.03784     181.7855     364.0789      2.338     8.34     1185.307     64.21953     126.7676        21     1.627     1.195   6.58   0
       256    710.8579    399.1677 307.6270616  +6.4995914     1359.795     3918.722     4705.846     91.18269      182.293     364.2601      2.782     9.08     1186.245     64.21953     156.0172        34     1.825     1.579  33.24   0
       257    380.6716    399.3495 307.7643312  +6.4884517     1111.448     1868.798     2778.299     91.32732     182.2206     364.3687      2.218     5.59     1189.549     64.21953      151.928        11     1.398     0.631  49.27   3
       258    383.1758    396.8910 307.7633728  +6.4895509     1411.427     3104.012     4215.025      91.4717     182.0032     364.1514      3.421     8.47     1189.358     64.21953     203.5062        23     2.262     1.084  40.81   2
       259     72.6953    398.4269 307.8923979  +6.4784790     743.6447     2112.797     2341.295      91.4717     181.9307     364.1876      2.616     7.23     1200.312     64.21953     111.4142        11     1.870     0.783 -66.15   0
       260    608.3386    395.6513 307.6698030  +6.4976120     3498.229      6783.44     8823.914     91.32732     182.1481     364.3325      2.097     5.98     1186.855     64.21953     405.0808        25     1.856     0.883  35.03   3
       261    610.2742    393.2214 307.6690798  +6.4986802     3761.964     8143.964      10770.6     90.89276     182.0757     364.2601      2.537     7.56     1186.544     64.21953     428.9252        40     2.362     1.091  30.42   3
       262    772.3226    390.4891 307.6017978  +6.5052309     7281.034     20156.57     25648.64     91.32732     182.5101      364.405      2.787     6.73     1185.416     64.21953     714.0485        77     2.182     1.929  50.44   0
       263    293.2392    390.9812 307.8009621  +6.4889712     1067.299     2894.181     3271.847     90.89276     182.0032     364.0426      2.729     7.34     1190.442     64.21953     124.2443        16     1.481     1.018  40.95   2
       264    375.2748    386.1438 307.7670193  +6.4937237     795.3642     1826.603      2247.03     91.18269     182.1481     364.2601      2.568     6.71     1188.667     64.21953     88.63574        11     1.580     0.798  33.71   2
       265    956.5070    386.9760 307.5253369  +6.5128338     911.7686     1267.439     1676.819      91.4717     181.9307     364.1514      1.447     5.90     1181.479     64.21953     125.2063        12     1.574     0.622  50.12   3
       266    957.0916    384.1126 307.5251896  +6.5140358      757.834     1526.032     1719.976     91.32732     182.7269     364.4412      2.076     5.57     1181.249     64.21953     117.1582        11     1.793     0.488  37.21   3
       267    800.3777    385.6222 307.5902965  +6.5081785     688.6661     1104.714     1404.511     91.03784     182.0032     364.3325      1.946     4.00      1185.03     64.21953     103.1584         6     1.089     0.690  21.64   0
       268    109.3444    384.0269 307.8776479  +6.4856591     1671.955      3801.03     4799.805     90.89276      182.293     364.1151      2.505     7.58     1198.389     64.21953     169.7385        23     1.756     1.063  43.98   3
       269    110.6279    381.4207 307.8772022  +6.4867785      1574.93      3332.84     4155.974     90.60191     182.0032     364.2963      2.192     7.67     1198.203     64.21953     269.1371        21     2.283     0.721  43.99   3
       270    747.7740    381.3710 307.6123100  +6.5081754     1034.871      2696.63     3405.426     90.74745     182.0032     364.1876      2.740     8.75     1184.821     64.21953     112.7325        17     1.895     1.129  78.18   0
       271   1011.3419    380.0790 307.5027684  +6.5175114     2562.878     5841.695     6776.142     91.32731     182.2206     364.2963      2.438     6.99      1178.66     64.21953     260.2217        46     2.288     1.356  31.87  16
       272    267.8522    380.3454 307.8118748  +6.4925102     642.8577     1744.622     2448.897      91.4717     182.1481     364.2963      2.445     4.57     1191.031     64.21953     94.55481         8     1.687     0.352 -65.52   0
       273    346.6212    376.7928 307.7792466  +6.4966232     1173.303     3129.071     4438.441     90.74745     182.0032     364.1151      3.054     6.64     1188.634     64.21953     171.2869        15     1.724     0.718 -26.84   2
       274    702.2595    375.7071 307.6314235  +6.5089919     769.8235     1817.983     2355.179     91.18269     182.1481     364.4412      2.390     4.76     1184.484     64.21953     121.9973         5     1.235     0.521 -65.60   0
       275    710.7018    362.3218 307.6283624  +6.5148018     6585.359     18447.87     22901.24     90.89276     182.5101     364.3687      2.761     6.63     1183.407     64.21953     696.0828        71     2.205     1.801  42.57   0
       276    812.4033    365.1704 307.5859819  +6.5170262     784.8547     1659.003     2173.131     90.74745     182.0032     364.1151      2.845     7.99     1183.459     64.21953     95.45471        11     2.234     0.799  62.85   2
       277    828.4072    364.2863 307.5793575  +6.5179261     739.3672     1614.091      1348.98     90.89276     181.8581     364.0426      1.862     5.19     1183.301     64.21953     109.1505         7     1.512     0.503  19.32   0
       278    630.8223    359.4105 307.6616717  +6.5133306     1054.828     2760.161     3530.954     90.89276     181.9307     364.1876      2.842     4.91      1183.18     64.21953     132.7557        11     1.093     0.837  -1.45   2
       279    602.3382    354.6674 307.6736738  +6.5143354     5158.334     10402.82     12604.81     91.32732     182.1481     364.3325      2.242     6.57     1182.756     64.21953     609.0198        28     2.113     0.814  40.52   3
       280    604.4391    352.1501 307.6728848  +6.5154453      6344.05     14026.38     20865.12     91.18269     182.2206     364.2963      2.998     8.80     1182.483     64.21953     674.8282        73     3.395     1.421  45.43   3
       281    935.7333    351.9948 307.5351447  +6.5265863     2152.616     5120.447     5385.235     90.74745     181.8581     364.1151      2.395     6.42     1179.561     64.21953     224.0544        38     1.849     1.434  47.57   0
       282    374.3144    350.3113 307.7686244  +6.5084883     9207.182      16070.2     17795.73     91.03784     182.5101     364.4774      1.851     5.42     1185.971     64.21953     1162.351        27     1.646     0.972  35.30   3
       283    376.1971    347.4104 307.7679393  +6.5097495     10750.58     24506.69     32863.89     90.89276     181.8581     364.2238      2.719     7.82     1185.681     64.21953     1166.381        69     2.792     1.492  29.11   3
       284    890.4036    346.4642 307.5541774  +6.5273568     823.5368     2279.956     2808.026     90.60191     182.0032     364.0789      2.976     9.52     1180.661     64.21953     119.1771        17     2.292     1.104  65.28   0
       285    122.7993    347.1978 307.8732968  +6.5013200     872.2401     1907.804     2504.327     90.60191     181.7129     363.9701      2.776     6.79     1196.655     64.21953     142.0347        11     1.537     0.841  41.39   0
       286     53.5385    345.4070 307.9021517  +6.4997277      585.149      1512.79     2251.808     90.60191     182.0032     364.0426      2.329     5.66     1199.359     64.21953     105.3383         7     1.859     0.485  86.65   2
       287    904.7632    342.5072 307.5483393  +6.5294704     2676.952      6562.33     7483.197      91.4717     182.0757      364.405      2.482     5.80     1179.805     64.21953     291.3156        46     1.855     1.573  54.84   0
       288    231.5367    340.5237 307.8283146  +6.5077336     4720.334     9036.603     10876.29     91.61587     182.2206     364.2963      2.100     5.49     1190.752     64.21953     579.0665        27     1.751     1.001  37.00   3
       289    233.8345    337.9628 307.8274456  +6.5088683     5061.375     10680.79     14855.68     91.03784     182.0032     364.0789      2.624     7.77      1190.53     64.21953     658.5443        50     2.704     1.292  41.07   3
       290    131.5308    329.4508 307.8702654  +6.5089422     1612.926     2995.743     3388.589     91.18269     182.0757     364.3325      1.831     6.13     1195.884     64.21953     217.5839        14     1.448     0.756  45.26   3
       291    134.0910    326.9895 307.8692840  +6.5100447     2024.784     4761.251     6035.509     91.03784     181.7855     364.0789      2.540     8.72     1195.738     64.21953     238.9076        35     2.381     1.244  50.12   3
       292    155.3603    323.9322 307.8605445  +6.5120229     904.4832     2133.057     2730.654     91.18269     182.1481     364.4412      3.351    11.04     1194.591     64.21953     162.6719        27     1.956     1.737 -27.81   0
       293    377.5440    319.4651 307.7683198  +6.5213345     828.3986     1745.008      2685.66      91.4717     182.1481     364.3325      2.711     4.86     1183.495     64.21953     123.9586         7     1.029     0.833 -22.73   3
       294    378.6943    316.5742 307.7679388  +6.5225669     770.8788     1595.473     2971.787      91.4717     181.9307     364.1514      3.150     5.75     1183.307     64.21953      132.557         8     1.679     0.554  39.22   2
       295    967.2436    317.4438 307.5231991  +6.5419061     695.6682     1528.926     1395.282     91.32732     182.2206     364.1876      1.975     4.21     1175.566     64.21953     96.53723         6     1.356     0.373 -14.57   0
       296    430.9968    313.4989 307.7462964  +6.5255921     2167.174     3901.947     5636.825     91.03784     181.9307     363.9701      2.276     5.06     1181.071     64.21953     285.2834        18     1.593     0.794  44.78   3
       297    433.0641    310.8499 307.7455259  +6.5267554     2950.084     6637.454     8467.168     91.18269     182.1481     364.3687      2.476     6.99     1180.839     64.21953      335.644        36     2.160     1.147  23.87   3
       298     29.6361    312.1833 307.9132107  +6.5126417      1562.83     3951.265     5571.872     90.89276     182.0032     364.0789      2.948     7.77     1200.281     64.21953     222.0109        22     2.069     1.051  42.42   2
       299    772.7721    308.8364 307.6043481  +6.5389648     5864.204     15855.21     20318.39     90.74745     181.9307     364.1151      2.764     6.49     1178.925     64.21953     572.2668        71     2.216     1.799  42.20   2
       300    764.1122    310.4392 307.6078951  +6.5380133     1022.051     2467.854     3064.178     91.32731     182.1481     364.3687      2.652     9.36     1179.082     64.21953     125.4623        21     1.826     1.340  64.45   3
       301   1016.5258    303.7113 307.5031668  +6.5492210     2171.601     4821.012     4999.765     91.32732     182.5824      364.405      2.294     5.62      1173.87     64.21953     236.2697        31     1.689     1.270  48.27  16
       302    481.7804    295.0703 307.7258014  +6.5349056     1156.097     3230.329     4016.312     90.89276     182.0757     364.2601      2.921     8.41     1177.881     64.21953     139.3553        18     2.030     0.974  37.38   2
       303    454.0475    294.9760 307.7373354  +6.5340144     897.2582     2367.903     3057.273     90.89276     182.2206     364.1876      3.081     8.01     1178.823     64.21953     103.1256        13     1.561     1.150  44.10   2
       304    838.1912    291.7265 307.5777203  +6.5482170     15896.96     42263.91     51383.19     90.89276     181.7129     364.1514      2.666     6.25     1176.599     64.21953     1510.973        93     2.242     1.876  51.76   0
       305    609.5791    284.5791 307.6730166  +6.5435209     1195.131     3149.755     4180.867     91.03784     182.1481     364.2601      2.737     8.23      1177.09     64.21953     156.0077        23     1.558     1.464 -55.47   0
       306    694.6924    277.8140 307.6378538  +6.5491639     34077.07     96813.05     120247.6     91.03784     181.9307     364.0789      2.768     6.72     1176.882     64.21953     3526.752       112     2.330     1.969  40.28   0
       307     75.4895    277.6058 307.8953144  +6.5284643     765.7227     1276.141     1505.309     90.74745     181.8581     364.0426      1.972     5.48     1198.319     64.21953     96.98242         6     0.988     0.859 -53.80   0
       308     93.4684    275.4825 307.8879112  +6.5299464     1974.073     3313.121     3941.885     91.61587     182.5101     364.3687      1.943     7.15     1197.534     64.21953     252.1803        20     1.784     0.803  33.97   3
       309     95.7849    272.6958 307.8870421  +6.5311751     2400.405     4853.295     6345.855     91.03784     181.9307     364.1151      2.427     7.69     1197.396     64.21953     317.4418        33     2.344     1.148  31.83   3
       310    555.6851    276.2431 307.6957054  +6.5451577     890.2458     1729.217     2366.354     91.32732     182.0757     364.2963      2.070     5.89     1176.192     64.21953     137.3029        10     1.820     0.537  45.07   2
       311    558.1496    273.3938 307.6947764  +6.5464169     1069.306     2633.747     3731.479     90.74745     182.0032     363.8976      2.912     9.04     1175.952     64.21953     154.4677        21     1.755     1.300  46.91   2
       312    539.4566    272.4817 307.7025795  +6.5461671     2531.284     4819.573     6054.342     91.32732     182.2206     364.3687      2.153     6.75     1175.917     64.21953     321.9614        29     1.865     1.285  30.64   3
       313    541.0251    269.6675 307.7020219  +6.5473818     2359.386     5013.198     6177.382     90.89276     182.0757     364.2238      2.415     7.95     1175.733     64.21953     291.7617        30     2.411     0.859  28.78   3
       314    269.7637    268.3466 307.8148533  +6.5388233     1108.939     3402.945     4062.159     91.18269     182.2206     364.3687      2.774     9.69     1186.601     64.21953     143.0421        27     1.730     1.600 -15.97   2
       315    402.3226    267.6936 307.7597596  +6.5435450     8583.533     17813.71     20332.62     91.03784     182.4377     364.3687      2.171     5.64     1179.432     64.21953     1047.045        32     1.934     0.939  36.74   3
       316    404.2214    265.1695 307.7590550  +6.5446510     9714.371     21591.41     28053.92     90.74745     182.0032     364.1876      2.545     7.25     1179.237     64.21953     1129.591        61     2.611     1.303  36.66   3
       317    491.3835    258.1591 307.7230495  +6.5504700      2785.92      5619.18     7348.388     90.74745     182.0032     364.0789      2.154     6.42     1175.836     64.21953     367.9191        31     2.077     0.967  36.57   3
       318    493.2353    255.4019 307.7223722  +6.5516707     3238.873     7401.268      9452.56     90.31011     182.0032     364.1151      2.423     7.89      1175.64     64.21953     344.4305        34     2.315     0.988  36.50   3
       319    761.2705    255.1077 307.6109318  +6.5607677     1597.786     4126.391     5148.157     91.32731     182.3654     364.3687      2.589     8.42     1175.803     64.21953     174.9244        35     1.958     1.498  43.39   0
       320    381.4623    242.4949 307.7692811  +6.5532504     2593.972     4680.276     5595.346     91.18269      182.293     364.3687      1.926     5.16     1179.242     64.21953     324.8755        21     1.648     0.927  27.53   3
       321    383.3525    239.6664 307.7685904  +6.5544819     2809.484     6111.436     7738.934     91.32732     182.1481     364.3325      2.539     7.92     1179.086     64.21953     321.8444        43     2.575     1.332  39.64   3
       322    239.2254    241.7012 307.8284486  +6.5487997     747.9081     2596.441     3495.879      91.4717     181.9307     364.1514      3.001     7.21      1187.52     64.21953     125.8761        10     1.976     0.737 -27.91   2
       323    750.1581    236.3482 307.6161816  +6.5681428     24283.79     66475.91     81260.87     91.32731     182.2206     364.3325      2.705     6.77     1174.959     64.21953     2528.666        98     2.282     1.878  43.50   0
       324    422.5057    236.0736 307.7524315  +6.5572796     930.8568     2714.302     3738.133     91.18269     182.3654     364.3325      3.022     9.45     1177.391     64.21953     114.3977        16     1.821     1.367  79.91   2
       325    984.5443    233.0013 307.5188305  +6.5773545     918.5943     2237.549     2156.023     90.60191     181.8581     363.9701      2.274     8.39     1171.311     64.21953     119.6226        15     1.942     1.013  51.26   0
       326    925.6624    232.6115 307.5433283  +6.5755503     1359.284     2921.688     3339.158     90.74745     182.0032     364.1151      2.271     7.13     1172.031     64.21953     164.9624        21     1.611     1.303  36.53   0
       327    408.3318    231.8916 307.7584657  +6.5585309     821.8867      2302.14     2831.044     91.32731     182.3654     364.3325      2.746     8.49     1177.823     64.21953     106.0719        15     1.713     1.176 -70.74   0
       328    184.5759    224.9025 307.8517374  +6.5538987     847.3564     2120.898     3460.131      91.4717     181.9307     364.1876      2.902     5.40     1191.144     64.21953     131.2913        10     1.331     0.789  41.59   0
       329    748.4922    221.0598 307.6173870  +6.5744005     2722.645     7561.179     9410.427     91.18269     182.1481     364.4774      2.748     7.05      1174.15     64.21953     281.5815        49     1.882     1.745  69.00   0
       330    764.5708    218.5045 307.6107869  +6.5759934     1395.797     3313.031     4300.621      91.4717     181.9307     364.2963      2.631     7.95     1173.988     64.21953     161.3193        22     1.438     1.228  81.20   0
       331    352.8491    214.8468 307.7821092  +6.5637067       691.97     1750.322     3064.878     91.32731     182.0757     364.3687      3.645     5.16      1179.59     64.21953     114.1478         6     1.110     0.677 -25.06   2
       332   1002.9892    209.6577 307.5119415  +6.5876097     3567.737     7905.722     8579.625     90.60191     182.2206     364.0064      2.314     5.90     1169.162     64.21953     363.5693        43     1.983     1.341  48.75   0
       333    480.4550    211.0248 307.7291784  +6.5695674     728.5555     1724.296     2393.732     90.89276      182.293     364.1151      2.828     4.71     1173.586     64.21953     106.0013         5     1.056     0.597 -16.68   0
       334    243.5851    207.3018 307.8277952  +6.5631511     2012.043     3944.796     4605.923     91.32732     181.9307     364.0789      2.064     4.88     1187.957     64.21953     296.8604        19     1.570     0.883  27.51   3
       335    244.3408    204.5192 307.8275748  +6.5643255     2315.936     4863.183     6446.245      91.4717     182.2206     364.3325      2.504     8.20     1188.073     64.21953     279.0831        39     2.542     1.231  29.59   3
       336    147.5093    194.3674 307.8681793  +6.5652606     742.0547     1697.012     2362.853      91.4717     182.0757     364.3687      2.053     4.77     1193.621     64.21953     137.1478         7     1.502     0.430  30.51   2
       337    721.0206    185.2858 307.6300104  +6.5882545     2183.838     6078.193     7793.412     91.18269     181.9307     364.2238      2.757     8.56     1171.485     64.21953     272.5376        51     2.171     1.743  50.26   0
       338    660.9941    186.9942 307.6549139  +6.5855402     889.2775     2381.945      3698.29     90.60191     182.0032     364.1151      3.263     8.53     1171.037     64.21953     123.6882        12     2.059     0.988  31.28   2
       339    557.8568    187.0296 307.6978000  +6.5820710     935.4797     2595.695     3104.044     90.89276      182.293     364.2238      2.869     8.37     1170.319     64.21953     97.92297        17     1.666     1.176  55.56   2
       340    900.2103    186.1926 307.5554663  +6.5938694     973.7544      2019.69     1827.645     90.74745     182.0032     364.1876      2.159     6.93     1169.771     64.21953     138.1512        12     1.500     0.898  46.36   0
       341    221.6187    170.0003 307.8381864  +6.5778156     792.6621     2374.597     2392.123     90.89276     181.7129     363.9701      2.792     7.44     1191.306     64.21953     106.0259        12     1.805     0.859  36.59   2
       342    862.6710    168.3465 307.5716745  +6.5999852     833.0197     2072.832     2957.978     91.18269     182.1481     364.2238      2.502     5.89     1169.208     64.21953     116.9667         9     1.591     0.615   0.79   2
       343    752.2044    169.4938 307.6175728  +6.5958189     758.8218     1844.967     2199.372     91.03784     181.8581     364.0426      2.709     7.51     1170.381     64.21953     91.28662         9     1.384     1.142 -32.53   2
       344    454.6277    160.4365 307.7416193  +6.5895912     9063.503     27447.92     35856.87     90.74745     181.9307     364.1151      2.934     7.45     1171.736     64.21953     1034.087        96     2.370     2.114  33.00   0
       345    780.4171    159.4286 307.6061782  +6.6009188     6286.709     16812.71        21126     90.89276     181.9307     364.2601      2.744     6.47     1169.424     64.21953     641.4827        67     2.118     1.795  42.95   0
       346    142.9419    154.0995 307.8714371  +6.5817348     842.5961     2514.026     3577.307     91.03784     182.2206     364.5136      3.054    10.20     1193.741     64.21953     121.7961        18     1.955     1.482 -86.23   0
       347    916.2485    150.7052 307.5499852  +6.6090597     598.2958     1329.807     1703.067     91.18269     182.0757     364.5136      2.271     5.50     1167.583     64.21953     82.13245         7     1.323     0.645  44.23   0
       348    577.3279    147.6461 307.6910266  +6.5989867     1630.909     3192.269     4491.034     91.32732      182.293     364.3325      2.436     8.44     1169.211     64.21953     216.7719        23     2.372     1.075  59.41   3
       349    579.6658    145.6473 307.6901216  +6.5998905     1804.908     3798.246     5422.082     91.18269     182.1481     364.3687      2.539     6.33     1169.202     64.21953     194.6121        22     1.609     1.009  37.21   3
       350    540.7785    146.4682 307.7062647  +6.5982483     791.7535     2619.925      3661.45     90.89276     182.1481     364.2601      3.048    10.52     1168.912     64.21953      107.598        22     2.050     1.505 -28.70   0
       351    885.4831    142.4555 307.5630554  +6.6114390      6162.18     14641.73     16861.55     91.32732     182.2206     364.4412      2.459     5.98     1167.317     64.21953      597.168        57     2.047     1.580  44.13   0
       352    939.2051    143.1162 307.5406927  +6.6129600     1396.335     3261.542     2946.567     90.74745     181.7855     364.0426      2.298     8.86     1166.425     64.21953     154.8363        25     1.632     1.343  58.45   0
       353     11.8949    139.7596 307.9264112  +6.5832428     11074.01     31788.13     40088.32     91.32731     182.1481     364.4412      2.851     6.81     1199.224     64.21953     1295.759        85     2.304     1.949  48.02  16
       354    972.0696    140.2225 307.5271226  +6.6152518     5766.982     13186.07     14505.07     90.89276     182.1481     364.2963      2.362     5.92     1164.697     64.21953     621.1469        53     2.055     1.456  44.40   0
       355    683.6682    140.1481 307.6470576  +6.6056442     1297.074      3558.17     4597.425     91.18269     182.0757     364.2963      2.791     9.63     1169.213     64.21953     150.9045        36     2.034     1.661  54.99   0
       356    491.4742    137.3507 307.7270738  +6.6003603     926.5164     2006.668     2521.106     91.32732      182.293     364.3687      2.668     7.13     1169.388     64.21953     160.6493        11     1.679     0.849  17.31   2
       357    505.2547    130.6913 307.7215672  +6.6035723     1030.723     2635.202     3569.859     91.18269     182.0757     364.4774      3.076     7.46     1169.177     64.21953     154.7056        16     1.646     1.255  52.67   2
       358    339.0664    128.3891 307.7907515  +6.5989457     3114.747     8446.667     12056.84     90.74745     182.0032     364.1514      3.149     7.64     1182.541     64.21953      340.968        76     2.504     1.982  72.50   0
       359    876.0046    131.1301 307.5673765  +6.6157992     1082.914     2590.815     3241.698     90.74745     181.7855     364.1514      2.452     7.26     1166.654     64.21953     138.9966        17     1.668     0.934  50.01   0
       360    824.0101    131.6216 307.5889823  +6.6138590     1020.283     2471.323     2732.911     90.89276     181.9307     364.1151      2.458     7.61     1167.904     64.21953      117.754        17     1.516     1.070   0.45   0
       361    735.7322    128.5612 307.6257956  +6.6121711     18697.09     50194.63     60713.07     91.18269     182.2206     364.4774      2.680     6.54     1168.792     64.21953     1979.113        95     2.283     1.862  38.76   0
       362    969.2439    127.3222 307.5287294  +6.6204848     1776.439     3892.401     4301.782     91.18269     182.2206     364.3325      2.228     8.45     1164.251     64.21953     210.2184        31     2.024     1.257  16.66   0
       363    903.4269    125.5296 307.5561602  +6.6190279     4018.989     9668.346     11227.87     90.89276     182.0757     364.2601      2.467     6.21     1166.045     64.21953     404.7001        51     2.117     1.480  43.99   0
       364    447.4248    125.1445 307.7458017  +6.6039231     2177.585     6206.644      7508.86     90.89276     182.2206     364.1151      2.750     7.48     1171.608     64.21953      243.796        51     2.051     1.798  57.05   0
       365   1007.5303    125.5890 307.5128655  +6.6224779     1099.654      2416.29     2529.318     90.74745     182.0032     364.1514      2.207     8.18     1162.661     64.21953     148.3154        17     1.609     1.162  62.61   0
       366    104.8200    116.6172 307.8885536  +6.5959291     1994.181     5841.594     7015.837     91.03784     182.0032     364.2238      2.748     7.51     1195.602     64.21953     276.2965        51     2.141     1.786  47.00   0
       367    273.6968    114.6895 307.8183957  +6.6024063     11397.59     20758.39     23912.54     91.32732     182.7269     364.3325      1.966     5.25     1188.889     64.21953      1483.66        32     1.768     1.050  35.44   3
       368    275.7776    112.0388 307.8176198  +6.6035708     12224.22     27764.43     37917.99     90.89276     181.9307     364.0789      2.775     8.41     1188.804     64.21953     1489.803        68     2.749     1.535  48.42   3
       369    250.2033    114.3256 307.8281772  +6.6017668     2506.466     7955.474     10352.21     90.74745     181.6403     364.2238      2.988     8.76     1189.912     64.21953     264.4465        59     2.292     1.829  48.40   0
       370    399.0008    108.4619 307.7664997  +6.6091869     19290.95     59250.62      77264.2     90.45612     182.0032     363.9701      2.946     7.53      1175.62     64.21953     2271.236       108     2.444     2.060  42.77   0
       371    154.6449    110.0203 307.8680580  +6.6003304     1454.797     4409.593     5676.483     90.89276     182.0757     364.1514      2.868    10.65     1193.014     64.21953     191.7678        41     1.995     1.761  41.95   0
       372    303.6907    106.3177 307.8062054  +6.6068713     7039.994     21859.94     31111.84     91.03784     182.5101      364.405      3.251     7.87     1186.805     64.21953     853.3477       115     2.991     2.172   6.37   0
       373    738.1226    104.4091 307.6256118  +6.6222246     15418.57     41381.45     50631.73     90.89276     181.6403     364.1514      2.688     6.58     1167.867     64.21953     1590.323        89     2.257     1.851  41.42   0
       374     55.1993    102.3003 307.9096701  +6.6001699     3844.403      11540.3     14353.72     90.74745     181.7855     363.9701      2.853     7.13     1197.598     64.21953     474.3391        64     2.177     1.884  50.48   0
       375     89.9689     99.3140 307.8953131  +6.6025741      592.569      1384.36     1421.175     91.32731     182.0032     364.2601      2.068     3.74      1196.26     64.21953     114.4286         5     1.255     0.321  49.73   0
       376    997.5844     85.4451 307.5183448  +6.6387237     1336.273     3172.934     4177.986     90.74745     182.0032     364.0426      2.484     8.55     1160.486     64.21953     154.3976        27     1.994     1.157  46.80   0
       377    587.1132     82.0582 307.6891610  +6.6263988     848.9376     1905.081     3294.579     91.32731     182.2206     364.4774      3.002     5.73     1167.911     64.21953     109.0229        11     1.237     0.747  51.15   0
       378    273.7979     79.3772 307.8195437  +6.6169914     12340.92     37154.23     49715.08     90.89276     181.8581     364.1151      3.009     7.33     1189.162     64.21953     1347.073        97     2.443     2.033  39.52   0
       379     19.1903     77.9416 307.9254662  +6.6090149     1867.173      5647.07     7015.561     90.60191     182.1481     364.0064      2.759     7.74     1200.137     64.21953     244.2267        46     1.958     1.773  38.72   0
       380    705.2683     75.6590 307.6402393  +6.6329977     3675.174     9740.012     12366.69      91.4717     182.1481     364.3325      2.774     6.92     1166.348     64.21953     394.2526        62     2.190     1.753  38.92   0
       381    116.3628     73.2817 307.8852166  +6.6142123     1958.754     6078.969     7291.897     91.32732      182.293     364.2963      2.819     8.40     1193.909     64.21953     203.9226        50     2.095     1.779  56.88   0
       382    386.2709     70.9783 307.7730551  +6.6242380     1288.824     2754.647     4048.318     90.89276     182.0757     364.2963      2.575     9.33      1177.92     64.21953     162.9443        24     2.574     0.944  61.16   3
       383    388.5019     68.4652 307.7722120  +6.6253507     1400.384     2973.098     4478.347     91.32732      182.293     364.3687      3.013     7.85     1177.547     64.21953     166.9709        21     1.769     0.973  52.68   3
       384    350.2735     69.2475 307.7880829  +6.6237439     1083.776     2215.311     3504.707     91.18269      182.293     364.3325      2.486     6.51       1182.9     64.21953     132.7343        12     2.017     0.590  19.62   3
       385    351.2640     66.3676 307.7877680  +6.6249664     1203.845     2653.838      3931.52     91.03784      182.293     364.2963      3.172     8.88     1182.824     64.21953     179.4849        20     2.229     0.988  30.15   2
       386    106.7049     68.1172 307.8894070  +6.6160197     744.9952       2067.4     2281.287     91.18269     182.6546     364.4774      2.564     8.33     1194.061     64.21953     114.1202        12     1.712     1.133 -61.22   0
       387    997.7820     62.1334 307.5190427  +6.6483570      927.358     2076.743     1647.143     90.89276     182.1481     364.2238      2.218     6.31     1157.233     64.21953     107.2983         9     1.141     0.981 -17.07   0
       388    203.4240     56.9764 307.8495634  +6.6238751     2163.969     6737.591     8080.364     90.74745     182.0032     364.2601      2.874     7.47     1190.814     64.21953     292.0953        57     2.131     1.859  43.59   0
       389     86.6479     56.8886 307.8981265  +6.6199809     1087.431     2858.161      3430.86     91.32731     182.0757     364.4412      2.598     9.10     1194.875     64.21953     158.0583        22     1.784     1.294  68.22   0
       390    664.9371     55.4267 307.6576910  +6.6400026      2779.24     7832.482     9523.233     90.89276     182.1481     364.2601      2.744     7.36     1165.718     64.21953     339.5371        54     2.084     1.749  46.99   0
       391    617.0895     52.7268 307.6776802  +6.6395153     4097.455     11716.13     15246.61     91.32731     182.5101     364.3687      2.884     7.37     1166.945     64.21953     505.1853        64     2.207     1.861  43.60   3
       392    620.6067     44.3029 307.6765005  +6.6431117     23491.88     65758.04     82325.49     91.03784     181.7855     364.0789      2.781     6.77     1166.629     64.21953      2506.99       103     2.348     1.949  40.93   3
       393    343.0000     50.8809 307.7917262  +6.6310838     1197.732     2042.318     2688.871     90.45612     181.6403     364.0064      1.943     6.09     1183.765     64.21953     189.9467        12     1.608     0.649  77.97   3
       394    345.0846     48.0866 307.7909534  +6.6323078     1708.862     3928.266     5339.589     91.03784     182.4377      364.405      2.914     9.00     1183.585     64.21953     235.6919        31     2.049     1.538  51.09   2
       395    526.3335     47.6220 307.7155944  +6.6385820      762.963     1971.397     2261.202     90.89276     182.2206     364.2238      2.528     6.48     1168.465     64.21953     108.2567         9     1.642     0.719 -41.67   0
       396    299.8211     38.4692 307.8101005  +6.6347584     1549.938       4727.7     5979.176     90.89276     182.1481     364.2238      2.955    10.17     1188.463     64.21953     176.7239        43     2.054     1.836  31.92   0
       397    669.8060     32.4204 307.6564386  +6.6496660     688.2327     1550.522     2951.685     90.89276     181.8581     364.1151      3.215     4.97     1164.439     64.21953     100.8762         7     1.148     0.609  40.00   0
       398    963.8922   1019.1511 307.5011272  +6.2520163     3245.887     5805.252     6075.149     91.18269     182.0757     344.1783      1.908     5.07     1218.542     64.21953     386.6471        30     1.759     1.005  41.62  16
       399    684.8483     28.1791 307.6503251  +6.6519209       1429.1     3882.422     4723.303     90.89276     182.2206     364.1151      2.685     7.92     1163.846     64.21953     168.7778        35     1.882     1.596  44.70   0
       400    822.0524   1017.4037 307.5601289  +6.2480032     870.8781     1767.687     2306.248     90.60191     182.0032     359.8495      2.230     6.20     1221.763     64.21953     122.9857         9     1.488     0.726  73.77  16
       401    186.5292   1017.6794 307.8242073  +6.2265951     879.7809     1589.618     1915.832     91.61587     182.5101     358.1953      1.880     5.34     1224.529     64.21953     155.0372         8     1.426     0.566  42.27  16
       402    279.3685   1012.8632 307.7857921  +6.2317028     1585.378     3407.768     3363.153     91.03784      182.293     364.2963      2.165     6.87     1223.863     64.21953      186.911        27     1.847     1.118  42.01  16
       403    644.5132   1010.1687 307.6341490  +6.2450555     785.7281     1706.634     1812.748      91.4717     182.0032     364.2601      2.294     6.93     1222.043     64.21953     123.5323        12     1.420     0.949  29.41   0
       404    389.9915     11.4277 307.7735127  +6.6489536     640.9733     2111.538     2690.095     90.89276     182.0032     364.1514      2.509     5.77     1178.417     64.21953     81.21545         7     1.992     0.471   4.52  16
       405    597.0106   1007.0219 307.6539944  +6.2447651      1340.15     3001.178     3348.561     90.89276     181.9307     364.1876      2.250     7.01     1223.887     64.21953     159.1635        22     1.534     1.108  38.41   0
       406    153.2251   1003.9253 307.8385093  +6.2311552     11192.14     24032.06     26024.46     90.89276     182.0032     364.2963      2.218     5.25     1224.066     64.21953      1478.59        60     2.005     1.413  38.72   0
       407    467.4332   1002.4167 307.7079949  +6.2423262     2258.257      5031.67     5241.672     90.89276     181.9307     364.1876      2.245     6.07     1224.942     64.21953     308.2505        34     1.801     1.402  30.50   0
