#   1 NUMBER                 Running object number                                     
#   2 X_IMAGE                Object position along x                                    [pixel]
#   3 Y_IMAGE                Object position along y                                    [pixel]
#   4 ALPHA_J2000            Right ascension of barycenter (J2000)                      [deg]
#   5 DELTA_J2000            Declination of barycenter (J2000)                          [deg]
#   6 FLUX_APER              Flux vector within fixed circular aperture(s)              [count]
#   9 FLUXERR_APER           RMS error vector for aperture flux(es)                     [count]
#  12 FLUX_RADIUS            Fraction-of-light radii                                    [pixel]
#  13 FWHM_IMAGE             FWHM assuming a gaussian core                              [pixel]
#  14 BACKGROUND             Background at centroid position                            [count]
#  15 THRESHOLD              Detection threshold above background                       [count]
#  16 FLUX_MAX               Peak flux above background                                 [count]
#  17 ISOAREA_IMAGE          Isophotal area above Analysis threshold                    [pixel**2]
#  18 A_IMAGE                Profile RMS along major axis                               [pixel]
#  19 B_IMAGE                Profile RMS along minor axis                               [pixel]
#  20 THETA_IMAGE            Position angle (CCW/x)                                     [deg]
#  21 FLAGS                  Extraction flags                                          
         1     18.8644     64.8128 307.9362313  +6.6319818     749085.5      1875847      2106422      85.7328     171.9458      344.097      2.370     5.08      1059.04      60.6708     61895.59       429     2.236     1.970  70.56   4
         2    902.9810     58.9993 307.5689627  +6.6639911     1861.323     2751.323     3041.653     85.87008     171.6716     343.8573      1.543     3.35     1018.847      60.6708     257.9697        16     1.177     0.858  64.23   0
         3    438.6565     25.2598 307.7630955  +6.6624043     2155.287     4117.886     4366.808     86.41703     172.1512     344.2339      2.034     5.53     1029.245      60.6708     231.6925        29     1.637     1.189  63.76   0
         4    652.3586     17.6005 307.6745288  +6.6727174     15741.15     26845.45     29015.27      85.5953     171.8087     343.8231      1.863     3.78     1023.965      60.6708     1881.489        60     1.646     1.374  59.78   0
         5    552.1455     13.6571 307.7163158  +6.6709941     4279.994     7456.584     7895.217     86.41703     172.2196     344.2339      1.865     3.99     1025.287      60.6708     458.0106        32     1.453     1.270  61.22   0
         6    638.8587      8.1862 307.6804574  +6.6761530     2619.437     5283.543     6797.202      85.5953     172.0827     343.0685      2.300     7.59     1023.721      60.6708     335.9447        35     2.206     1.072  66.82  16
         7    457.7342      9.3019 307.7557049  +6.6696317     17905.55     33179.89     35828.25     86.28062     172.2196     344.2339      2.000     4.05     1028.191      60.6708     1842.343        61     1.699     1.483  58.72  16
         8    278.3141      9.7220 307.8302652  +6.6634433     7401.025     13402.91     14387.69     86.28062      172.493     344.2682      1.937     4.19     1048.076      60.6708     789.7361        42     1.558     1.355  69.21  16
         9     19.4884     11.9260 307.9377653  +6.6538369     929.5587     1856.426     1311.977     86.28062      172.493     344.2682      2.086     6.37     1056.127      60.6708      111.396        11     1.250     0.913  19.65   0
        10    935.2433      9.2643 307.5572240  +6.6856007     1944.741     3066.396      2451.46     86.28062     172.0827     344.1997      1.663     3.80     1017.051      60.6708     285.3378        16     1.242     0.907  50.10   0
        11    337.9304      9.1659 307.8055052  +6.6656727     843.4836     1536.579     1049.609     86.14399     172.1512     344.2682      2.014     5.53     1040.144      60.6708     117.9045         9     1.147     0.751 -88.65   0
        12     43.6895      9.2380 307.9277980  +6.6557608     1880.676     3169.399     3209.084     86.28062     172.0827     344.2339      1.775     4.15     1054.757      60.6708     244.5393        20     1.202     1.143 -88.71   0
        13    270.2191     13.8827 307.8334890  +6.6614540     1622.716     2904.739     3972.547     85.87008     171.8087     344.1313      2.157     4.30     1048.251      60.6708     192.4563        19     1.214     1.097 -88.05   0
        14    266.3672      6.4212 307.8353424  +6.6644052     2395.736     4320.818     4767.939      85.7328     171.9458     330.6197      1.930     4.60      1048.27      60.6708     317.6732        24     1.409     1.131 -83.07  16
        15    320.0240      4.3308 307.8131113  +6.6670684     725.9856     1501.361     1562.691     85.87008     171.5343     306.3581      2.251     4.16     1042.897      60.6708     102.1838         6     1.021     0.605  48.13  16
        16    449.0249    998.4270 307.7259507  +6.2609603     3945.132     5951.771     6986.453      85.7328     171.9458     344.0628      1.613     2.97     1072.771      60.6708     569.1156        28     1.396     1.068  51.05   0
        17    533.6174   1023.6564 307.6899677  +6.2533736     461.1516     515.2401      814.343      74.5634     136.7666     258.9783      1.043     3.74     1071.683      60.6708     106.8903         5     0.964     0.416  15.24  24
        18    774.9485    998.7352 307.5905751  +6.2717231     3317.304     3157.188     3491.034     86.28062     172.0827     344.1997      0.645     1.15     1067.283      60.6708     1743.504         7     0.570     0.390  65.20   0
        19    726.1793    997.6389 307.6108675  +6.2705484     1162.259     1704.142     1916.628     85.87008     171.9458     343.9258      1.386     3.37     1068.343      60.6708     183.2026        11     1.108     0.624  66.50   0
        20    590.1771    997.3939 307.6673617  +6.2661074     4287.204     6519.988     7269.932      85.7328     171.8773     344.0286      1.641     3.33     1070.926      60.6708     591.7488        27     1.426     0.975  66.97   0
        21    766.3347    993.3372 307.5943342  +6.2736645     1358.806     1925.395     2714.251     86.28062     172.1512     344.1997      1.547     3.60     1067.159      60.6708     210.4677        12     1.155     0.719  63.02   0
        22    638.7791    991.2480 307.6473827  +6.2702688     619.4474     802.6448     181.0153     85.87008     172.1512     343.9943      1.262     3.86     1069.769      60.6708     105.9104         5     0.876     0.488 -45.78   0
        23    973.7142    987.7690 307.5083875  +6.2828752     7513.489     10748.11     10686.43     86.28062     171.9458     344.0628      1.488     2.93     1059.429      60.6708     1110.683        30     1.362     1.014  62.71   0
        24    727.7064    988.1866 307.6105511  +6.2745021     899.0861     1622.214     2116.475     86.00714     171.8773     344.0286      1.771     2.46     1067.771      60.6708     171.2922         7     0.787     0.602  62.41   0
        25    456.7136    987.1133 307.7231389  +6.2658887     978.9644     1522.538     1470.117     86.00714     172.3563     344.2339      1.661     5.13     1072.261      60.6708     138.1346        11     1.109     0.878 -18.96   0
        26    258.1755    987.8305 307.8055709  +6.2589423     1289.104     1897.473     1667.006      85.7328     172.0143     343.9943      1.618     3.88     1074.327      60.6708      172.822        11     1.025     0.755  57.18   0
        27    733.5657    985.8486 307.6081961  +6.2756629     2967.315     4522.274     5145.991     86.00714     172.1512     344.1313      1.646     3.78     1067.537      60.6708     400.3744        22     1.325     0.967  56.24   0
        28    748.8867    985.0826 307.6018584  +6.2764905     1003.801     1345.303     1086.646     86.00714     172.3563     344.2682      1.506     2.21     1067.116      60.6708     195.5679         8     0.760     0.655  56.70   0
        29    379.9849    983.4044 307.7551311  +6.2648514     1847.815     2817.667     2994.353     85.87008     171.8087     344.0286      1.680     3.39     1074.352      60.6708     242.7002        15     1.154     0.829  77.08   0
        30    990.2292    981.2736 307.5017458  +6.2861068     743.7642     1127.791     1250.074     86.14399     172.1512     344.1655      1.661     4.48     1058.562      60.6708      110.493         6     0.914     0.652  75.07   0
        31    767.0159    972.8825 307.5947387  +6.2821325     8065.468      11892.7     11822.04     85.87008     171.8087     344.0628      1.529     3.03     1065.965      60.6708     1257.084        35     1.423     1.091  69.20   0
        32    562.4086    973.3412 307.6797047  +6.2751100     4372.551     7031.398     7922.974      85.5953     172.0827     343.8916      1.739     3.80     1070.702      60.6708     569.3051        30     1.538     1.063  78.92   3
        33    559.6524    965.7056 307.6811066  +6.2781704     8684.898     12857.51     13812.62     86.14399     172.0143     344.4734      1.608     2.96     1070.607      60.6708     1210.531        36     1.477     1.108  66.04   3
        34    532.5569    974.8475 307.6920524  +6.2734900     1216.916     1615.597     1693.059     86.28062     172.0827     344.1313      1.433     3.10      1071.08      60.6708     175.9324        11     0.963     0.765  39.24   0
        35    312.7775    972.2831 307.7834189  +6.2671915     14573.26     22859.03     25344.91     86.00715     171.8087     344.1313      1.725     3.24     1074.515      60.6708      1981.41        55     1.601     1.464 -53.92   0
        36    139.2805    973.8344 307.8554221  +6.2607321       467.84     739.2775     571.3702     86.14399     172.2196     344.2339      1.538     4.69     1074.271      60.6708      109.345         5     1.053     0.592 -30.28   0
        37      8.8778    973.2849 307.9095972  +6.2565789     711.7281     1042.347     856.8707     86.28062      172.493     344.3024      1.628     4.21     1077.337      60.6708     121.4519         8     0.914     0.749  75.72   0
        38    828.3434    972.4301 307.5692818  +6.2843648      1208.88     1752.928     1167.323     86.14399     172.2196      344.097      1.582     4.32     1064.272      60.6708       171.66        13     1.163     0.810  60.52   0
        39    283.9071    969.5985 307.7955000  +6.2673323      999.558     1419.156     1640.881      85.7328     171.8087     343.9258      1.478     2.46     1074.422      60.6708     192.8118         9     0.847     0.677 -70.86   0
        40    928.3280    966.3703 307.5279566  +6.2901989     9542.936     13663.38     14098.05     86.14399     172.1512     344.1655      1.530     2.96     1060.701      60.6708     1544.921        36     1.472     1.038  61.93   0
        41    901.8998    962.5431 307.5390621  +6.2908986     13289.24     19658.14     21088.41     86.00714     172.1512     344.4392      1.588     3.06     1061.483      60.6708      1909.63        47     1.479     1.205  48.29   0
        42     58.5323    965.0032 307.8892560  +6.2616665     534.6102     845.2236      768.447      85.5953     171.7402     343.9601      1.692     4.13      1075.56      60.6708     87.29321         5     0.773     0.628  -0.49   0
        43    614.4193    962.9812 307.6584516  +6.2811257     1434.056     2082.043     2101.555     86.00714     172.0827     344.1313      1.479     3.11     1069.229      60.6708     219.6866        12     1.028     0.770 -87.19   0
        44   1023.2424    961.7491 307.4886883  +6.2952670      4909.94     6071.073     6269.227     80.48891     143.4912     266.4657      1.251     3.01     1056.469      60.6708     821.2388        17     1.176     0.736  81.39  24
        45    655.5219    961.0659 307.6414444  +6.2832896     1723.766     2638.641     2714.017     86.41703     172.2196     344.1655      1.766     3.76     1068.441      60.6708     234.2118        18     1.181     0.993 -87.30   0
        46    546.1784    961.5950 307.6868413  +6.2794171     4127.542      6539.75     7636.296     85.87008     171.8773     343.9943      1.814     3.29     1070.888      60.6708     624.0913        33     1.672     1.206  36.65   0
        47    499.2899    958.0057 307.7064368  +6.2793309     2243.777      3446.19     3346.709      85.7328     171.8087     343.9601      1.640     4.07     1070.894      60.6708     327.7175        19     1.332     0.943  72.29   0
        48     81.2683    959.9832 307.8799835  +6.2645028     866.8118     966.8884     860.6983      85.7328     172.0827      344.097      1.403     4.03     1074.905      60.6708     133.0247        10     0.905     0.860 -56.07   0
        49    437.0582    972.7831 307.7317854  +6.2711474     1061.134     1535.239     1298.385      85.7328     172.0827     343.9258      1.660     2.85     1072.883      60.6708     187.1655        10     0.895     0.717  82.22   0
        50    933.6627    950.0948 307.5262869  +6.2970965     47050.64     68613.17     72180.49     86.14399      172.288     344.2339      1.533     2.97     1060.057      60.6708     6868.943        68     1.538     1.152  63.58   0
        51      6.6252    950.0460 307.9113196  +6.2660975     2973.774     4498.912     4241.923     85.87008     172.2196     332.6442      1.550     3.17     1076.259      60.6708     420.7883        22     1.385     0.869  74.24  16
        52    241.1300    948.6334 307.8139743  +6.2745539     1685.935     2653.483     2703.985     86.14399     172.1512     344.2682      1.633     3.21     1074.557      60.6708      254.923        16     1.132     0.875  53.95   0
        53    128.6431    947.7668 307.8607216  +6.2711373     577.8593     741.3828     509.5928     85.87008     172.1512     344.0286      1.508     3.46     1074.417      60.6708     87.71521         5     0.763     0.453  75.34   0
        54    831.5765    943.9558 307.5688954  +6.2962291      2602.01     3728.743      3276.71      85.7328     172.0827     344.0286      1.488     3.13     1062.582      60.6708      394.485        19     1.253     0.862  81.27   0
        55    779.8408    941.8242 307.5904557  +6.2953838     6731.737     10281.25     11420.81     85.87008     171.9458     343.9601      1.634     3.16     1063.837      60.6708     992.9668        35     1.526     1.153  81.83   0
        56    639.9409    946.0502 307.6484212  +6.2889688     818.3234     1106.071     1132.757     86.28062     172.1512     344.1997      1.301     3.78     1068.192      60.6708     147.0597         7     0.876     0.552  52.58   0
        57    566.3165    941.2742 307.6791616  +6.2884803     805.1057       1208.5     878.3705     86.41703      172.493     344.2682      1.700     3.71     1069.909      60.6708     121.3512         8     0.941     0.605 -78.74   0
        58    248.9519    940.8797 307.8109877  +6.2780174      1370.17     1892.009     2251.452     86.28062     172.2196     344.1313      1.481     4.31     1074.626      60.6708     193.1683        14     1.294     0.725  81.79   0
        59    213.3645    940.4773 307.8257816  +6.2769900     846.1655     1418.753     947.1037     86.14399     172.2196     344.2339      1.785     4.50     1074.482      60.6708     132.9851         7     0.919     0.627  73.57   0
        60     74.1488    939.0279 307.8836495  +6.2729153     2773.499     4104.399      4083.19     85.87008      172.288      344.097      1.526     3.50     1074.813      60.6708     390.3669        20     1.251     0.930  66.16   0
        61    967.9770    936.7843 307.5124806  +6.3037349     7471.195     10804.35     11491.96     86.00714     171.9458      344.097      1.495     2.96     1058.106      60.6708     1250.773        31     1.353     1.018  55.35   0
        62    941.7903    928.7493 307.5236273  +6.3061804     2353.945     3326.394     3396.583      85.7328     172.0143     343.8573      1.508     3.27     1059.144      60.6708     341.9194        18     1.219     0.908  54.97   0
        63    274.6696    924.7218 307.8008522  +6.2855508     4283.729     6660.037     6794.696     86.55323     172.4247     344.1655      1.664     3.33      1074.89      60.6708     532.5979        30     1.428     1.092  76.01   0
        64    801.0112    924.6186 307.5822406  +6.3031938     1302.513     2172.697      2810.31     85.87008     171.8087      344.097      2.027     6.91     1062.436      60.6708     204.5192        17     1.814     0.884  62.50   0
        65    662.5589    924.4523 307.6397536  +6.2986416     4683.858     6693.778     6828.676     86.28062     172.2196     344.1997      1.531     2.93     1067.052      60.6708     671.2283        27     1.345     1.001  61.11   0
        66   1012.0553    924.5623 307.4945818  +6.3102486     889.5524     1166.763     1196.836     86.28062     172.2196     344.2339      1.662     4.92     1055.458      60.6708     120.7224         9     1.167     0.792  49.27   0
        67    484.8887    922.7989 307.7136047  +6.2933851     1065.901      1719.32     2209.024     85.45757     171.6716     343.9258      1.858     3.66     1070.494      60.6708     166.3978        11     0.979     0.928 -87.58   0
        68     43.3913    922.3657 307.8969875  +6.2787611       2045.4      3228.86     3557.706      85.7328     171.9458     343.9943      1.681     3.31     1074.809      60.6708      322.837        19     1.158     1.034  70.67   0
        69    894.3264    921.0197 307.5436016  +6.3077906     1178.679     1584.771     1756.805     85.87008     172.0827     344.1313      1.461     4.04      1060.12      60.6708     161.3937        13     1.157     0.782  63.83   0
        70    986.5818    919.3597 307.5053372  +6.3115487     692.3841     1156.847     856.9154     85.87008     171.9458     343.9258      1.621     4.12     1056.369      60.6708     134.9775         6     1.144     0.423  54.73   0
        71    965.6068    917.7454 307.5141038  +6.3115169     733.6133     1278.884     1549.364      85.7328     171.8773     343.8916      1.595     4.19     1057.374      60.6708     124.8505         7     1.217     0.411  63.40   0
        72    587.2229    917.1671 307.6712899  +6.2991324     1684.066     2374.855     2084.451      85.7328     171.9458     343.9601      1.471     3.73     1068.235      60.6708     251.4567        15     1.263     0.803  53.57   0
        73   1018.4914    916.4083 307.4921819  +6.3138295     781.0027     1441.693     1473.983     85.87008     171.8087      331.367      2.201     5.34      1054.63      60.6708     96.77319         9     1.290     0.623 -81.77  16
        74    626.2877    913.4857 307.6551881  +6.3019578     1203.883     1745.324     1830.714     86.00715     172.3563     344.3024      1.423     2.77     1066.897      60.6708     187.3777        10     0.977     0.666 -82.84   0
        75     76.6600    914.3234 307.8834426  +6.2831991      620.925     1000.338     1371.941     86.41703     172.2196     344.1655      1.931     4.98     1074.463      60.6708     83.41736         6     1.215     0.577  26.82   0
        76    306.1265    911.1717 307.7882446  +6.2921996     1287.531     1838.049     2250.132     86.14399     172.1512     344.1313      1.493     3.53     1074.885      60.6708     180.2717        12     1.106     0.687  79.16   0
        77    773.1459    907.5050 307.5943899  +6.3093302     941.9839     1084.501     1210.317     86.14399     172.0827     344.4392      1.355     5.46     1062.516      60.6708      133.371        10     1.125     0.748  51.95   0
        78    910.7248    903.7865 307.5373687  +6.3154523     7580.581     10871.55     11041.01      85.7328     171.8773     343.9943      1.506     3.07     1059.083      60.6708     1103.654        31     1.408     0.976  69.49   0
        79    148.7421    905.6168 307.8537995  +6.2892142     603.3818     700.4855     675.4576      85.7328     172.0827     343.9258      1.294     4.11     1074.423      60.6708     96.83618         6     0.929     0.519 -39.83   0
        80    446.5750    901.2687 307.7302442  +6.3009923     2045.181      3466.98     3488.953     85.87008     172.0143     344.1313      1.777     3.63     1071.461      60.6708     323.5166        21     1.264     1.017  63.08   0
        81    348.2756    899.2831 307.7711397  +6.2985204     9094.535     14263.59     15615.32     86.41703      172.493     344.3024      1.706     3.26     1074.401      60.6708     1232.333        42     1.556     1.170  66.05   0
        82    268.4237    898.3397 307.8043375  +6.2962336     6568.802     10628.78      11110.3     85.87008     172.0827      344.097      1.751     3.29      1074.83      60.6708     879.1188        43     1.626     1.253  66.33   0
        83    596.0626    892.6463 307.6684439  +6.3095519     1146.786      1581.08     1299.421     86.14399     172.0143     344.2682      1.409     4.04     1066.791      60.6708     159.8401         9     0.905     0.698 -77.44   0
        84    926.4204    888.5463 307.5313606  +6.3222676     1053.457     1801.271     1722.387      85.7328     172.1512     343.9943      1.761     4.13     1057.923      60.6708     179.6288        11     1.232     0.722  65.10   0
        85    882.6696    888.0402 307.5495507  +6.3210189     850.7296     1439.461     1539.522     86.14399     172.1512     344.2682      1.886     3.19     1059.493      60.6708      183.172         9     1.042     0.691  24.48   0
        86    994.0265    884.5084 307.5034138  +6.3261862     873.4136      1632.16     2081.248     86.41703     171.8773     344.0286      1.907     4.71     1054.103      60.6708     133.8373         7     1.039     0.607  18.56   0
        87    762.8359    881.8550 307.5995346  +6.3195766     1818.756     2758.512      3139.45     86.14399     172.1512     344.2339      1.608     4.01     1061.824      60.6708     228.3881        17     1.213     0.941 -77.96   0
        88    586.9541    882.5248 307.6725681  +6.3134264     640.9818     819.1037     649.2521     86.14399     172.2196     344.2339      1.328     3.80      1066.68      60.6708     86.26672         6     0.832     0.499   1.73   0
        89     13.3640    879.1028 307.9109233  +6.2956134     1098.163     1264.113     1389.442     86.28062     172.0143     344.3708      1.432     5.40     1074.108      60.6708     150.7413        11     0.988     0.833  25.39   0
        90    626.8266    878.9496 307.6561268  +6.3162350     928.8737     1176.302     1316.285     85.87008     172.2196     344.1313      1.421     3.71      1065.09      60.6708     142.1532         9     0.919     0.768  -6.79   0
        91    547.6477    877.7679 307.6890548  +6.3140764     1155.924     1652.713     2336.213     86.00715     172.1512     344.1313      1.439     3.52     1067.914      60.6708     191.6274         9     1.069     0.631  61.31   0
        92    994.0241    877.6141 307.5036460  +6.3290326      1401.92     2049.789     2414.875     86.00714     171.9458     344.1313      1.690     3.17     1053.709      60.6708     229.9672        10     0.970     0.698  61.59   0
        93    681.1978    875.1237 307.6336713  +6.3196308     2669.866     4082.109     4841.557      85.7328     171.6029     344.0628      1.714     3.94     1063.164      60.6708     378.1049        24     1.402     1.053  65.38   0
        94     78.7086    872.2462 307.8840157  +6.3006399     2512.421     5562.615      6824.04     86.28062     172.0827     344.3366      2.392     9.37     1073.902      60.6708     1010.034        31     2.212     1.108  56.19   0
        95    842.2606    871.7032 307.5668845  +6.3264172     1030.335     1521.547     1539.389     86.00715     172.1512     344.3024      1.551     2.82     1060.179      60.6708     198.6582         8     0.985     0.615  55.94   0
        96     95.3623    870.4186 307.8771607  +6.3019539     1776.297     3024.297     3589.938     85.87008     172.0143     343.9258      1.864     4.79     1073.866      60.6708     263.4264        20     1.484     1.016 -83.46   0
        97    959.7707    870.6160 307.5181091  +6.3307816     923.5865     1278.997     1636.218     85.87008     171.8773     344.1313      1.421     2.70     1055.203      60.6708     157.6902         7     0.821     0.572  77.27   0
        98    221.6554    870.5018 307.8247030  +6.3061585     2083.448     3442.066     3091.692     86.14399     172.1512     344.4392      1.721     4.23     1074.465      60.6708     303.6342        21     1.380     1.060  37.23   0
        99    978.0923    868.4296 307.5105719  +6.3322944     605.7242     736.5866      875.233     86.41703     171.8773      344.097      1.325     3.26      1054.04      60.6708      115.627         5     0.745     0.445  21.28   0
       100    360.3526    865.9093 307.7672499  +6.3127040     938.1163     1705.299     1995.333     86.28062     172.0143     344.3366      1.873     5.13      1073.56      60.6708     133.9869        12     1.413     0.852 -80.75   1
       101    255.5522    866.7399 307.8107511  +6.3088486     693.6442     838.0386     1154.973     86.28062     172.1512     344.2682      1.299     4.09     1074.722      60.6708     110.9911         7     0.975     0.489 -84.00   0
       102    675.9751    864.3782 307.6362022  +6.3238929     6806.139     10518.65     11426.92     85.87008     171.9458     344.1655      1.647     3.17     1062.514      60.6708     999.9091        34     1.378     1.153  44.45   0
       103    813.1749    865.2589 307.5791826  +6.3281081     785.9058     994.0264     612.5361     85.87008     172.1512     344.0286      1.486     4.79     1060.318      60.6708     122.0103         7     0.974     0.669  10.93   0
       104     36.3278    863.1686 307.9019253  +6.3029638     1150.457     1826.936         1891     86.14399     172.1512     344.1997      1.719     5.00      1073.79      60.6708     156.7032        15     1.237     1.078  10.32   0
       105     48.7988    860.9607 307.8968204  +6.3042944     913.4814     1730.182     1747.848     85.31963     171.8773     343.8573      2.083     4.85     1073.768      60.6708     146.5022         9     1.142     0.727  78.97   0
       106    913.7424    860.4385 307.5375703  +6.3334506     3196.751      4759.16     4908.793     86.28062     172.2196     344.1997      1.577     3.19     1057.085      60.6708     462.0524        21     1.287     0.987  56.04   0
       107    359.0390    857.5906 307.7680763  +6.3160946     15193.49     24537.16     26237.68      85.5953     171.9458     343.8916      1.742     3.31     1073.377      60.6708     2151.276        51     1.590     1.251  65.50   0
       108     93.4581    858.4381 307.8783570  +6.3068362     1377.369     1673.183     1598.141     86.28062     172.2196     344.2339      1.404     3.54     1073.736      60.6708     199.5344        13     1.036     0.855  85.61   0
       109    229.9926    857.2815 307.8216869  +6.3118964      1185.67     1857.155     2075.772     85.87008     171.7402     344.0286      1.588     4.68     1074.355      60.6708     156.8945        12     1.213     0.726  35.80   0
       110    122.3755    848.8221 307.8666716  +6.3117774     1532.496     2706.261      2664.84     85.87008     171.9458     344.1997      1.955     4.68     1073.834      60.6708     194.1747        18     1.368     0.975  29.10   0
       111    436.3830    848.0244 307.7362731  +6.3226343     1018.841     1746.692     1750.551     86.00714     172.0143     344.1313      1.992     4.46     1070.774      60.6708     129.0428        11     1.052     0.840  82.05   0
       112    517.2813    845.3053 307.7027619  +6.3264639     596.6701     918.3286     815.0693     86.00715     172.4247     344.3024      1.610     4.53     1067.752      60.6708     95.52759         6     0.952     0.868  30.75   0
       113    690.5542    844.7460 307.6308069  +6.3324855     871.0274     1249.111     1713.817     86.28062     172.1512     344.2339      1.547     3.51     1061.894      60.6708     126.4259         5     0.774     0.459  72.19   0
       114    904.0403    842.0983 307.5422161  +6.3406997     2026.779     2976.075     2895.212     86.28062     172.0143     344.4392      1.458     4.73     1056.551      60.6708     325.8861        16     1.335     0.936  81.34   0
       115    874.6850    841.6918 307.5544237  +6.3398892     1971.187     2800.661     2612.469     86.00715     172.6295     344.3024      1.439     2.98     1057.959      60.6708     297.0909        15     1.088     0.819  70.41   0
       116    838.1900    841.3431 307.5695952  +6.3388166     2929.239     4434.868     4807.945      85.5953     172.1512     343.8916      1.582     3.34     1059.051      60.6708     433.0392        20     1.358     0.931  47.96   0
       117    105.8630    841.8467 307.8737661  +6.3141027      2275.28      3783.07      4289.98     86.14399     172.0143     344.3024      1.744     3.75     1073.626      60.6708     318.4242        22     1.326     1.048  42.05   0
       118    574.1201    832.8085 307.6795734  +6.3335241     312947.2     500265.4       533986     85.87008     171.7402     344.0286      1.711     3.23     1065.091      60.6708     40654.17       166     1.743     1.440  63.77   0
       119    661.8757    835.9388 307.6430158  +6.3351641     1257.773     2005.742     1667.113     86.55323     172.1512     344.1997      1.593     4.46     1062.328      60.6708     173.5341        14     1.288     0.834  68.97   0
       120    361.5864    833.7398 307.7678232  +6.3260272     11520.77     19032.91     20320.51      85.7328     172.0143     343.8916      1.790     3.36     1072.623      60.6708     1449.764        51     1.597     1.318  64.83   0
       121    679.8223    830.1340 307.6357563  +6.3381601     3323.255     5261.691     5686.424     85.87008     172.1512     344.1313      1.671     3.63     1061.752      60.6708     447.5658        26     1.323     1.153  82.67   0
       122    912.3519    828.8959 307.5392067  +6.3464277     5643.834     8178.568     8728.777     86.14399     172.0143     344.3708      1.525     2.93     1055.425      60.6708     882.9083        29     1.323     1.032  59.00   0
       123    751.6407    826.3436 307.6060512  +6.3421226     771.0622     987.3401      1219.41     86.28062     172.2196     344.2339      1.536     4.79     1060.399      60.6708     142.5193         6     0.892     0.728 -21.26   0
       124    654.8107    824.1084 307.6463486  +6.3398126     3202.481     5230.738     6155.688     86.00714     171.8087     343.9943      1.783     3.71     1062.237      60.6708     471.4583        26     1.438     1.036  56.22   0
       125    418.4167    835.4371 307.7441603  +6.3272297     7107.032     11496.85     11843.42     85.87008     172.0143     343.9258      1.770     3.35     1070.858      60.6708     963.0281        39     1.532     1.183  60.93   0
       126    843.2737    823.3904 307.5680865  +6.3463985     1492.984     2121.967     1925.349     85.87008     171.7402     344.0628      1.585     3.44     1058.117      60.6708     235.6973        13     1.129     0.727  52.24   0
       127    644.8587    822.7031 307.6505299  +6.3400604     970.9321      1998.88     3260.498     86.00714     172.1512     344.3708      2.642     4.60     1062.475      60.6708     129.6246        11     0.959     0.901 -47.91   3
       128    647.6210    818.6761 307.6495180  +6.3418153     2067.918     3440.593     4650.571     85.87008     171.9458     344.1313      1.888     3.50     1062.287      60.6708     251.0493        18     1.218     0.913  82.62   2
       129    970.1115    822.0522 307.5154430  +6.3511772     832.3233     1390.503     1492.711     86.28062     171.9458     344.3366      1.753     3.08     1052.741      60.6708     174.9117         9     0.908     0.740  11.73   0
       130    931.3080    816.6370 307.5317438  +6.3521207     3206.762     4707.834     4787.139     86.41703     172.0827     344.2339      1.539     3.13     1053.865      60.6708     489.9508        22     1.302     0.904  72.70   0
       131    341.8154    817.6568 307.7765784  +6.3320050     855.2411      1335.02      1527.56      85.5953     172.0827     343.9258      1.725     4.46     1072.763      60.6708     122.4224         8     1.085     0.522  53.65   0
       132    389.5060    812.8298 307.7569318  +6.3355955     2427.418     4184.086     4244.926     86.41703     171.8773      344.097      1.828     3.93      1071.02      60.6708     299.9105        26     1.396     1.134  34.20   0
       133    525.7335    802.6624 307.7006881  +6.3443527      2909.53     4517.086      4467.92     86.28062     172.1512     344.1997      1.679     3.46     1065.815      60.6708     398.2706        22     1.329     1.006  64.99   0
       134    870.1984    801.3979 307.5576407  +6.3563764     1126.021     1479.311       2139.8      85.5953     171.6716     343.8573      1.418     3.72      1055.82      60.6708     168.0331        11     1.094     0.719 -38.66   0
       135    572.5375    798.6584 307.6813810  +6.3475710     5707.765     8983.187     10470.02     86.41703     172.0827     344.2339      1.779     3.41     1063.785      60.6708     712.5608        35     1.452     1.199  60.31   0
       136    590.4479    799.6749 307.6739070  +6.3477500     799.1534     1208.034     1033.842     86.14399     172.2196     344.1997      1.511     2.94     1063.219      60.6708     159.7198         6     0.852     0.506  41.23   0
       137    283.9955    798.7277 307.8012344  +6.3378823     813.4862     1261.875     1504.062     85.87008     171.6716     344.0286      1.577     2.79     1073.642      60.6708      134.568         7     0.701     0.688 -24.69   0
       138    579.4955    797.8236 307.6785188  +6.3481482      1049.01     1801.023     2144.819     86.41703     171.8773     344.0628      1.938     3.49      1063.52      60.6708     142.2501         9     0.864     0.753  62.13   0
       139    490.1637    797.3476 307.7156425  +6.3453572     1451.164     2288.427      2273.43     86.14399     172.1512     344.2339      1.701     3.61     1067.098      60.6708     193.9288        14     1.050     0.896  24.28   0
       140    131.8011    796.5356 307.8645256  +6.3336809     1385.896     2060.819     2279.922      85.5953     171.8773     343.9258      1.643     3.81     1073.077      60.6708     187.0702        14     1.052     0.936  87.12   0
       141    908.1490    796.4246 307.5420427  +6.3596946     1485.852     1822.581      2536.87     85.87008     172.1512      344.097      1.346     3.53     1053.802      60.6708     221.5297        11     1.009     0.782  78.71   0
       142    708.0027    795.8898 307.6252024  +6.3532398     657.3005     898.3913     1090.181      85.5953     171.8087     343.8916      1.472     3.84     1060.304      60.6708     100.3868         5     0.835     0.506  66.11   0
       143    543.2381    792.5110 307.6937589  +6.3491294     18346.62     29040.91     30325.04     86.28062     172.0827     344.2339      1.734     3.33     1064.534      60.6708     2409.189        54     1.525     1.308  59.47   0
       144    956.7301    790.8020 307.5220503  +6.3636344     3923.326     5516.332     5441.137      85.7328     171.6716     343.9943      1.496     3.34     1051.963      60.6708     567.8274        20     1.280     0.869  61.58   0
       145     53.5891    783.0919 307.8974670  +6.3366042     1394.181     2536.133     2575.267     86.00714     171.8087     343.9943      1.984     4.74     1072.669      60.6708     182.4353        20     1.298     1.168  88.68   0
       146    335.8743    781.2165 307.7802764  +6.3468510     2954.427     4970.661     5397.591      85.7328     171.8773     344.0628      1.778     3.67     1071.383      60.6708     419.1952        27     1.497     1.041  44.16   0
       147    801.3475    776.9952 307.5870618  +6.3641561     53966.37     82926.23     87442.25     85.59529     171.8773     343.7888      1.633     3.14     1057.586      60.6708     7855.146        70     1.581     1.242  65.31   0
       148     35.8845    779.4625 307.9049437  +6.3375077     2070.724     3617.477     3873.682     86.41703     172.2196     344.1997      1.947     4.34     1072.559      60.6708     276.6726        23     1.523     1.013  48.69   0
       149    258.1967    753.5500 307.8134771  +6.3556696     760975.5      2021969      2296214      85.5953     171.8773     343.7545      2.471     5.38     1072.769      60.6708     63482.62       572     2.735     2.065  78.16   4
       150    723.2736    768.1063 307.6197934  +6.3652209     84317.57     131350.8     139534.4     86.14399      172.288     344.1997      1.689     3.20     1058.534      60.6708     11688.87        85     1.628     1.325  66.08   3
       151    926.5939    772.1412 307.5351956  +6.3703353     8983.465      13321.5     14159.44      85.7328     172.0143     343.8916      1.571     3.04      1052.08      60.6708     1302.327        35     1.437     1.113  67.64   2
       152    923.5044    763.6153 307.5367653  +6.3737526     7112.712     10412.85     11260.66     86.00715     171.8773     343.9943      1.582     3.07     1051.882      60.6708      1028.78        35     1.480     1.046  62.69   2
       153    368.2153    769.0585 307.7672528  +6.3529542     18182.76     30963.05     33414.22      85.5953     172.0827     343.9258      1.823     3.48      1069.54      60.6708     2225.609        57     1.669     1.318  62.73   0
       154    430.1141    766.9020 307.7416133  +6.3559176     19490.19     32860.34     34872.01     86.28062     172.6295     344.2682      1.828     3.57     1067.702      60.6708     2413.355        57     1.623     1.331  67.22   0
       155    417.3483    769.3445 307.7468337  +6.3544817     1386.147     2116.362     1963.251     86.28062     172.1512     344.1655      1.681     4.26     1068.258      60.6708     165.9518        15     1.106     0.981 -25.55   0
       156    656.6581    768.8663 307.6474405  +6.3626826     818.9661     1352.316       1839.6     86.41703     172.0827     344.1997      1.642     4.55     1060.441      60.6708     110.8335         6     0.926     0.634 -25.10   0
       157    729.4300    771.4655 307.6171230  +6.3640395     20971.57     33455.32     36613.45     86.00715     172.1512     344.1313      1.759     3.37       1058.5      60.6708     2589.326        50     1.561     1.253  69.67   3
       158    967.0946    765.7364 307.5185858  +6.3743288     2109.111     3513.098     3742.614     86.14399      172.288     344.2682      1.730     4.60      1050.86      60.6708     308.4376        25     1.595     0.987  74.98   0
       159    895.7617    764.5604 307.5482584  +6.3724380     798.1112     1162.344     1359.482     86.00715     172.1512     344.0628      1.564     4.29     1052.784      60.6708     103.9723         7     0.966     0.543  58.01   0
       160    664.0759    762.8000 307.6445633  +6.3654350     6005.582     9597.538      10743.5     85.45757     171.4656     343.9601      1.709     3.44     1060.107      60.6708     742.7146        32     1.471     1.112  70.41   0
       161    452.7048    760.8272 307.7324341  +6.3591819     1360.244     2475.012     2913.842     86.41703     171.8773      344.097      1.941     4.89      1066.57      60.6708     187.6539        16     1.278     1.013  75.13   0
       162    178.2265    760.6182 307.8464566  +6.3500684     820.1214     1323.215      1504.73     85.87008     171.9458      344.097      2.135     5.59     1072.852      60.6708     103.0782         9     1.185     0.744 -75.33   0
       163    617.7362    754.9124 307.6640787  +6.3671435     746.5076     1241.654     1514.326     86.28062     172.3563     344.1997      1.853     5.60     1060.528      60.6708     87.56226        10     1.381     0.639 -82.51   0
       164    892.8091    754.5714 307.5498204  +6.3764639     474.4602      855.329       758.35     85.87008     171.9458     344.0628      1.652     3.40     1052.361      60.6708     82.46826         5     0.739     0.452  20.20   0
       165    699.0817    752.8499 307.6303562  +6.3707123     2233.587     3445.502     3636.593     86.28062     172.2196     344.2339      1.697     3.64     1058.655      60.6708     343.6777        21     1.300     0.963  69.95   0
       166    143.4753    753.2101 307.8611421  +6.3519604     998.4931     1627.985     1600.886     85.87008     171.7402     343.9943      1.783     4.44     1072.475      60.6708     159.8313        13     1.175     0.832 -18.26   0
       167    433.0221    749.5560 307.7409905  +6.3631766     46418.48      79061.7     85093.52      85.7328     172.0143     343.9943      1.841     3.56     1066.834      60.6708     6132.587        79     1.694     1.426  64.63   0
       168    550.6224    748.5073 307.6921741  +6.3675444      6471.92      10168.7     11256.46     86.28062     171.9458     344.0286      1.777     3.45      1061.77      60.6708     818.0691        36     1.468     1.181  58.27   0
       169    467.5833    747.2047 307.7267130  +6.3653043     3996.691     6737.146     7187.749     85.87008     171.8087     344.0286      1.863     3.89     1065.273      60.6708     477.9058        32     1.476     1.215  61.92   2
       170    464.0411    740.5530 307.7284087  +6.3679320     2032.162     3323.429     3569.073     86.14399     172.1512     344.0286      1.789     4.28     1065.128      60.6708     254.1571        20     1.281     1.078  87.10   2
       171    795.8893    745.0800 307.5904019  +6.3771512     11142.02     17315.15     18237.68     86.00714     172.4247     344.3024      1.645     3.10     1055.586      60.6708     1618.973        46     1.575     1.229  69.27   0
       172     25.3917    741.4443 307.9105896  +6.3528511     1078.732     1895.415     2744.425      85.7328     172.0143     343.9258      2.295     6.09      1071.56      60.6708     133.0977        12     1.257     0.830  64.20   0
       173    817.3836    739.1051 307.5816735  +6.3803351     1267.936     1862.238     1996.665     86.00714     171.9458     344.0286      1.643     3.67     1054.332      60.6708      166.157        13     1.037     0.864  58.55   0
       174    153.8008    737.2396 307.8573933  +6.3589007     9877.305     16949.12     18935.98     85.31963     171.8773     343.8573      1.861     3.61     1072.421      60.6708     1320.459        50     1.665     1.331  62.67   3
       175    145.9115    734.6685 307.8607574  +6.3596973     2561.541     4539.297     5731.526     86.41703     172.4247     344.1655      2.102     5.40     1072.218      60.6708     337.9105        28     1.564     1.211  72.43   3
       176    146.0868    728.0383 307.8609089  +6.3624406     1625.701     2741.669     3192.399     86.28062     172.0827     344.1997      1.787     4.67     1071.943      60.6708     233.6241        18     1.265     1.076  44.69   3
       177    985.6394    738.7513 307.5117872  +6.3860880     714.3187     1040.766     1159.783     86.14399     172.1512     344.0628      1.490     2.19     1049.494      60.6708     140.8911         5     0.712     0.435  68.95   0
       178    161.9087    737.5114 307.8540162  +6.3590606     2641.867     4426.404     4553.123     86.28062     172.6977     344.3024      1.784     3.69     1072.547      60.6708     360.4338        24     1.278     1.139  50.41   0
       179    941.5057    733.6407 307.5302932  +6.3867283     6795.238     9903.814     10251.64     86.41703     172.0827     344.3024      1.583     2.91     1050.354      60.6708     936.7673        35     1.340     1.194  44.68   0
       180    990.5291    733.8292 307.5099209  +6.3882831       1517.5     2349.378     3086.053     86.14399     172.1512     344.1655      1.603     3.22     1049.151      60.6708     233.9346        12     1.063     0.717  85.65   0
       181    697.0119    731.3908 307.6319381  +6.3795032     1590.655     2693.112     3358.505     86.00714     171.9458     344.1313      1.907     4.60     1057.648      60.6708     203.8788        19     1.416     0.943  51.71   0
       182    583.7180    730.7791 307.6790231  +6.3759705     1959.484     3145.153     3005.042     86.00715     171.8087     344.1313      1.664     3.79     1060.233      60.6708     270.2803        17     1.140     1.030  -0.19   0
       183    432.0345    730.3304 307.7420493  +6.3710813     1020.257     1721.505     1743.458     86.14399     172.1512     344.2682      1.668     4.82     1065.952      60.6708     192.8196        10     1.190     0.626 -67.81   0
       184    995.8386    724.7991 307.5080181  +6.3921883     1893.415     2835.665     2629.281     85.31963     171.9458     343.8916      1.498     3.86      1048.54      60.6708     319.9949        17     1.328     0.798  83.52   0
       185    935.5817    725.7481 307.5330191  +6.3897897     3080.113     4672.179     5688.973      85.7328     172.2196     343.9258      1.710     3.19     1050.203      60.6708     470.1331        23     1.484     0.940  46.28   0
       186    964.9614    725.2270 307.5208313  +6.3909835     3196.633     4535.851     4595.607     85.87008     171.9458     344.0286      1.481     3.29      1049.38      60.6708     485.7377        21     1.243     1.038  19.04   0
       187    688.1914    724.8439 307.6358226  +6.3819117     1314.019     1967.412     2289.745      85.7328     171.9458     343.9258      1.580     4.31     1057.575      60.6708     162.3785        11     1.014     0.748 -10.13   0
       188    835.0596    723.2396 307.5748635  +6.3874752     1083.741     1696.486      1424.29     86.28062     172.1512     344.3024      1.725     3.85     1052.744      60.6708     151.5436         8     0.950     0.612  65.92   0
       189    910.6461    721.6113 307.5435171  +6.3906670     689.0509     1167.897     1738.966      85.7328     171.9458     343.8573      1.673     4.01       1050.6      60.6708      119.105         6     1.315     0.349  75.05   0
       190    260.8917    720.4741 307.8134753  +6.3694159      1521.72      2835.85     3003.901     86.28062      172.288     344.2339      1.991     4.24     1071.408      60.6708     205.7245        18     1.301     0.983  47.70   0
       191    953.0091    715.0344 307.5261388  +6.3947938     989.5257     1399.736     1383.838      85.7328     171.9458     343.9943      1.525     4.61     1049.284      60.6708     148.5894        12     1.047     0.943  55.11   0
       192    927.2378    713.9657 307.5368810  +6.3943766     1145.585     1769.627     2103.062     86.00714     171.9458     343.9601      1.742     4.43     1050.006      60.6708     169.3015        10     1.121     0.671  61.46   0
       193    176.2319    714.6443 307.8488399  +6.3689824     784.9243     1205.863     983.5596     86.00715     172.2196     344.0628      1.664     3.50     1071.541      60.6708     122.8905         7     0.869     0.808   1.62   0
       194    980.0803    712.9094 307.5149636  +6.3965727     2544.088     3682.634     3577.494     86.00714     172.3563     344.2682      1.472     3.08     1048.377      60.6708     439.0867        18     1.150     0.884  50.09   0
       195    699.6635    711.8884 307.6314927  +6.3876439      1065.77     1717.549     2510.214     86.14399     172.3563     344.2339      1.855     5.42     1056.294      60.6708     141.2349        12     1.311     0.804  45.00   0
       196   1021.7460    706.1998 307.4978790  +6.4007300     1882.085     2637.075     2685.091     85.45757     162.8692     290.4098      1.510     3.11     1046.668      60.6708     282.5591        16     1.093     0.883  72.19  16
       197    823.1454    704.3152 307.5804490  +6.3948914     1110.705      1738.48     1706.986     86.28062     172.1512     344.3708      1.601     4.15     1052.296      60.6708      166.201        12     1.160     0.757  28.66   0
       198    909.4239    702.2589 307.5446746  +6.3986166      1647.14     2683.467     3313.375     85.87008     172.1512     344.0628      1.794     3.60     1049.968      60.6708     247.4921        17     1.159     1.004  55.59   0
       199    883.7584    697.6162 307.5554931  +6.3996781     1019.921     1439.222     1840.297      85.7328     171.9458     343.9601      1.553     4.24     1050.376      60.6708     132.1465        11     1.068     0.722 -45.07   0
       200    866.1375    693.4021 307.5629551  +6.4008307     1380.374     2230.363     2516.078      85.5953     171.9458     343.9258      1.781     4.01     1050.619      60.6708     237.1821        15     1.283     0.827  84.13   0
       201     65.5916    692.8082 307.8955382  +6.3742820     2148.375     3928.005     3941.595      85.5953     171.9458     344.0628      1.852     4.59     1071.237      60.6708     296.9565        25     1.523     1.065  62.34   0
       202    129.8427    691.3019 307.8688994  +6.3770622     930.3999     1983.353     2506.331     86.28062     172.0143     344.4392      2.244     7.27     1070.654      60.6708     142.0881        15     1.608     0.921  77.45   0
       203    678.0491    681.0759 307.6415089  +6.3996439     5613.864     9291.933     10026.99     86.14399     172.2196     344.1997      1.747     3.48     1054.636      60.6708     760.8088        35     1.461     1.183  62.85   0
       204    624.8252    680.4725 307.6636404  +6.3981149     1080.643      1597.78     1890.417     85.87008     172.0143      344.097      1.766     5.16     1056.982      60.6708     139.4691        10     1.002     0.752  80.81   0
       205    535.4145    680.1855 307.7007941  +6.3952442     674.7363     972.2101      893.536     86.00715     171.8087     344.1313      1.696     4.94     1060.038      60.6708     102.1517         5     0.989     0.700   9.16   0
       206    651.8033    676.7017 307.6525596  +6.4005732     1857.754     3055.808     3125.142     86.00714     171.8773     343.8573      1.787     4.25     1055.472      60.6708     213.3193        19     1.238     1.060 -89.53   0
       207    141.2340    677.0425 307.8646500  +6.3833319     3185.107     5590.658     5878.547     86.00714     172.1512     343.9943      1.854     3.75     1070.027      60.6708     427.0288        30     1.445     1.222  66.88   0
       208   1014.8145    676.2597 307.5017630  +6.4128612     2737.119     4059.548     4821.196      85.7328     172.0827     343.9258      1.581     2.90      1045.11      60.6708     473.8541        20     1.284     0.878  78.95   0
       209    327.0236    677.6373 307.7874507  +6.3893190       561.94     989.7919     1096.777     85.87008     171.8773     343.9601      2.258     4.67     1066.657      60.6708     78.31519         5     1.061     0.582 -74.71   0
       210    794.9812    673.1812 307.5931960  +6.4068067     18694.46     29517.97      31119.1     86.00714     172.0827     344.1313      1.671     3.24      1051.35      60.6708     2624.985        53     1.556     1.253  59.22   0
       211    924.9213    672.9110 307.5392217  +6.4112502     3574.614     5399.442     6117.592     86.00714     172.4247     344.3366      1.560     3.15     1048.612      60.6708     527.7324        21     1.284     0.906  55.96   0
       212    494.0109    673.7122 307.7182126  +6.3965318     1091.139     1871.679     1540.719     85.87008     171.8773     344.0628      1.808     5.48     1060.576      60.6708     145.5674        12     1.157     0.821 -73.56   0
       213    522.6951    672.8226 307.7063263  +6.3978587     704.6494     1062.949      940.097     86.28062     171.9458     344.0286      1.561     4.21     1060.038      60.6708     101.1479         6     0.755     0.670 -35.16   0
       214    268.5240    666.9730 307.8121127  +6.3917607     5096.598     8630.849     8655.988     86.14399     172.0827     344.1655      1.829     3.98     1067.936      60.6708     623.8127        35     1.487     1.223  74.86   0
       215    675.3546    665.9716 307.6431367  +6.4057902     6190.646     10214.64        10503      85.7328     172.2196      344.097      1.750     3.46     1053.807      60.6708     742.8928        37     1.498     1.203  54.15   0
       216    658.5358    666.9291 307.6500917  +6.4048330     612.7886     1100.278     1321.881     86.28062     172.1512     344.1997      1.858     4.94     1054.587      60.6708     98.35364         7     1.091     0.632 -49.41   0
       217    935.2345    658.6187 307.5354168  +6.4174949     1157.715     1770.235     2323.392      85.7328     171.9458     343.9943      1.703     3.24     1047.758      60.6708     172.2238        10     0.911     0.798  10.51   0
       218    747.1500    654.3095 307.6137020  +6.4130023     3236.887     5363.183     5878.387     86.28062     171.9458      344.405      1.757     3.83     1052.292      60.6708     431.9929        27     1.501     1.032  69.98   0
       219    702.7734    654.7748 307.6321225  +6.4113288     1018.946     1757.069      2641.82      85.7328     171.9458     344.0628      2.196     5.99     1053.069      60.6708     125.2587        11     1.339     0.755  51.20   0
       220   1013.4664    650.9333 307.5031726  +6.4232732     9447.053     13380.74     14173.09     86.28062     172.1512     344.2339      1.499     2.99     1044.954      60.6708     1438.588        32     1.332     1.059  64.38   0
       221    951.9805    651.4402 307.5287006  +6.4210166     2493.683     3471.415     3982.733     85.87008     171.9458     343.8916      1.491     3.04      1046.92      60.6708     370.9187        19     1.237     0.867  33.59   0
       222     32.7449    650.5896 307.9106124  +6.3906084     1677.861     3065.856      4237.58      85.5953     172.0827     343.8573      2.320     4.54     1071.231      60.6708     238.6121        19     1.288     1.061  31.62   0
       223   1002.2479    650.6136 307.5078442  +6.4230318     487.5718     702.3316     912.2429      85.5953     172.0143     343.9258      1.177     3.50     1045.308      60.6708     85.05334         5     0.781     0.453 -16.36   0
       224     90.9484    645.8971 307.8865930  +6.3945017     21985.63     37847.69     40137.23     86.14399     172.1512     344.4392      1.830     3.55     1070.295      60.6708     2699.286        64     1.696     1.368  64.36   0
       225    552.0742    646.9779 307.6949922  +6.4095120     1732.885     3103.042     2864.208     85.87008     172.0143     344.1313      1.854     4.41     1058.419      60.6708     197.2352        20     1.296     1.074  88.89   0
       226    520.9806    643.9473 307.7080119  +6.4097232     1046.602     2039.758     1820.598      85.7328     172.2196     343.9943      1.895     5.27     1059.082      60.6708     154.8572        16     1.380     0.939   4.48   0
       227    941.9251    642.7298 307.5331706  +6.4242781     1054.078      1328.73     1049.075     86.55323      172.288     344.1997      1.372     5.04     1046.976      60.6708     153.9418        11     1.112     0.905 -88.13   0
       228    736.7802    638.0549 307.6185568  +6.4193674     3310.753     5608.579     5968.938      85.7328     172.1512     343.9943      1.836     3.66     1052.116      60.6708     429.3004        28     1.455     1.086  60.31   0
       229    561.3849    640.4671 307.6913435  +6.4125115     1032.245     1664.248     1368.575      85.7328     172.0143      344.097      1.786     4.43      1057.74      60.6708     133.1337        13     1.134     0.825  52.25   0
       230    758.9144    636.3693 307.6094177  +6.4208022     3751.617     5891.533     5993.675     86.28062     171.9458     344.0628      1.687     3.57     1051.217      60.6708     476.4426        25     1.387     1.040  65.31   0
       231    590.2792    634.2766 307.6795481  +6.4160335     2797.881     4803.484     4639.004     86.55323     172.4247     344.3024      1.797     4.10      1056.12      60.6708     369.4033        30     1.529     1.194  75.30   0
       232    426.4480    634.7316 307.7475953  +6.4103643     1137.997     1987.077     2369.035     86.28062     172.0827     344.1997      2.252     4.97     1061.526      60.6708     168.0377        11     1.085     0.939 -75.50   0
       233    250.9449    633.8102 307.8205362  +6.4048629       1588.5     2751.582     2776.978      85.5953     172.0827     343.8573      1.795     4.10     1066.606      60.6708     207.5662        17     1.135     1.073 -80.05   0
       234    997.1075    631.2432 307.5106297  +6.4308584     8338.685      12446.9     13129.97     86.28062     172.1512     344.3366      1.571     2.82     1045.277      60.6708     1361.243        39     1.513     1.102  65.33   0
       235    334.4618    633.1924 307.7858617  +6.4079183     1085.696      2156.23     2313.694      85.5953     171.9458     343.9601      2.009     6.77     1063.932      60.6708     146.7386        15     1.381     0.931  57.81   0
       236    717.0239    629.8578 307.6270404  +6.4220923     956.8914     1369.806       1594.4     85.87008     172.1512     344.0286      1.526     4.48     1052.037      60.6708     137.4353        10     1.002     0.720 -62.76   0
       237    109.3611    628.6614 307.8795276  +6.4022362     698.0194     1444.179     1484.964     86.28062     172.1512     344.2339      2.096     5.54     1069.539      60.6708     142.0674         9     1.398     0.620 -85.52   0
       238    442.4213    625.8306 307.7412597  +6.4145741     2347.936      4149.23     4442.749      85.7328     171.9458     344.0628      1.906     4.32     1060.565      60.6708     275.0166        27     1.498     1.134  54.00   0
       239    155.6558    624.8644 307.8604243  +6.4053585     19797.15     34742.17     36924.02     86.41703     172.0827     344.1997      1.896     3.80     1068.278      60.6708     2516.355        63     1.699     1.400  65.03   0
       240    823.9750    625.3288 307.5827589  +6.4275312     1061.153     1749.858     2143.071     85.87008     172.0143     344.1313      1.770     3.34     1049.021      60.6708     150.2133        10     0.876     0.821  28.29   0
       241    992.1011    614.2866 307.5132787  +6.4376929     7151.146     11313.79      11961.4     86.28062     172.6295     344.2682      1.698     3.26     1045.194      60.6708     1034.004        44     1.735     1.163  40.41   0
       242     36.8670    613.7910 307.9101465  +6.4059396     1151.661     1818.299     1297.928      85.7328     171.9458      344.097      1.551     5.18      1070.76      60.6708     176.9591        12     1.240     0.733  56.83   0
       243    585.6479    609.5939 307.6823037  +6.4260696     40410.29     70078.62        75748      85.7328     171.9458     343.8231      1.877     3.79     1055.098      60.6708     4805.648        76     1.713     1.429  62.35   0
       244    949.4783    611.2269 307.5310900  +6.4375367     641.8766     1032.463     852.1442     86.14399     172.0827     344.1655      1.597     3.44     1045.806      60.6708     99.43689         5     0.765     0.447  68.97   0
       245    545.1114    609.3244 307.6991538  +6.4248253     561.8459     787.7769     963.6817     86.28062      172.493     344.3024      1.523     4.46      1057.33      60.6708      95.4873         5     1.133     0.499  55.12   0
       246    193.3818    606.5255 307.8453722  +6.4141964     2353.233     4638.043     4739.905      85.7328     171.8773      344.097      2.062     4.93     1067.033      60.6708     261.2389        31     1.587     1.312  59.95   0
       247    996.2042    605.3143 307.5118750  +6.4415340     698.9334     965.0167     780.1895      85.7328     171.7402     343.8916      1.458     4.22     1044.802      60.6708     96.65015         6     0.768     0.659 -83.94   0
       248     85.9380    600.3966 307.8902149  +6.4131187     1063.104     1901.505     1887.905     85.59529     171.9458     343.8916      1.877     6.48     1069.387      60.6708     150.9873        13     1.351     0.872  79.36   0
       249    482.8953    593.4175 307.7255381  +6.4293114     50685.66     91225.41     98966.98     86.14399     171.9458     344.0286      1.949     3.90     1057.791      60.6708      6054.94        86     1.764     1.505  66.38   0
       250    157.5881    588.5878 307.8608488  +6.4204006     1379.311     2185.354     2075.939     86.14399     171.8773     344.1313      1.723     5.17      1066.94      60.6708     165.9791        15     1.173     0.956 -26.47   0
       251    628.5490    585.5187 307.6652908  +6.4374436     676.0564     1118.201     1004.506     86.28062     172.2196     344.1997      1.654     4.11     1052.135      60.6708     105.0139         5     1.160     0.416  35.67   0
       252    435.9099    586.1044 307.7453052  +6.4307579     673.8183     1511.465     1925.526     86.28062     172.6295     344.1997      2.862     5.62     1058.632      60.6708     79.99084         7     1.185     0.750 -23.43   0
       253    328.1709    582.7527 307.7901787  +6.4285324     1728.247     3278.623     3845.861     85.87008     172.2196      344.097      2.104     4.19     1061.432      60.6708     239.6328        23     1.376     1.129  59.51   0
       254    669.3070    590.1387 307.6482017  +6.4368979     587.0007     1040.164     1069.156     86.14399     172.1512     344.2682      2.016     5.38     1051.099      60.6708     90.02576         6     1.492     0.547  59.81   0
       255     26.5352    595.3010 307.9150648  +6.4132260     1501.375     2593.937     2907.813     86.28062     172.2196     344.2339      1.963     4.48     1070.662      60.6708     210.0309        19     1.288     1.054  84.77   0
       256    754.9376    576.9821 307.6130673  +6.4451892     4612.618     7805.281     8076.419     85.87008     172.0827     344.0286      1.774     3.69     1049.134      60.6708     541.5339        31     1.455     1.150  63.89   0
       257    808.4281    572.0969 307.5910075  +6.4489911     12908.04     20406.53     21698.05     86.41703     171.8773     344.1655      1.730     3.35     1047.415      60.6708     1594.642        47     1.558     1.230  63.47   0
       258    551.2764    572.2586 307.6978418  +6.4403351     1052.336     1949.802     1929.932     86.41703     172.1512     344.1655      2.043     6.52     1054.673      60.6708     133.4607        13     1.249     0.954   5.69   0
       259    632.4589    570.3244 307.6641781  +6.4438477     2387.845     4228.942     4295.105     86.41703     172.2196     344.1655      1.847     4.18     1051.381      60.6708     271.5804        26     1.343     1.205  64.03   0
       260     53.6118    571.2000 307.9046328  +6.4240864     608.4214      835.179     1289.585      85.7328     171.7402     343.9943      1.487     3.46     1069.469      60.6708     77.83264         5     0.773     0.448 -72.20   0
       261    949.0908    566.3480 307.5327576  +6.4560536     1069.439     1715.384     1966.733     86.14399     171.9458      344.405      1.618     2.65     1044.052      60.6708     216.8798         9     0.949     0.585  52.99   0
       262    391.4734    564.1698 307.7645069  +6.4383259     677.4084     1341.165     1514.769     86.14399     172.1512     344.1997      2.106     5.51     1058.714      60.6708     99.17834         7     0.983     0.872  50.43   0
       263    244.9685    564.0447 307.8253773  +6.4334662     1049.536     1807.313     2311.203     85.87008     172.2196     344.0628      1.976     5.03     1062.964      60.6708     134.4144        11     1.166     0.848  15.93   0
       264    884.3445    555.3553 307.5600280  +6.4584349     2674.993     4051.042     4131.188     86.28062     172.1512     344.1997      1.639     3.43     1045.851      60.6708     365.8002        22     1.259     1.013  51.10   0
       265    843.2582    552.5769 307.5771923  +6.4582122     2331.649     3710.016     4218.484     85.87008     172.1512     344.0286      1.710     3.36     1046.525      60.6708     314.1472        16     1.063     0.963  26.22   0
       266    814.1868    548.8407 307.5893967  +6.4587852     2333.986     4083.341     5339.832      85.7328     171.9458     343.9258      2.165     4.15     1046.683      60.6708      301.469        21     1.332     1.021 -77.10   0
       267    823.8612    544.0349 307.5855386  +6.4610921       142482     231555.3     248081.3     86.28062     172.1512     344.1655      1.742     3.36     1046.411      60.6708     17948.94       122     1.744     1.425  68.34   0
       268    271.2914    547.8347 307.8149893  +6.4410417     6297.125      11454.9     12195.16     86.41703     172.0143     344.2339      1.944     4.01     1061.338      60.6708     769.3514        45     1.594     1.381  67.68   0
       269    205.5386    542.4438 307.8424889  +6.4410614     47511.03     85862.23     93337.16     86.28062     172.0827     344.3366      1.969     3.97     1063.065      60.6708     5827.593        86     1.803     1.510  68.36   0
       270    129.6136    538.7417 307.8741574  +6.4400408     5099.015     9474.406     10173.96      85.5953     172.0827     343.8916      1.984     4.03     1065.972      60.6708     660.2592        41     1.600     1.378  66.62   0
       271    994.5721    536.0417 307.5148776  +6.4700813     1271.835     1865.536     1819.693     85.87008     172.0827     344.0286      1.500     3.57     1040.359      60.6708     172.5897        11     1.010     0.791  83.25   0
       272    243.9984    535.0375 307.8267610  +6.4454098      613.687     735.6462     319.2696     85.31963     171.9458     343.9601      1.327     3.82     1061.529      60.6708     94.21265         5     1.076     0.390 -56.04   0
       273   1015.2307    534.4311 307.5063480  +6.4714341     675.0789     913.5133     806.5738      85.7328     171.8773     343.9258      1.323     2.37     1039.258      60.6708     124.5165         5     0.703     0.447  23.09   0
       274    860.3191    531.3148 307.5708181  +6.4675598     4172.717     6348.626     6907.139     86.00715      172.493     344.3024      1.664     3.35     1045.154      60.6708     569.3459        29     1.360     1.127  77.81   0
       275    378.9059    529.4974 307.7708988  +6.4522200     13343.57     24694.13     26237.28     86.28062     172.7659     344.0628      1.990     4.12     1057.115      60.6708     1542.639        58     1.710     1.444  61.03   0
       276    468.3395    530.2305 307.7337168  +6.4549124     525.7958     928.2226     1271.386     86.00715     172.1512     344.1655      1.819     5.27     1054.543      60.6708     75.08228         5     1.421     0.551 -49.99   0
       277    180.8824    528.2825 307.8532115  +6.4460805     1653.322     2755.706     3121.283     86.00714     172.4247     344.3024      1.818     4.02      1063.67      60.6708     211.5869        17     1.119     1.032   5.30   0
       278    814.2491    524.5989 307.5901857  +6.4687963     5240.628     8450.725     9360.798      85.5953     171.7402     343.7203      1.759     3.58     1045.692      60.6708     677.8245        31     1.426     1.168  68.79   0
       279    545.2114    524.3737 307.7019756  +6.4599027     4943.548     9066.274     9450.783     85.87008     171.9458     344.1313      1.948     4.16     1052.168      60.6708      530.202        36     1.534     1.335  62.75   0
       280    118.6452    525.9053 307.8791487  +6.4449720     658.5901     1158.182     546.9077     86.14399     172.0827     344.3366      1.824     4.78     1065.899      60.6708     114.1331         5     1.006     0.643  15.12   0
       281    403.2182    520.6979 307.7610947  +6.4566675     1239.777     2277.288     2278.556     86.14399     172.0143     343.9258      1.905     5.20     1055.993      60.6708     165.9952        10     1.069     0.716  40.18   0
       282    192.2281    517.5190 307.8488619  +6.4509052     5423.314     9954.633     10925.37     86.14399     171.9458     344.1655      1.982     4.04     1062.932      60.6708     635.4065        43     1.693     1.354  73.84   0
       283    830.7853    516.8297 307.5835762  +6.4725556     1299.274       2072.1     2586.252     85.87008     171.8773     344.1313      1.907     5.29     1044.931      60.6708     171.9771        16     1.416     0.834  64.38   0
       284    589.8126    517.2179 307.6836857  +6.4643486      1875.61     3411.981       3583.2     86.00714     171.8087      344.097      1.984     4.52     1050.643      60.6708     211.0164        23     1.333     1.131 -41.81   0
       285    287.5338    514.0670 307.8093824  +6.4555280     68018.54       125960     137671.2     86.28062     172.1512     344.2339      2.007     4.06     1059.138      60.6708     7969.375       101     1.844     1.557  67.14   0
       286     63.8351    516.3265 307.9022440  +6.4470851     4087.422     7469.931     7896.799     86.14399     172.1512     344.1313      1.919     3.95     1067.615      60.6708     489.1512        39     1.590     1.370  49.97   0
       287    577.1363    511.0281 307.6891611  +6.4664804      693.261      1381.36     2477.513     85.87008     172.1512     344.1313      2.647     6.25      1050.76      60.6708     101.3414         7     1.340     0.833  37.73   0
       288    271.2299    509.0595 307.8163254  +6.4570486     1227.988     2260.179     2772.547     86.00714     172.1512     344.1655      2.170     5.00     1059.525      60.6708     143.2947        14     1.173     0.904  81.75   0
       289    810.5998    506.3805 307.5923145  +6.4761966     14270.15     23245.79        24506     85.87008     171.6716     343.8573      1.786     3.45     1044.953      60.6708     1784.791        50     1.567     1.266  62.95   0
       290    514.2744    504.8553 307.7154875  +6.4669264     31838.23     62406.33     69947.45     86.14399     172.0827     344.1313      2.128     4.31     1052.039      60.6708     3288.129        90     1.898     1.643  49.71   0
       291    986.7057    507.6460 307.5190991  +6.4815435     1575.025     2338.531     2437.128     86.14399     172.0827     344.3366      1.567     3.27     1039.614      60.6708     236.2289        12     1.018     0.819  52.41   0
       292     62.3482    501.5944 307.9033607  +6.4531173     1099.337     1855.022     1448.062      85.7328     171.9458     343.8231      1.790     5.43     1067.255      60.6708     145.4075        13     1.345     0.891 -78.08   0
       293    226.7467    500.9305 307.8350816  +6.4589125     1414.503     2815.936     3214.248     86.14399     172.0143      344.097      2.157     4.79     1060.947      60.6708     182.9407        19     1.290     1.089 -84.07   0
       294    112.7011    501.0698 307.8824589  +6.4550259     609.2716     991.3566     895.4758     86.14399      172.288     344.1997      1.783     6.21     1065.114      60.6708     95.43994         7     1.068     1.016  86.90   0
       295    684.3134    500.0113 307.6450008  +6.4746108     1178.207     1951.992     2271.948     85.87008     171.8773     344.0286      1.769     4.77      1047.16      60.6708     130.1497        13     1.078     0.956 -18.96   0
       296    673.9379    499.7073 307.6493220  +6.4743897     2664.455       4604.2     5048.882     86.28062     172.1512     344.2682      1.923     3.91      1047.47      60.6708      288.001        28     1.357     1.202  84.37   0
       297    736.3495    498.8682 307.6234183  +6.4768204     1041.474     2049.146     2328.066     86.14399     172.0143     344.1655      2.125     5.98     1045.488      60.6708     142.3492        11     1.207     0.833  38.39   0
       298     92.8932    499.6879 307.8907351  +6.4549309     441.8939     905.6901     1319.695     86.28062     172.6295     344.2682      2.935     6.24     1065.709      60.6708     99.38538         5     1.356     0.806 -38.81   2
       299     94.0874    496.3327 307.8903526  +6.4563563     373.5123     898.2464     1583.515     86.41703     172.3563     344.2339      3.184     5.94     1065.489      60.6708     117.6858         6     2.092     0.474  -8.48   2
       300    411.9544    495.5688 307.7583133  +6.4673352     1286.585     2351.207     2264.379     85.87008     172.2196     344.0628      1.931     6.71     1054.446      60.6708     147.2428        18     1.377     1.031  34.25   0
       301    343.3888    493.7887 307.7868611  +6.4657728     3016.179     5678.271      6173.36     86.14399     171.9458     344.1997      2.029     4.59      1056.04      60.6708     354.5663        34     1.643     1.247  85.43   0
       302    158.6304    492.4560 307.8636685  +6.4601248     20588.05      37586.4     40534.99     86.14399     172.2196     344.1313      1.961     4.06     1063.582      60.6708     2567.171        65     1.729     1.458  63.78   0
       303    523.4276    493.1096 307.7120805  +6.4720821     1637.875      2825.61     2866.107     86.41703     171.8773     344.0628      1.894     4.02     1051.213      60.6708     201.8411        20     1.238     1.067  75.92   0
       304    886.4016    492.2112 307.5612947  +6.4845745     1393.677     2215.345     2489.691     85.87008     171.8087     343.9943      1.794     3.77     1041.977      60.6708     196.8284        14     1.046     0.909  34.64   0
       305    123.8488    490.7197 307.8781779  +6.4596735     2219.762     3983.934      3589.37     86.28062     172.2196     344.1997      1.898     4.39     1064.438      60.6708     281.9375        27     1.525     1.142  72.87   0
       306      3.8513    490.7277 307.9280318  +6.4556370     1726.859     3052.812     2763.635     86.28062     168.9047     299.9077      1.918     4.52     1069.863      60.6708     243.0243        23     1.452     1.050  72.17  16
       307    984.0316    486.8138 307.5209094  +6.4900558     4912.501     7505.604     7921.788     85.87008     171.8773     344.1313      1.608     3.05     1038.853      60.6708      766.728        30     1.366     1.080  64.33   0
       308    360.6912    487.3433 307.7798900  +6.4690138      655.985     1537.051     2058.983     86.14399     172.0143     344.3024      2.419     4.86     1055.058      60.6708     114.2035         7     1.046     0.639  16.79   0
       309    557.6744    479.3988 307.6983134  +6.4788885     1222.827     1999.041     2267.264     85.45757     171.5343     344.0628      1.642     5.01     1049.717      60.6708     152.9904        16     1.259     0.988  32.50   0
       310     22.9899    476.7735 307.9205534  +6.4620417     20609.97     36800.29     39860.79     85.87008     171.9458     344.0628      1.910     3.70     1068.449      60.6708     2611.702        63     1.715     1.399  69.95   0
       311    455.5739    473.5547 307.7409328  +6.4778849        33034     60954.34     65962.34      85.7328     172.2196      344.097      1.979     4.04     1051.864      60.6708     3763.216        79     1.786     1.510  65.50   0
       312      5.5138    471.0004 307.9280097  +6.4638375     158592.1       280831     306060.8     85.45757     171.6029     320.9663      1.924     3.67     1068.906      60.6708     21175.14       122     1.868     1.499  74.81  24
       313    663.5970    473.1694 307.6545122  +6.4850012     10088.83     17690.98     19068.99      85.7328     171.9458     343.9943      1.895     3.83     1046.633      60.6708     1162.623        47     1.625     1.317  65.64   0
       314    220.8403    471.1639 307.8385422  +6.4710038     14764.99     28788.23     31998.09     86.00714     172.1512     344.0286      2.091     4.26     1060.105      60.6708     1636.937        64     1.805     1.493  56.47   0
       315    187.0017    471.8198 307.8525792  +6.4695973     1122.116     1955.608     2457.525     85.87008     171.6716     343.8916      2.116     4.14     1061.634      60.6708     190.6631        13     1.203     0.826  56.31   0
       316    585.3568    469.8613 307.6871327  +6.4837520     2154.679     4048.631     4110.754     86.28062     172.1512     344.3366      1.999     4.77     1048.632      60.6708     254.2061        28     1.514     1.224  67.27   0
       317    997.3965    471.4099 307.5158730  +6.4968608     1102.577     1634.808     1637.819      85.7328     171.8087     344.0628      1.597     4.22     1037.117      60.6708      161.376         9     1.026     0.605  -7.22   0
       318    838.0887    471.1299 307.5820776  +6.4916678     846.1094     1437.448     1742.181     86.28062     172.4247     344.1997      1.777     4.57     1042.403      60.6708     132.9993         7     1.028     0.576 -11.84   0
       319    959.1918    467.0608 307.5318938  +6.4973842     4487.749     6717.723     6450.019      85.5953     171.9458     343.9601      1.564     3.18     1038.479      60.6708     687.4695        26     1.212     1.114  43.92   0
       320    632.3937    465.6073 307.6677320  +6.4870807     5214.979     9077.217     9765.041      85.5953     171.9458     344.0286      1.888     4.05       1047.3      60.6708      599.311        36     1.479     1.292  65.44   0
       321    120.6757    466.1659 307.8803273  +6.4697042     856.8403     1391.797     1405.451     86.14399     172.1512     344.1655      1.707     4.50      1063.51      60.6708     133.7126         8     1.088     0.530  34.08   0
       322    981.7250    459.1771 307.5227954  +6.5013897     3283.218     4865.681      5031.64     85.87008     172.0143     344.1313      1.542     3.06     1036.681      60.6708     478.6859        23     1.332     0.960  63.18   0
       323    544.5848    456.8487 307.7045123  +6.4877611     5774.106      10889.1     11778.85      85.5953     172.0827     343.9258      1.987     4.08     1047.945      60.6708     615.4211        46     1.646     1.421  64.00   0
       324    390.5699    457.1562 307.7684951  +6.4824782     2083.065     4035.731     4455.043     85.87008     172.1512     344.0628      2.000     5.51     1052.251      60.6708     200.3885        28     1.446     1.385 -83.47   0
       325   1011.9573    454.9757 307.5103741  +6.5041310     438.8081     558.6365     617.0056     85.87008     172.0143     344.0286      1.044     3.72     1034.592      60.6708     79.30115         5     0.634     0.628  -6.99   0
       326    900.9984    452.5940 307.5565603  +6.5014183     2915.829     4623.477     5295.811      85.5953     171.8087     343.9943      1.727     4.04     1040.031      60.6708     360.6002        24     1.312     1.071 -84.65   0
       327    908.4314    447.0527 307.5536579  +6.5039539     1943.863     3017.906     3504.573     86.14399     172.2196      344.097      1.688     3.26     1039.629      60.6708     271.9293        18     1.154     0.934  82.47   0
       328    947.6191    446.3485 307.5373980  +6.5055504     1301.215     2293.102     2111.343      85.7328     172.2196     343.9943      1.830     4.26     1037.744      60.6708     182.7678        19     1.256     1.121  32.52   0
       329    732.1665    443.0322 307.6270351  +6.4997343      2346.61      3907.53     3658.702      85.7328     171.8773     343.9258      1.734     4.11     1043.727      60.6708     310.1628        23     1.320     1.136  72.07   0
       330    127.6686    445.5327 307.8781204  +6.4784577     510.7815      1160.05     1089.704     86.28062     172.2196     344.1997      2.464     3.81      1062.45      60.6708     112.6661         5     0.937     0.498   2.28   0
       331    403.1742    441.3313 307.7637923  +6.4894341      2665.14     5175.054      5305.89     85.87008     172.0143      344.097      1.996     4.62     1050.774      60.6708     339.6774        34     1.609     1.331 -87.36   0
       332     94.3327    442.2161 307.8920831  +6.4787071     1351.832     2369.137      1952.45      85.7328     172.0827      344.097      1.817     5.78     1063.405      60.6708      151.259        16     1.190     1.049  -8.64   0
       333    444.1721    441.5403 307.7467505  +6.4907209      868.051       1712.1     1622.256     85.87008     172.2196     344.1313      2.003     5.75      1049.71      60.6708     111.7761        10     1.258     0.741  -6.59   0
       334    631.1640    437.7299 307.6691820  +6.4985495     7744.499     14440.35     16269.46     86.14399     172.2196     344.2339      2.005     4.07     1045.436      60.6708      848.108        51     1.643     1.473  70.98   0
       335    793.9651    434.0319 307.6016592  +6.5055129     13641.54     23769.54     27227.38     85.87008     171.8773     343.9258      1.964     3.95      1041.96      60.6708     1621.648        68     1.912     1.535 -65.75   0
       336    313.5140    434.7357 307.8012688  +6.4891524     2075.024     3832.602     3765.191     86.41703     172.3563     344.1997      1.952     5.09     1053.112      60.6708     214.9136        23     1.411     1.194  62.94   0
       337    396.5529    431.4469 307.7668771  +6.4932933     1199.166     2307.662     2547.223     86.28062     172.0143     344.1997      2.012     5.66     1050.133      60.6708     165.1785        16     1.337     1.062 -69.69   0
       338    822.9849    431.2786 307.5896933  +6.5076178     1161.737     1897.081     1651.394     85.87008     171.8773     344.0286      1.690     6.07     1041.221      60.6708     151.1954        17     1.501     0.948  27.24   0
       339    978.8339    429.2820 307.5250002  +6.5136366     1954.084     2843.495     2898.206     86.28062     172.1512     344.1655      1.490     3.62     1034.217      60.6708     270.2341        16     1.222     0.808  57.76   0
       340    131.0624    426.1968 307.8773649  +6.4865547     3296.479     6450.925     7128.861      85.5953     171.8773     343.9258      2.053     4.47     1061.464      60.6708     390.6104        34     1.610     1.272  47.93   0
       341    769.1442    425.0927 307.6122736  +6.5083754     1840.438     3343.483     3464.646     86.14399     172.1512      344.405      1.947     4.82     1042.292      60.6708     253.8739        21     1.341     1.119  81.84   0
       342    385.6999    425.6230 307.7715833  +6.4953342     582.7629     1030.614     1596.027     86.55323     171.8773     343.9601      2.350     4.90     1049.986      60.6708     104.7854         5     1.032     0.660  63.97   0
       343    289.0438    423.1846 307.8118265  +6.4931009     1147.276     2078.312      2406.22      85.7328     171.9458     343.9601      1.875     5.97     1053.406      60.6708     150.4054        16     1.363     0.990 -85.77   0
       344    367.0860    421.0880 307.7794706  +6.4965828     2327.727     4430.829     4638.137     86.00714     172.4247     344.3366      2.013     5.01     1050.014      60.6708     277.3112        26     1.435     1.271   6.71   0
       345    722.8772    418.9621 307.6317051  +6.5093621     1353.532     2090.085     2161.208     86.14399     172.2196     344.1997      1.668     3.67     1043.295      60.6708     169.4803        12     1.023     0.808 -75.51   0
       346    996.8220    417.6273 307.5179167  +6.5190477     627.3892     1010.029     1488.299      85.7328     171.9458     344.1655      1.214     3.45     1031.616      60.6708     105.3452         5     0.774     0.444  17.61   0
       347    564.7787    411.8892 307.6976370  +6.5069991     612.1165     1438.038     1423.205     86.28062     171.9458      344.097      1.473     3.38     1044.071      60.6708     106.7184         5     1.568     0.211  63.59   0
       348    849.2689    408.8914 307.5795241  +6.5177377     1259.501     2063.982     1946.502     86.28062      172.288     344.1997      1.759     4.04      1039.91      60.6708     158.3381        14     1.061     0.931  82.41   0
       349    835.0274    408.0593 307.5854699  +6.5176063     1619.435     2718.607     2583.362     85.87008     172.2196     344.0628      1.712     4.83     1040.004      60.6708     208.7844        19     1.414     1.033  48.17   0
       350    486.8200    409.7038 307.7301040  +6.5052930     1068.969     1885.646     1986.294     86.14399     171.9458     343.9943      2.004     5.09     1045.907      60.6708     132.4639        14     1.178     1.068  10.97   0
       351    732.2130    406.0921 307.6282589  +6.5149875     12425.38      21450.9     23085.86     86.00714     171.8773     343.9601      1.850     3.84     1042.363      60.6708     1398.356        51     1.637     1.312  66.87   0
       352    653.3790    401.9424 307.6611565  +6.5140677      2120.44      3940.23     4682.892     85.87008     172.0143     343.9943      2.057     5.32     1042.724      60.6708     230.3229        22     1.416     1.106  70.60   0
       353    625.6943    397.2050 307.6728199  +6.5150985     10464.95     24509.99     30687.27     86.00714     171.8087     343.9258      2.582     6.86     1042.604      60.6708     1271.553        81     2.556     1.481  37.25   0
       354    957.5336    395.7650 307.5349767  +6.5267658     3597.952     5497.501     5261.414     86.14399     172.2196     344.2682      1.658     3.48     1033.922      60.6708     476.3262        27     1.373     1.096  68.81   0
       355    396.6759    391.9599 307.7681592  +6.5096003     21782.55     41735.01     45471.91     86.14399     172.1512     344.2339      2.046     4.23     1047.382      60.6708     2321.907        69     1.747     1.535  65.84   0
       356    913.2170    391.5550 307.5535336  +6.5270274      1392.14     2510.441     1914.148      85.7328     172.0143     343.9601      1.849     5.20     1036.573      60.6708     179.9537        16     1.493     0.785  59.52   0
       357    142.7630    391.4416 307.8736798  +6.5012968     1870.944     3474.194     3550.888     86.00715     172.1512     344.0628      1.986     4.46     1059.938      60.6708     205.3483        21     1.321     1.115 -44.62   0
       358    926.3939    386.3189 307.5482339  +6.5296284     4493.035     7170.234     6828.074     85.87008     171.6716     343.9601      1.735     3.28     1035.486      60.6708     621.6509        31     1.402     1.163  57.77   0
       359     76.3676    386.8572 307.9014222  +6.5009586     1141.228     2314.355     2610.701     86.14399     172.2196     344.1655      2.078     6.56     1061.922      60.6708     159.5275        17     1.506     1.058  53.86   0
       360    254.2382    382.4943 307.8276640  +6.5087329     10395.96     19644.18     21293.47     86.41703     172.0143     344.3366      2.028     4.31     1053.341      60.6708      1281.83        52     1.716     1.413  70.86   0
       361    982.2434    384.1305 307.5250992  +6.5323924     722.2405     983.5344     1622.662     86.28062     172.0827     344.2682      1.380     3.95     1031.655      60.6708     113.8896         6     0.782     0.571  43.06   0
       362    748.8399    376.6819 307.6223395  +6.5276855      686.121      1103.94     1595.897     86.28062     172.2196     344.1313      2.174     3.97     1039.871      60.6708     76.91748         6     1.240     0.363  61.15   0
       363     89.4001    376.4036 307.8963613  +6.5057125     754.3691     1041.293     722.5328      85.5953     171.6716     343.9258      1.513     3.36     1061.278      60.6708      120.592         6     1.160     0.796  27.96   0
       364    717.8240    375.2619 307.6352757  +6.5272362     653.0871     826.5405     403.6656     85.87008     172.0827      344.097      1.328     3.83     1040.195      60.6708      138.832         6     0.967     0.528 -64.86   0
       365    977.3442    374.7570 307.5274497  +6.5360994       1040.7     1551.419     2017.432     86.14399     172.1512     344.1997      1.735     3.53     1031.615      60.6708     206.0486         8     1.046     0.723  27.78   0
       366    154.5123    371.2272 307.8694821  +6.5100371     3974.006     7105.889     7711.659     86.41703     171.8773      344.097      1.958     3.96     1059.036      60.6708     461.5735        37     1.541     1.305  73.72   0
       367    367.5398    372.0247 307.7809391  +6.5168547      1102.27     1936.217     1762.441     85.87008     172.1512     344.0628      1.942     6.24     1047.149      60.6708     124.7531        13     1.088     1.005  39.85   0
       368    259.4930    369.9771 307.8259037  +6.5140771     1036.013     2058.676     1904.778     86.28062     171.9458     344.0286      1.846     5.33     1052.377      60.6708     133.2495        11     1.229     0.850   2.82   0
       369    176.7694    366.9046 307.8603804  +6.5125691     1802.732     3737.469     3473.283     86.41703     171.8773     344.2682      2.157     5.81     1057.547      60.6708     236.1108        27     1.617     1.286  88.86   0
       370    840.7578    368.1973 307.5844287  +6.5342556     708.3688     1117.925     869.2866      85.5953     171.7402     343.8916      1.653     4.27     1037.845      60.6708     109.1595         7     0.883     0.587  53.43   0
       371    572.5248    366.0423 307.6959637  +6.5261871     775.2897     1240.745     793.5636     86.14399     172.2196     344.2339      1.749     5.97     1041.247      60.6708     108.3273        10     1.147     0.874 -83.32   0
       372    399.9954    361.9340 307.7677937  +6.5221083     1394.856     3005.697     3153.785      85.7328     171.8773     343.9943      2.134     6.26     1045.242      60.6708     173.6321        25     1.543     1.277 -84.25   0
       373     18.9041    362.3278 307.9261292  +6.5091538      572.717      1018.99     905.3539     86.00714      172.288     344.1655      1.458     4.33     1061.986      60.6708     114.5739         7     0.785     0.681 -30.54   0
       374    988.3967    360.8932 307.5233222  +6.5421917     1128.482     1627.902     1830.991     86.00714     171.8087     343.8916      1.574     3.95     1030.501      60.6708     159.6987        11     1.068     0.710  40.92   0
       375    453.6780    355.4207 307.7457069  +6.5265954     5506.485     10740.44     11797.91     85.87008     171.8773     344.1655      2.050     4.48     1043.192      60.6708     583.8319        43     1.631     1.422  88.50   0
       376     50.2229    356.1437 307.9133258  +6.5127601     2468.463     4969.998      5907.46     85.87008     172.0827     343.9943      2.207     5.38     1061.225      60.6708     309.1602        37     1.741     1.493 -63.65   0
       377    786.2451    354.4112 307.6075451  +6.5381290     1755.385     2819.507     3420.764      85.7328     172.0143     343.8916      1.929     4.31     1037.623      60.6708     215.7832        19     1.295     1.046  77.08   0
       378    794.4108    352.6419 307.6042113  +6.5391320     11123.08     18564.68     19861.61      85.5953     171.9458     343.9258      1.803     3.62     1037.433      60.6708     1307.921        45     1.550     1.276  68.53   0
       379    357.2991    350.6174 307.7859174  +6.5253498     883.2462     1541.905     1385.928     86.28062     171.9458     343.9601      1.860     5.78     1046.483      60.6708     114.1718        10     1.055     0.890  76.58   0
       380    203.7387    344.6122 307.8499285  +6.5226783      538.417     852.9595     834.7254      85.7328     171.9458     343.9258      1.933     4.23      1054.53      60.6708     86.53284         5     0.902     0.566 -52.92   0
       381      8.1691    341.7070 307.9312885  +6.5173061     934.3529     2635.852     4030.233     86.41703     171.9458     343.2745      3.915    10.14     1061.783      60.6708     122.7256        17     1.947     1.473 -62.66  24
       382    968.8057    343.9377 307.5320327  +6.5485398     623.3551     1079.677      1309.97      85.5953     171.8773     343.9943      1.877     4.71     1030.469      60.6708      100.897         7     1.094     0.574  33.03   0
       383    474.0021    339.4887 307.7377991  +6.5338537     1717.636     3414.338     3188.019      85.5953     171.7402     343.9258      2.018     5.02     1041.366      60.6708      194.978        25     1.445     1.207  83.90   0
       384    859.7817    335.5379 307.5776211  +6.5483744     29014.48     49394.93     52651.04     85.87008     172.0827     344.0628      1.852     3.66     1035.843      60.6708     3318.655        70     1.713     1.362  73.42   0
       385    501.7407    338.8681 307.7262935  +6.5350384      2441.67     4540.744     4435.648     86.41703     172.0827     344.1997      1.955     4.54      1040.81      60.6708     255.8048        27     1.327     1.312 -12.34   0
       386    930.4169    339.0128 307.5481511  +6.5492942     791.0472     1323.772     1646.337     86.00714     171.8087      344.097      1.736     4.85      1032.12      60.6708     110.1691         6     1.058     0.629  33.48   0
       387    353.1858    330.8394 307.7882948  +6.5333776      651.127     1411.278     1092.047      85.7328     171.9458     343.9258      2.160     6.11      1045.76      60.6708     94.87085         7     1.269     0.828  41.33   0
       388    631.4606    327.9706 307.6727562  +6.5438763     2128.261     3868.014     4405.422     86.00714     172.1512     344.1655      1.966     4.40     1038.049      60.6708     242.2241        25     1.326     1.242  59.79   0
       389     39.7361    328.5040 307.9186196  +6.5238187     1009.808      1823.61     1786.306     86.14399      172.288     344.1997      1.899     5.15     1061.171      60.6708     134.6456        10     1.037     0.777 -38.26   0
       390    716.2090    321.5096 307.6377561  +6.5493753     66277.19     114884.8       124000     85.87008     171.8087     343.9601      1.886     3.75     1037.158      60.6708     7352.583        97     1.760     1.490  61.46   0
       391    874.5202    323.0463 307.5719162  +6.5540234       1126.3     1887.478     2142.441     86.28062     172.1512     344.1997      1.923     3.46     1034.417      60.6708     198.5343        11     1.052     0.755  55.06   0
       392     95.6915    321.0810 307.8956207  +6.5287643     1206.955     2206.626     2242.906     86.00714     172.4247     344.2682      1.921     5.79     1059.839      60.6708     136.9893        17     1.255     1.012  59.02   0
       393    578.6207    318.3435 307.6950384  +6.5460845     1980.828     3671.316     3747.719     85.87008     172.1512     343.9943      1.922     5.01     1037.951      60.6708     210.0457        25     1.458     1.199  41.48   0
       394    116.1243    317.1656 307.8872631  +6.5310674      4813.15     9331.521     10645.85     86.14399     172.1512     344.1655      2.113     4.37      1058.86      60.6708     572.7561        43     1.692     1.360  62.87   0
       395    957.5423    318.5873 307.5375646  +6.5586313     742.1663     1110.791     991.7147      85.5953     172.0143     343.8916      1.597     4.04     1029.548      60.6708     109.7024         5     0.946     0.494  85.17   0
       396    561.9547    314.4766 307.7020943  +6.5471236     5639.792     10391.64     10696.63     86.14399     172.2196     344.2339      1.942     4.33     1037.859      60.6708     543.0217        36     1.528     1.330  59.46   0
       397    424.8713    309.6439 307.7592223  +6.5445305     19901.59     38259.93     41486.86     86.14399     172.1512     344.2339      2.041     4.27      1040.71      60.6708     2104.556        69     1.771     1.507  66.25   0
       398    291.1508    311.8901 307.8147129  +6.5391211     2024.707     3799.381     4063.103     86.28062     171.9458     344.3708      2.029     5.56     1047.833      60.6708     279.5264        26     1.567     1.167 -60.51   0
       399    532.3940    308.3563 307.7145847  +6.5486616     1009.462     1653.027     1504.434      85.5953     171.8087     343.8573      1.763     4.49     1037.702      60.6708     125.3224        12     1.071     0.915  44.81   0
       400    404.8294    307.3581 307.7676278  +6.5448028     919.5849     1795.236     2748.831     85.87008     172.0143     344.0628      2.485     5.80     1041.551      60.6708     117.9954        11     1.087     0.936  37.43   0
       401    504.4569    304.9108 307.7263103  +6.5491493     877.2674     1620.898     2022.703     86.14399     172.0827     344.3366      2.256     7.36     1037.765      60.6708     111.1066        12     1.267     1.197 -27.60   0
       402    513.9392    300.0585 307.7225335  +6.5514700     6599.761      12321.2     12819.45     86.28062     172.0827     344.2339      1.976     4.27     1037.219      60.6708     700.6147        43     1.577     1.403  69.05   0
       403    819.6083    302.0940 307.5954402  +6.5608428     788.6479     1306.338      1212.32     85.87008     171.7402     343.9601      1.726     2.91     1034.209      60.6708     119.7847         5     0.739     0.435 -68.29   0
       404    783.1974    298.7584 307.6106837  +6.5610051     2653.894     4605.507     5201.577      85.5953     171.8087     343.8916      1.895     4.22     1034.751      60.6708     312.9524        29     1.535     1.225  32.07   0
       405    938.0916    298.2727 307.5463301  +6.5663708     877.9122     1423.608     1593.473     86.14399     172.3563     344.2339      1.489     3.62     1029.814      60.6708     133.5186         6     0.889     0.473  36.66   0
       406    341.0096    296.3353 307.7945202  +6.5472150     852.3953     1428.537     1164.998      85.7328     171.9458     344.0286      1.687     4.23     1044.725      60.6708     100.3167         7     0.758     0.673   6.12   0
       407    175.9776    290.3282 307.8633008  +6.5441579     903.3608     1449.303     1656.462     85.87008     171.9458     344.1997      1.890     5.63     1054.588      60.6708     124.5591        11     1.369     0.815  62.64   0
       408    403.8626    284.2805 307.7688088  +6.5542984     5670.976      10939.3     11723.07     86.41703     172.2196     344.1997      2.049     4.39     1040.251      60.6708     646.2722        46     1.709     1.409  62.98   0
       409    259.6652    284.9263 307.8287080  +6.5491972     1679.136     2875.469     2864.138     86.41703     172.1512     344.1997      1.832     4.22      1048.88      60.6708     205.2421        21     1.294     1.081  54.75   0
       410    771.7257    280.0623 307.6160800  +6.5683414     46052.27     78170.74     84191.45     86.55323     172.1512     344.1997      1.837     3.68      1034.22      60.6708     5228.982        80     1.724     1.404  66.76   0
       411    756.9471    283.6784 307.6221000  +6.5663551     904.2692      1470.36      1350.44     86.28062     172.1512     344.1997      1.557     5.41     1034.725      60.6708     129.3862        12     1.279     0.810  65.94   0
       412    443.3932    279.6164 307.7525391  +6.5575482     1698.999     3163.455     3462.099     85.87008     171.8773     344.0286      1.966     5.12      1037.89      60.6708       203.17        24     1.470     1.142  75.68   0
       413   1006.6780    277.0208 307.5185405  +6.5774298     1431.201     2263.127     2474.981     85.87008     171.8773     344.1655      1.617     3.44     1023.827      60.6708     262.1609        16     1.173     0.934  50.29   0
       414    589.9114    277.2960 307.6917300  +6.5634094     989.2526     1824.086     1384.204     86.28062     172.5612     344.2339      1.815     6.06     1035.372      60.6708     117.7697        11     1.083     0.953  -5.93   0
       415    947.4287    276.2583 307.5431892  +6.5757712     2263.418     3284.702     3353.709     85.87008     172.2196      344.097      1.578     3.35     1028.174      60.6708     321.2633        16     1.166     0.853  66.78   0
       416    481.2456    276.3839 307.7369184  +6.5601502     847.6369     1875.949     2305.624      85.7328     172.0143     343.9601      2.502     6.79     1035.705      60.6708     116.3602        10     1.467     0.882  35.62   0
       417    430.1301    275.1991 307.7581999  +6.5589278     1567.303     3070.791     3168.906      85.5953     171.6716     343.9943      1.999     5.14     1038.291      60.6708     218.7142        23     1.392     1.160  44.63   0
       418    850.9653    269.4699 307.5835060  +6.5753585     1068.571     1635.175     1875.703     86.14399     172.1512     344.3024      1.679     4.80      1032.22      60.6708     148.5288        10     1.077     0.756  69.11   0
       419    982.8138    267.5345 307.5287766  +6.5805518     691.5564     940.4484     1277.779      85.7328     171.9458     344.1313      1.546     4.43     1025.393      60.6708     101.9098         6     0.956     0.584 -69.13   0
       420    460.4762    267.4657 307.7458503  +6.5631369     796.3602     1511.577     2173.903     86.41703     172.1512     344.1655      2.375     4.73     1036.259      60.6708     94.07092         7     0.938     0.675  74.77   0
       421    206.4039    266.5366 307.8514625  +6.5550020     1787.833      3413.27     3655.744      85.5953     171.8773     343.9601      2.020     5.82     1052.326      60.6708     209.1493        24     1.475     1.172  39.95   0
       422    770.1722    264.7303 307.6172415  +6.5746198     5053.736     8847.689     9726.705     86.00714     172.1512      344.097      1.931     3.82     1033.768      60.6708     594.9033        37     1.558     1.236  66.53   0
       423    103.5548    263.5516 307.8943017  +6.5527799     803.7925     1260.836     1453.563     86.28062     172.0143     344.2339      1.736     4.70     1058.453      60.6708     102.6619         7     1.345     0.467  82.20   0
       424    786.4183    262.6973 307.6105583  +6.5760014     2269.441     4025.403     4229.191     86.14399     172.0143     343.9258      1.881     4.01     1033.411      60.6708     288.7213        24     1.277     1.209 -80.08   0
       425    376.4034    257.2009 307.7811343  +6.5645585     1331.134     3079.863     3756.042      85.5953     171.6716     343.9258      2.519     6.95     1040.631      60.6708     162.5051        25     1.573     1.323   1.85   0
       426     89.6880    258.1717 307.9002462  +6.5545350     1128.067     2179.319     1982.047     86.41703     171.8773     344.0628      2.073     5.05     1059.066      60.6708     153.1924        13     1.240     0.782 -57.29   0
       427    502.8853    253.4575 307.7286992  +6.5703402     1763.456     3019.594     2912.189     86.28062     172.1512     344.3708      1.826     5.15     1034.145      60.6708     185.5153        17     1.447     0.831 -89.83   0
       428   1023.7498    253.2261 307.5122443  +6.5878225     2972.686     3689.469     3819.882      73.7693     135.5555     257.3815      1.063     2.81     1022.581      60.6708     765.9894        11     1.177     0.431  88.02  24
       429    265.4397    249.0567 307.8275214  +6.5642001      4612.04     8676.949     9115.953     86.28062     172.2196     344.2339      1.985     4.27     1048.356      60.6708     546.7756        39     1.577     1.374  81.44   0
       430    932.5559    247.1380 307.5503484  +6.5872988     481.8895     699.9081     591.4619     86.28062     172.0827     344.3024      1.328     4.33     1027.848      60.6708     81.31006         5     0.943     0.565  44.59   0
       431      1.1924    242.7585 307.9375418  +6.5579226     530.5732     942.9562     1186.401     72.48066     134.0701     256.1889      1.703     3.81      1061.78      60.6708     95.33545         5     1.237     0.337  80.14  24
       432    784.9904    242.1037 307.6118446  +6.5844563     609.1458     904.5341     449.1058     86.00714     171.7402     343.9601      1.500     5.22     1032.833      60.6708      75.6355         7     1.182     0.651  32.22   0
       433    399.4717    239.8683 307.7721333  +6.5724876     1192.394     2275.501     2134.519     86.28062      172.288     344.1655      2.091     6.80     1038.346      60.6708     121.2247        17     1.284     1.011  66.41   0
       434    986.2737    238.8282 307.5283026  +6.5925193     926.5123      1513.97     1714.213     86.14399     172.1512     344.1313      1.751     4.26     1024.625      60.6708     176.7557         9     1.235     0.529  54.38   0
       435    321.5788    235.1880 307.8046611  +6.5718090     752.3698      1379.52     1036.258     85.87008     171.8087     344.0628      1.951     4.61     1043.655      60.6708     130.7997         6     1.223     0.494  89.69   0
       436    169.3240    235.4712 307.8679223  +6.5665826     1312.312     2309.387     2396.146     86.55323     172.4247     344.1997      1.872     5.77     1053.427      60.6708      149.425        16     1.245     1.070 -53.24   0
       437    578.7174    231.3510 307.6979307  +6.5820044     1784.373     3217.034     2964.588     86.28062     172.1512     344.2682      1.907     5.51     1032.899      60.6708     178.5814        24     1.508     1.170  79.16   0
       438    922.6600    230.4733 307.5550209  +6.5938495     1720.208     2680.839     3298.324     86.41703     172.1512     344.2339      1.820     3.78     1027.545      60.6708     226.2335        14     1.108     0.858  56.31   0
       439    742.5056    228.8322 307.6299474  +6.5885176     4188.555     7230.186     7967.224     86.41703     172.0143     344.3024      1.883     4.02     1032.759      60.6708     460.3883        34     1.459     1.262  64.04   0
       440    683.2935    228.7549 307.6545579  +6.5865719     1958.729     3594.064     3676.065     86.14399     172.0827     344.3366      1.959     4.03       1032.9      60.6708     261.0624        23     1.253     1.228  47.34   0
       441    398.0838    223.1713 307.7732740  +6.5793347     627.3813     1121.335     1004.047     86.28062     171.8773     344.0628      2.245     4.86     1037.551      60.6708     103.1665         5     0.888     0.753  15.89   0
       442    938.6443    221.0046 307.5486960  +6.5982916     1057.801     1658.314     1535.143     85.59529     171.7402     343.8573      1.685     5.14     1026.313      60.6708     163.0232        12     1.177     0.902  28.34   0
       443    241.9905    214.2257 307.8384440  +6.5777936     1782.144     3289.874     3160.521     85.87008     171.9458     344.0628      1.968     5.38     1049.814      60.6708     211.2352        25     1.417     1.276  80.15   0
       444    884.7095    213.0666 307.5713782  +6.5997714     1506.028     2230.209     2816.505     86.41703      172.288     344.2339      1.639     3.77     1028.506      60.6708     211.7971        13     1.043     0.923  72.55   0
       445    775.1915    212.6914 307.6169065  +6.5962729     1349.584     1931.345     2406.146     85.87008     171.8087     343.9258      1.592     5.03     1031.726      60.6708     161.6952        15     1.282     0.889  55.43   0
       446    476.0743    204.0218 307.7415093  +6.5898530     17524.85     33404.83     36611.14     85.87008     172.0143     344.1313      2.031     4.20      1032.45      60.6708     1900.659        65     1.740     1.513  68.30   2
       447    481.8013    198.7043 307.7393087  +6.5922402     1092.698     1970.103     2444.906      85.7328     171.8087     343.7888      2.112     6.19     1032.157      60.6708     132.1344        13     1.118     0.963  76.42   3
       448    801.9707    202.9931 307.6061034  +6.6011708     11520.67     19534.44     21844.25      85.7328     171.9458     343.9943      1.852     3.63      1030.65      60.6708     1353.979        57     1.641     1.430  68.39   0
       449    740.4380    199.0962 307.6318076  +6.6007258     706.1622     959.9616     879.2574     86.28062     172.0143     344.3366      1.699     5.09     1031.661      60.6708      105.082         7     0.929     0.880 -70.93   0
       450    164.3826    197.3814 307.8712651  +6.5821422      1939.12     3715.887     3655.876     86.00715     171.8773     344.1313      1.987     4.46     1052.888      60.6708     280.0009        23     1.344     1.186  63.40   0
       451    138.6266    196.3194 307.8820044  +6.5817155     1125.805     1852.225     2324.204     86.14399     171.9458     344.2339      2.049     5.58     1054.398      60.6708     133.5264        14     1.137     1.006 -50.46   0
       452    938.7897    193.4019 307.5495628  +6.6096930     1369.173     2302.829     2456.384     85.87008     171.8087     343.9943      1.809     5.83     1024.652      60.6708     179.1635        16     1.521     0.837  50.06   0
       453      2.5053    190.8855 307.9387550  +6.5793825     4010.016     6374.903      7291.55     86.28062     154.7855     279.2439      1.811     4.64      1061.61      60.6708     460.7611        28     1.536     1.113  68.82  24
       454    600.1259    189.7928 307.6904345  +6.5998785     3757.172     7091.567     7239.383     85.87008     171.6716     344.0628      1.954     4.57     1031.671      60.6708     367.1344        33     1.499     1.363  47.19   0
       455    562.5989    189.7729 307.7060312  +6.5986316     1697.839       3252.7     3277.675     85.87008     171.8087     343.9943      2.003     5.45     1031.127      60.6708     194.4467        24     1.397     1.259 -62.88   0
       456    404.3047    188.7901 307.7718499  +6.5937379     968.8702       1857.7     1994.265     86.00714     171.7402     343.9601      2.007     6.24     1035.418      60.6708     125.2068        14     1.329     0.942 -72.94   0
       457    960.9476    186.8111 307.5405751  +6.6131524     2554.752      4033.64     4199.792      85.5953     172.0827     343.9258      1.629     3.39     1023.629      60.6708     395.6436        25     1.371     1.115  61.45   0
       458    907.0473    186.2859 307.5629945  +6.6115732     10469.11     16251.51     16571.47     86.28062     172.0827     344.1997      1.674     3.27     1025.804      60.6708     1366.409        43     1.522     1.173  62.30   0
       459    334.4743    186.3737 307.8009519  +6.5923950     810.0098      1604.32     1743.426     85.87008     172.0827     344.1655      1.964     7.00     1042.466      60.6708     94.28796        10     1.362     1.008 -85.39   0
       460     33.4012    182.9720 307.9261843  +6.5836889     20440.65     37886.21     41214.29      85.7328     171.8773     343.9943      1.981     3.95     1060.001      60.6708      2573.49        70     1.801     1.481  63.72   0
       461    582.1428    186.7620 307.6980104  +6.6005284     625.5524      1033.63     978.7293     86.28062     172.2196     344.1997      1.794     5.78     1031.305      60.6708     92.52124         7     1.422     0.662 -36.39   0
       462    993.7426    184.0903 307.5270364  +6.6153682     9399.539     14142.11     15141.92     86.14399     172.0827     344.3366      1.597     3.02     1022.521      60.6708     1349.571        41     1.493     1.136  50.39   0
       463    704.9859    183.9289 307.6470522  +6.6058040     2339.566      4266.43     4592.734      85.7328     172.0143      344.097      1.891     4.15     1031.425      60.6708     260.5913        27     1.419     1.155  68.29   0
       464    279.9857    184.9082 307.8236458  +6.5911725     797.6193     1370.005     1041.442     86.00714     171.9458     343.9601      1.745     5.65     1048.179      60.6708     134.6112         9     1.240     0.736 -62.79   0
       465    513.5600    179.0131 307.7267745  +6.6014331     1424.351     2590.471     2289.416      85.7328     171.9458     343.9258      1.820     5.02     1031.149      60.6708     170.6047        17     1.169     1.086 -20.44   0
       466    845.5878    175.8026 307.5888903  +6.6138522     1810.271     2831.546     2781.371     85.87008     171.8087     344.0286      1.682     3.96     1028.036      60.6708     220.3199        20     1.315     0.968  69.25   0
       467    525.6144    175.0365 307.7218988  +6.6034784     2046.776     3727.672     3521.872     85.87008     171.9458     343.9601      1.864     4.93     1030.711      60.6708     230.6617        26     1.424     1.242  75.15   0
       468    897.8138    175.0312 307.5672103  +6.6159121     1835.813     2554.313     2555.782     85.87008     171.8773     344.1313      1.505     3.38     1025.705      60.6708     272.5243        18     1.246     0.873  46.27   0
       469    757.3055    172.2357 307.6257015  +6.6123789     34230.82      58004.2     62695.16     86.41703     172.0143     344.3024      1.859     3.68     1030.055      60.6708     3932.527        74     1.717     1.407  60.57   0
       470    360.3730    171.7738 307.7906821  +6.5992910     4675.239     10964.81     12691.87      85.7328     171.9458     344.0286      2.438     6.01     1039.451      60.6708     470.6133        53     2.092     1.468 -85.42   0
       471    990.9526    171.0372 307.5286342  +6.6206646      2856.77     4310.838     3941.161     86.14399     172.1512     344.1313      1.537     3.37      1022.13      60.6708     441.9739        24     1.382     0.993  57.90   0
       472    925.0328    169.3430 307.5560888  +6.6191679     7214.172     10801.71     10986.54     86.14399     172.2196     344.1655      1.576     3.20     1023.702      60.6708     1022.808        33     1.372     1.105  61.16   0
       473    468.6772    168.4751 307.7457832  +6.6042814     4125.109     7376.718     7514.255     86.55323     172.4247     344.2682      1.911     4.26     1032.048      60.6708     423.1954        34     1.487     1.315  66.06   0
       474    126.1453    159.8564 307.8884260  +6.5963501     3747.946     6963.252      7392.85     86.41703     172.2196     344.2339      1.968     4.34     1054.071      60.6708     388.1095        34     1.415     1.380 -79.58   0
       475    296.4193    156.5059 307.8177766  +6.6034499     26479.88     50006.54     54854.37     86.14399     171.9458     344.0286      2.035     4.20     1047.536      60.6708      2918.52        74     1.771     1.565  66.42   0
       476    271.6733    157.4686 307.8280282  +6.6022223     5158.417     9722.766     10343.47     86.41703      172.288     344.1997      1.979     4.47     1048.984      60.6708     561.1974        41     1.645     1.351  67.71   0
       477    945.3092    159.0038 307.5480088  +6.6241124     925.9248     1213.973     1854.571      85.7328     171.8087     343.9258      1.496     4.07      1022.49      60.6708     146.8407         7     0.882     0.666  15.98   0
       478    725.3535    155.5542 307.6395427  +6.6181994      766.287     1206.814     1242.024     86.28062     172.0143     344.2339      1.712     2.93     1030.156      60.6708     139.3602         6     0.849     0.501  45.89   0
       479    420.4735    151.9642 307.7663739  +6.6094837      38742.7     73205.64      79581.3     86.14399     172.1512     344.1655      2.032     4.21     1032.241      60.6708     4071.585        83     1.789     1.552  65.14   0
       480    176.4960    153.3365 307.8677221  +6.6007333     3159.876      6087.37     6410.769     86.14399      172.288     344.2339      2.031     4.53     1051.765      60.6708     362.2789        32     1.554     1.265  72.37   0
       481    437.8010    152.7822 307.7591450  +6.6097264     1202.848     2137.887     1642.074     85.87008     171.6716     343.8573      1.849     6.35     1032.019      60.6708     149.6949        18     1.384     1.034  28.34   0
       482    324.5338    149.7242 307.8063217  +6.6071928     14153.62     26935.99     29357.03     86.41703     172.2196     344.1655      2.052     4.24     1043.819      60.6708     1480.717        63     1.757     1.528  63.98   2
       483    331.9146    149.6202 307.8032579  +6.6074832     1772.295     4075.526      5355.21     85.87008     171.8773     344.1313      2.586     8.28     1042.921      60.6708     235.7958        32     1.982     1.368 -73.48   3
       484    759.7224    148.1106 307.6255089  +6.6224202     28264.87     47800.56     51290.03     86.00714     172.4247     344.3024      1.829     3.64     1028.529      60.6708     3221.429        65     1.652     1.365  64.79   0
       485    707.2832    150.1131 307.6472361  +6.6198423     806.1239      1457.14         1438     86.00714     172.3563     344.2682      2.073     5.59     1029.933      60.6708     103.2551         9     1.084     0.814  40.83   0
       486    808.1973    148.7210 307.6053413  +6.6237861     1111.654     1817.972     2251.569      85.5953     171.6029     343.9601      1.698     3.46     1026.921      60.6708     209.7209        12     1.155     0.747  28.70   0
       487     76.6252    145.4434 307.9094936  +6.6006361     7438.311     13392.28      13550.8     85.87008     172.1512      344.097      1.917     3.97     1056.375      60.6708     899.9575        45     1.665     1.319  69.72   0
       488    110.4197    143.4534 307.8955168  +6.6025936     1013.941     2050.568     2209.844      85.7328     172.1512     343.9943      1.962     6.42     1054.216      60.6708     118.9681        17     1.234     1.225  54.61   0
       489   1017.7612    142.2890 307.5184571  +6.6334268     1115.099     1604.036     1898.954     86.28062     172.1512     337.8792      1.533     3.04     1019.938      60.6708     176.0215         9     0.877     0.703  -6.03  16
       490    593.3906    132.1491 307.6951769  +6.6234525     592.2352     1153.525     1313.947      85.7328     172.0143     343.8573      2.019     4.89     1029.092      60.6708     80.67004         5     1.392     0.486  88.27   0
       491     10.1292    130.6129 307.9376304  +6.6045225     717.4157     1166.898     1008.022      85.7328     171.8773     344.0628      1.622     4.44      1061.45      60.6708     98.51416         6     0.872     0.642 -34.15   0
       492   1019.0544    128.7249 307.5183749  +6.6390702     2228.416     3218.219     3631.141     86.14399     172.1512     325.9552      1.500     3.40     1019.026      60.6708     342.7667        18     1.260     0.848  41.47  16
       493    601.5872    126.0757 307.6919751  +6.6262341      908.559     1810.061     2503.651     85.87008     171.8087     343.9943      2.419     5.98     1028.792      60.6708     126.1985        11     1.313     0.822 -88.66   0
       494    295.3896    122.7949 307.8193444  +6.6173333     23321.44     44937.75     49430.42      85.7328     171.8773      344.097      2.059     4.20     1047.664      60.6708     2520.388        73     1.757     1.561  70.14   0
       495    610.2751    124.2857 307.6884245  +6.6272637     1593.222     2924.046     3576.989     86.41703      172.493     344.2682      2.029     5.11     1028.687      60.6708     186.9521        21     1.296     1.196  45.24   0
       496    355.0936    124.7999 307.7944635  +6.6185077     662.3463     1113.241     1137.728      85.7328     171.7402     343.8231      1.543     3.93     1039.973      60.6708     97.83813         6     0.952     0.465 -37.10   0
       497     40.6393    121.2705 307.9252678  +6.6094058     3689.434     6456.658     6285.818     86.14399     172.1512     344.2682      1.864     3.77     1058.822      60.6708     501.2935        32     1.511     1.210  79.80   0
       498    726.8564    119.3568 307.6401367  +6.6331945     6922.295     11897.56     13222.73     86.14399     172.1512     344.2339      1.887     3.84     1027.387      60.6708     790.1932        43     1.613     1.275  72.51   0
       499    204.1571    121.1320 307.8573165  +6.6149580     732.2082     1353.777     1147.806     86.28062     172.0827     344.2682      1.869     6.17     1050.444      60.6708     95.52185         8     1.180     0.907 -45.16   0
       500    137.6319    116.3955 307.8851242  +6.6146790     3893.729     7307.818     8021.209      85.5953     172.0143     343.9601      1.996     4.20     1052.053      60.6708     484.8539        35     1.500     1.335  69.05   0
       501    476.6512    113.8749 307.7443120  +6.6270909     1005.511     1709.549     1415.889     86.28062     172.2196     344.1997      1.776     5.16     1029.953      60.6708     131.9109        12     1.218     0.978 -10.88   0
       502    408.3838    112.4025 307.7727346  +6.6254122     3081.276     6129.532     6704.021     85.87008     171.7402     343.9943      2.085     4.48     1033.099      60.6708     361.9144        35     1.553     1.336  72.61   0
       503    372.7644    111.5181 307.7875682  +6.6245836     2504.903     4782.328     4492.183     86.28062     172.1512     344.1655      1.983     4.60     1037.636      60.6708     302.2908        34     1.517     1.369  88.31   0
       504    127.2344    111.2353 307.8896201  +6.6164600     1356.701     2470.264      2417.58     86.00715     171.8773     343.9258      1.956     6.94     1052.334      60.6708     162.3707        21     1.601     1.052  87.15   0
       505    585.3860    109.7778 307.6992581  +6.6324212     516.1959     1053.491      1661.77     86.00715     171.9458      344.097      2.410     4.54     1027.935      60.6708     74.40283         5     0.825     0.711  27.71   0
       506    688.6404    109.1894 307.6563628  +6.6361157     567.8467     938.4016     997.6602      85.5953     171.9458     343.9258      1.679     3.69     1027.407      60.6708     87.16724         5     1.018     0.385   4.41   0
       507   1019.5452    105.4243 307.5189532  +6.6487068     1500.525     2085.001     1947.986     85.87009     172.2196     320.3418      1.519     3.36     1017.362      60.6708     239.5823        13     1.117     0.733  48.68  16
       508    224.7899    100.3339 307.8494454  +6.6242373     4286.799     8178.701     8687.094      85.7328     172.0143      344.097      2.020     4.65     1049.785      60.6708     482.3474        40     1.588     1.386  61.63   0
       509    107.2999    100.4123 307.8982713  +6.6202584     1685.038     3175.666     3538.292     86.00715     171.8773     343.9601      2.118     5.84     1052.727      60.6708      193.709        23     1.452     1.284 -46.78   0
       510    686.5066     99.1215 307.6575887  +6.6402012     5146.349     9212.165     9552.262     86.00714     172.3563     344.2682      1.906     3.96     1026.782      60.6708     574.0267        37     1.571     1.261  51.03   0
       511    638.6729     96.3409 307.6775636  +6.6397506     7901.621     14136.51     15468.69     86.41703     172.1512     344.1997      1.961     3.84     1026.926      60.6708     875.2067        52     1.743     1.387  69.25   3
       512    642.2114     87.8692 307.6763784  +6.6433666     44216.97     78005.18     84704.79      85.7328     171.9458     344.0628      1.900     3.81     1026.631      60.6708     4925.747        82     1.729     1.465  65.64   2
       513    834.8165     98.7097 307.5959598  +6.6453225       1023.1     1476.569     984.7229     86.00714     171.8773      344.097      1.522     4.40      1023.59      60.6708     137.4779        11     1.027     0.816 -11.37   0
       514     37.8616     95.7664 307.9272867  +6.6198417     866.8455     1899.721     2217.983     86.00714     172.2196     344.1313      2.385     7.48     1058.854      60.6708      109.683        12     1.467     1.068  86.73   0
       515    365.6645     92.1327 307.7911740  +6.6323491     2904.824     5825.109     6652.997     86.28062     172.1512     344.2339      2.262     5.00     1038.382      60.6708     320.9012        36     1.712     1.333 -75.94   0
       516    547.4420     91.2394 307.7156537  +6.6388058     1495.108     2339.657     2474.939     86.00715     172.2196     344.0628      1.777     4.31     1027.615      60.6708     221.9277        18     1.284     0.990  72.87   0
       517   1011.8810     91.3196 307.5226123  +6.6542751     753.7681      1404.16     1271.691     86.41703     172.4247     344.3708      2.008     5.20     1016.051      60.6708      100.395         9     0.982     0.779 -53.06   0
       518    321.1914     81.6038 307.8100136  +6.6352049     2853.666     5541.215     5913.137      85.5953     171.8087     344.0286      2.062     4.59     1044.074      60.6708     327.2791        33     1.526     1.392 -87.21   0
       519    721.3918     76.5344 307.6438499  +6.6506920     636.4978      1007.19     566.1291      85.7328     171.8773     344.0628      1.709     4.20     1024.865      60.6708      113.156         5     1.141     0.440 -35.16   0
       520    692.5349     75.3220 307.6558849  +6.6502287     1243.326     2255.698     2065.761     86.41703     172.2196     344.1655      1.961     5.62     1025.528      60.6708     152.6742        16     1.246     1.104  -9.47   0
       521    816.0121   1018.1075 307.5728691  +6.2650942     14885.11     21673.39      22560.3     86.00714     171.8773     334.8325      1.498     3.03      1067.25      60.6708     2393.216        44     1.468     1.112  65.20  16
       522    706.5134     71.8938 307.6501903  +6.6521110     2828.049     4784.466     5345.564     86.28062     172.6295     344.2682      1.900     3.84     1025.001      60.6708     337.3119        22     1.215     1.124  42.55   0
       523    448.3200     62.8695 307.7578090  +6.6472004     3341.073     6040.267     6366.058     86.55323      172.493     344.1655      1.967     4.41     1029.745      60.6708     340.7651        29     1.500     1.168  59.78   0
       524    920.8054     58.1850 307.5615812  +6.6649214     3848.824     6062.591     6460.777     85.87008     171.8087     344.0286      1.654     3.29     1018.293      60.6708     534.3351        28     1.304     1.150  55.87   0
       525    730.6542   1020.8649 307.6082281  +6.2611082     549.0681     734.9659     956.7205     86.28062     170.6393     303.7323      1.099     2.81      1069.55      60.6708     122.7238         5     0.755     0.421  69.27  16
       526    411.7158     54.5929 307.7733024  +6.6493912     1491.418     2512.571      2823.24     85.87008     171.8087     344.0286      1.911     4.73     1031.437      60.6708     161.9913        20     1.198     1.167 -81.00   0
       527    259.2687     55.7987 307.8366224  +6.6437812     734.8813     1517.126     2334.739     85.87008     171.6716     344.0286      2.065     3.39     1048.756      60.6708     122.4282         5     0.949     0.351  42.82   0
       528    159.6183     51.6593 307.8781788  +6.6421442     2395.364     4439.648     4395.853     85.87008     172.0143     343.9943      1.933     4.62     1049.676      60.6708       291.64        30     1.544     1.209  68.03   0
       529     41.5679     49.5443 307.9273133  +6.6390491     10395.76     18105.76      19862.1     86.14399     172.1512     344.1655      1.909     3.98     1056.551      60.6708       1271.4        47     1.648     1.308  70.15   0
       530    308.0803     49.8778 307.8165355  +6.6478634     898.7302     1807.552     2263.499     86.55323     172.4247     344.3708      2.221     5.25     1045.397      60.6708     145.8708        11     1.209     0.913  88.88   0
       531    962.7324     48.2679 307.5444871  +6.6704131     589.2592     1159.927     1130.359     86.28062      172.288     344.2339      2.151     4.44     1014.678      60.6708     96.71863         5     1.154     0.486  58.75   0
       532    777.4198     48.4808 307.6215065  +6.6641453     691.2303     1130.655     1335.138     85.87008     171.8087     344.1313      1.832     5.18     1022.083      60.6708     96.37769         6     1.124     0.675  45.45   0
       533    568.2418     48.5237 307.7084493  +6.6571375     684.8162     1018.598     752.0956     86.14399     172.1512     344.2339      1.626     4.55     1026.052      60.6708     104.2928         7     0.931     0.631 -73.34   0
       534    788.2468     44.3935 307.6171438  +6.6661942     2853.425     4683.421     4908.297      85.7328     171.9458     343.8231      1.806     3.69      1021.66      60.6708     366.4052        26     1.374     1.100  67.32   0
       535    843.1999     43.9142 307.5943183  +6.6682257       5664.2     8839.002     9275.982     85.45757     171.6029     343.8231      1.617     3.47     1019.751      60.6708     729.4365        31     1.397     1.090  73.52   0
       536    433.4409     44.8779 307.7646008  +6.6541300     924.9418     1846.695     2201.358     86.14399     172.1512     344.2339      2.131     6.42      1029.93      60.6708      118.627        13     1.252     0.925 -62.71   0
       537    612.9712     56.6433 307.6895842  +6.6552812     1512.198     2769.284     3471.284     85.87008     172.2196      344.097      2.074     5.05     1025.626      60.6708     174.8287        20     1.267     1.217  45.06   0
       538    550.7249     41.8815 307.7159541  +6.6592938     933.5756     1987.545     1695.994     86.55323     172.4247     344.2682      2.104     6.39     1026.125      60.6708     100.6536        12     1.180     0.972  43.47   0
       539    443.5394     41.1851 307.7605282  +6.6559929     894.4782     1561.135     1815.728      85.7328     172.0827     343.9258      1.941     6.88     1029.414      60.6708     118.4037        13     1.366     0.971 -83.15   0
       540     66.6787     42.4934 307.9171161  +6.6428045     939.7179     1285.579      931.401     86.00715     172.3563     344.2339      1.555     4.31     1054.529      60.6708     127.3549        11     1.009     0.853  46.54   0
       541     81.8749     41.1747 307.9108451  +6.6438600     2667.346     4758.587      4554.51     85.87008     171.9458     344.1655      1.850     4.31     1053.496      60.6708      302.066        28     1.413     1.237  26.21   0
       542    605.4114     37.9915 307.6933552  +6.6627291     1082.996     1498.699     734.2495      85.7328     171.9458     344.1313      1.538     4.53     1025.087      60.6708     152.4829        15     1.242     1.023  41.28   0
       543     24.4312     36.8729 307.9348651  +6.6437040     2137.764     3707.275     4439.301     86.14399     172.1512     344.1997      2.005     3.89     1057.178      60.6708     270.1615        21     1.302     1.018 -84.96   0
       544    782.7353     31.7896 307.6198588  +6.6712141     1875.973      2839.12     2471.032      85.7328     171.9458      344.097      1.632     3.90     1021.118      60.6708     234.9298        17     1.308     0.849  59.56   0
       545    423.3462     32.2600 307.7692227  +6.6590013     967.9818     1826.442     2198.813     86.41703     172.0827     344.1655      1.902     6.73      1030.01      60.6708      111.373        15     1.201     1.059  73.76   0
       546    120.6493     30.9462 307.8950765  +6.6493862     852.1142     1427.832     1418.145     86.28062     172.1512     344.2339      1.825     5.12     1051.199      60.6708     107.9152         8     1.111     0.667  38.44   0
       547    109.6715     25.6258 307.8998193  +6.6512138     7772.176     14352.07     15951.29     85.87008     172.0143     344.1313      2.004     3.92     1051.693      60.6708     889.5945        50     1.676     1.414  65.67   0
       548     86.6260   1018.5453 307.8757770  +6.2405048     7868.008     11633.02     12277.27     85.87008     172.2196     331.0113      1.597     3.15     1075.081      60.6708     1024.426        36     1.447     1.083  70.92  16
       549   1008.2666   1016.7889 307.4930632  +6.2720435     761.4453     1102.391      1146.64      85.7328     171.9458     343.4803      1.616     3.82     1059.183      60.6708     121.4209         8     0.904     0.670   1.48  16
       550    276.3262     19.5413 307.8307593  +6.6593227     1203.151     2180.581     2798.563     86.41703     172.1512     344.1997      2.193     6.19     1048.181      60.6708     145.8652        15     1.272     0.933 -17.16   0
       551    233.3678   1011.9217 307.8150599  +6.2481641     3828.308     5980.881     6612.177     86.14399     172.1512     344.1655      1.668     3.39     1074.419      60.6708     520.5815        25     1.386     1.017  64.65   0
       552    599.4276   1009.0156 307.6631285  +6.2616182       160633       239251     253572.2     85.87008     171.9458      344.097      1.582     3.03      1071.29      60.6708     23410.13       104     1.610     1.276  60.21   3
       553    601.1574   1001.7905 307.6626533  +6.2646591     74599.82       114517     123023.5      85.7328     171.9458     343.9258      1.632     3.01     1071.013      60.6708      11173.6        75     1.598     1.252  64.80   3
       554    416.8863   1011.4689 307.7388586  +6.2544999     719.4166      920.009     410.9825     86.41703     172.4247     344.2339      1.640     4.76     1074.432      60.6708     106.6578         7     1.111     0.579  52.49   0
       555    774.7865   1010.7061 307.5902401  +6.2667752     942.3716     1132.581     982.8461     86.00714     171.8773     344.0286      1.500     4.44     1067.983      60.6708     170.2574         8     1.140     0.492  71.12   0
       556    810.3215   1005.8798 307.5756434  +6.2699531     7167.932     10212.18     9934.502     86.55323     172.4247     344.3366      1.476     2.83     1066.754      60.6708      1152.46        30     1.363     0.979  66.65   0
       557    850.1357   1004.5964 307.5591502  +6.2718104     693.7465     905.9256     1221.968      85.5953     171.9458     343.9601      1.445     4.08     1065.443      60.6708     107.8447         6     0.774     0.614  45.42   0
       558    908.1721   1002.6360 307.5351112  +6.2745539     1632.267     2054.861     1285.443     85.87008     171.8773     343.9943      1.373     3.10     1062.637      60.6708     293.5328        11     1.063     0.637  73.72   0
       559    230.9136   1001.3342 307.8164368  +6.2524529     2147.666     3492.988     3904.972     86.28062     172.3563     344.2682      1.685     3.44     1074.455      60.6708     317.6892        21     1.273     0.988  52.92   0
       560    734.1843    998.3137 307.6075201  +6.2705370     7525.881     10889.22     11972.63     85.87008     171.8773      344.097      1.519     3.02     1068.224      60.6708     1198.595        32     1.385     1.045  65.67   0
