#   1 NUMBER                 Running object number                                     
#   2 X_IMAGE                Object position along x                                    [pixel]
#   3 Y_IMAGE                Object position along y                                    [pixel]
#   4 ALPHA_J2000            Right ascension of barycenter (J2000)                      [deg]
#   5 DELTA_J2000            Declination of barycenter (J2000)                          [deg]
#   6 FLUX_APER              Flux vector within fixed circular aperture(s)              [count]
#   9 FLUXERR_APER           RMS error vector for aperture flux(es)                     [count]
#  12 FLUX_RADIUS            Fraction-of-light radii                                    [pixel]
#  13 FWHM_IMAGE             FWHM assuming a gaussian core                              [pixel]
#  14 BACKGROUND             Background at centroid position                            [count]
#  15 THRESHOLD              Detection threshold above background                       [count]
#  16 FLUX_MAX               Peak flux above background                                 [count]
#  17 ISOAREA_IMAGE          Isophotal area above Analysis threshold                    [pixel**2]
#  18 A_IMAGE                Profile RMS along major axis                               [pixel]
#  19 B_IMAGE                Profile RMS along minor axis                               [pixel]
#  20 THETA_IMAGE            Position angle (CCW/x)                                     [deg]
#  21 FLAGS                  Extraction flags                                          
         1    616.5035     27.0920 307.6804805  +6.6761663     3098.302     5827.909     6738.638     78.34395     156.8118     312.5069      2.160     5.33     830.6383     55.08989     541.4782        39     2.312     1.002  63.01   0
         2    685.2764     17.6679 307.6522209  +6.6823504     1861.428     2708.001      3156.83     78.46782     156.4398     312.5069      1.535     3.58     830.7355     55.08989     349.6046        17     1.394     0.779  45.17   0
         3    196.4701     13.4571 307.8554560  +6.6677534     779.5864     1105.283     998.5394     78.46782     156.3156     312.5069      1.536     5.91      843.581     55.08989     104.0333        11     1.371     0.718  37.68   0
         4    250.6679     12.6622 307.8329649  +6.6698969     924.6283     1355.197     1979.745     78.34396     156.2534     312.5379      1.823     5.35     843.9307     55.08989      121.209        11     1.152     0.702  32.90   0
         5    173.5008     10.6322 307.8650942  +6.6681500     11448.15        16584      17081.8     78.34396     156.1913     312.6622      1.571     3.54     843.3134     55.08989     1835.851        37     1.489     0.971  40.76   0
         6    919.1367      8.1976 307.5553662  +6.6940463     4047.193     5988.186     6382.475     77.72167     156.1291     311.6978      1.545     3.43     829.7339     55.08989     574.7295        26     1.463     0.910  43.01  16
         7    517.7327      8.6928 307.7221360  +6.6804660      3154.79     4452.146     5024.916     78.21989     156.5018      312.569      1.527     3.90     831.5405     55.08989     499.1836        21     1.340     0.821  41.00  16
         8    719.7705      6.9676 307.6382466  +6.6879177     2125.279     3183.781     3521.685     77.84653     156.0669      304.543      1.603     4.07     830.0382     55.08989     350.9884        17     1.275     0.888  29.76  16
         9    455.9026      6.9644 307.7478841  +6.6791142     1967.637     2804.125     2220.269     78.34395     156.1913     304.8299      1.505     4.06     834.9169     55.08989     339.7684        16     1.331     0.714  35.00  16
        10    983.7701      4.2269 307.5286424  +6.6978341     1991.436     3161.846     3089.528     77.84653     155.3808     276.8474      1.656     3.95     828.0083     55.08989     262.3291        17     1.316     0.847  64.86  24
        11    703.6316      1.6687 307.6451298  +6.6895676     6218.973     7543.896     7730.966     72.28332     129.3194     240.5858      1.166     2.85     830.0577     55.08989     1404.312        19     1.157     0.771  21.21  24
        12    624.1552      1.4055 307.6781616  +6.6870264     2047.353     2468.146      2471.72     68.70132     125.1984      236.186      1.017     2.19     829.8385     55.08989     576.9595        10     0.894     0.613  12.11  24
        13    434.3665   1005.4849 307.7233484  +6.2661452     902.2902     1577.061     1691.657     78.34396     156.1913     312.5069      1.856     4.52     864.5611     55.08989     138.3795        12     1.388     0.703  26.90   0
        14    787.8815   1023.5824 307.5759752  +6.2704574     3373.359     4573.313     5117.832     68.98346     125.4309     236.6789      1.358     4.24     859.4667     55.08989     694.8256        17     1.515     0.579   6.78  24
        15    579.2312   1020.8796 307.6626905  +6.2646231     68131.27     113822.3     120908.3     78.21989     154.8173     275.5817      1.800     3.91     864.1203     55.08989      8231.75        88     1.714     1.378  33.11  26
        16    727.7296   1003.7083 307.6016125  +6.2766606     964.5443     1473.913     1634.285     78.21989     156.4398      312.569      1.639     3.84     861.7389     55.08989      183.947        10     1.134     0.836  44.79   0
        17    358.3038   1002.1963 307.7550367  +6.2649621     1795.164     2759.359      2637.22     78.09563     156.0046     312.2271      1.638     4.21     864.3829     55.08989     230.6858        18     1.302     0.927  41.51   0
        18    745.1403    992.0247 307.5947742  +6.2820641      7260.07     12389.34      13008.1     77.97118     156.3156     312.4136      1.817     4.12     861.1494     55.08989      868.554        42     1.645     1.182  42.71   0
        19    540.5956    992.6842 307.6796743  +6.2749755     3998.374     6735.809     7421.177     77.84653     155.9424     312.2271      1.842     3.69     864.0251     55.08989     526.2775        35     1.583     1.178  43.27   2
        20    537.7291    984.8210 307.6811277  +6.2781264     8054.701     12866.52     14158.61     77.97118     156.1913     312.5069      1.697     3.82     863.9388     55.08989     1032.412        33     1.515     1.068  40.60   2
        21    290.6464    991.4890 307.7834843  +6.2671210     14494.06     23068.88     24962.18     78.34396     156.1913     312.6622      1.767     3.80     862.7932     55.08989     1866.482        49     1.645     1.170  44.64   2
        22    295.0643    988.1274 307.7817630  +6.2686566     1087.658     1562.651     2197.601     78.34395     156.3156      312.569      1.591     4.23     862.8254     55.08989     155.2822        12     1.099     0.776  59.21   3
        23    510.7204    993.9178 307.6920363  +6.2734695     882.8854     1452.325     1353.292     78.46782     156.5639     312.6622      1.698     5.48     864.6458     55.08989     154.5561        12     1.478     0.645  19.22   0
        24    806.2830    990.9890 307.5694234  +6.2845266     957.4852     1659.484     1888.295     77.97118     156.0046     312.3825      2.020     5.35     859.0991     55.08989     114.9447        10     0.965     0.839  52.69   0
        25    415.2383    991.8490 307.7317466  +6.2711362      989.408      1625.77     1786.496     78.34395     156.3777     312.4136      1.638     3.76     863.9327     55.08989     135.4901        10     0.936     0.782 -26.92   0
        26    261.7555    988.7563 307.7955702  +6.2672830     926.5195     1538.725     1389.236     78.34396     156.3156     312.4758      1.693     4.06     862.5948     55.08989     176.6992        11     1.250     0.779  53.37   0
        27    906.4526    985.4381 307.5280195  +6.2901495     7751.511     13888.38      14462.2     78.21989     156.3777     312.5379      1.922     4.26     858.2271     55.08989     909.9966        47     1.760     1.267  42.68   0
        28    880.0338    981.6276 307.5391154  +6.2908445     10636.08      19330.7     21451.95     77.84653     156.0669     312.3203      1.957     4.19     858.3045     55.08989     1294.156        59     1.821     1.347  37.39   0
        29     36.2210    984.9562 307.8893282  +6.2612998     566.2828     857.8969     576.3698     77.84653     156.1913     312.3514      1.427     2.76     859.1948     55.08989     116.8138         5     0.796     0.470 -37.01   0
        30   1001.6825    980.9853 307.4886291  +6.2951516      3937.35      7844.48     8304.837     77.97118     156.0669     312.3825      2.061     4.72     855.2551     55.08989     437.9128        44     1.727     1.378  41.48   0
        31    592.8400    982.0731 307.6583389  +6.2810988      1295.78     2279.942     2114.951     78.21989     156.3777     312.6001      1.799     4.93     863.5173     55.08989     212.7006        16     1.342     0.898  45.19   0
        32    524.4490    980.6745 307.6867800  +6.2793952     4065.368     6761.151      7566.37     78.34396     156.3777      312.569      1.900     4.39     864.0869     55.08989     497.9851        40     1.924     1.114  26.88   0
        33    633.8879    979.9200 307.6413687  +6.2833560     1322.957     2523.976     2525.837     78.09563     156.5639     312.6622      1.928     6.56     863.0706     55.08989     161.8511        22     1.625     0.964  38.42   0
        34    477.3990    977.3208 307.7064262  +6.2792098     2018.396     3307.388     2889.697     77.59662     155.7554     312.3203      1.752     3.86     864.5566     55.08989     328.9146        23     1.585     1.003  57.77   0
        35     59.1628    979.2725 307.8799953  +6.2644153     791.7338     1393.118     1432.306     78.21989     156.3156     312.6001      1.854     5.68     859.4005     55.08989      135.024        12     1.499     0.606  27.16   0
        36    911.7679    969.1587 307.5263555  +6.2970475     37955.84     67828.75     72584.79     77.97118     156.2534     312.4136      1.914     4.11     857.9153     55.08989     4649.692        75     1.779     1.358  43.24   0
        37    219.0020    967.6082 307.8140296  +6.2745838      1740.65     2808.311     2770.263     77.72167     156.0046     312.3203      1.751     4.63     861.5918     55.08989     224.9604        18     1.480     0.835  36.04   0
        38    618.0123    965.4573 307.6484436  +6.2887981     801.3606     1157.899     900.9802     77.72167     156.1913     312.2581      1.515     5.90     863.0936     55.08989     118.2865        11     1.447     0.677  15.26   0
        39    106.8360    966.0353 307.8606489  +6.2714777     680.8038     1147.091     1053.113     78.09563     156.0669     312.2892      1.705     4.65      859.678     55.08989     84.61639         7     0.887     0.691 -32.40   0
        40    809.8231    962.8237 307.5688939  +6.2962731     2147.706     3499.028     3532.052     77.84653     156.1291     312.5069      1.725     4.14     859.2332     55.08989     268.1902        20     1.431     0.877  35.36   0
        41    757.9853    960.7117 307.5904871  +6.2954199     6293.278      10785.6     11320.93     78.09563     156.1291     312.4447      1.796     3.90     860.6113     55.08989     772.2776        40     1.603     1.191  42.17   0
        42    227.4501    959.9397 307.8107798  +6.2780325     1409.323      2314.65     2298.302     78.34395     156.2534     312.6001      1.712     4.60     861.4642     55.08989      178.063        16     1.239     0.937  26.48   0
        43    544.5705    959.8899 307.6791218  +6.2886478     1046.616     1605.986     2000.378     78.46781     156.0669     312.4758      1.683     5.46     863.4222     55.08989     142.8094        11     1.304     0.644  26.16   0
        44    192.5741    960.0204 307.8252563  +6.2768320     708.1479     1174.022     1590.433     77.97118     156.1291     312.4447      1.850     2.51     860.8118     55.08989     127.3846         6     0.780     0.494  88.62   0
        45    946.1884    955.8072 307.5125094  +6.3037038     5937.093     10930.55      11923.1     77.97118     156.1291     312.4447      1.961     4.31     856.8138     55.08989     685.6272        43     1.718     1.243  41.06   0
        46     52.1463    958.0761 307.8836210  +6.2729311     2596.984     4168.889     4457.453     78.46782     156.3156     312.5379      1.722     3.83     859.0951     55.08989     364.8077        23     1.379     1.035  32.29   0
        47    628.5231    950.2081 307.6445898  +6.2954444      723.472     1192.275     1354.286     77.97118     155.8177     312.3514      2.032     4.76     862.6987     55.08989     106.8329         8     1.284     0.499  56.61   0
        48    919.9924    947.5271 307.5236621  +6.3062520      1844.33     3183.788     3336.391     77.97118     155.8801     312.4447      1.902     4.69     857.3965     55.08989     235.9341        20     1.517     0.919  37.62   0
        49    640.5519    943.5681 307.6398176  +6.2985867     4406.059     7125.562     7153.649     78.09563     156.3156     312.4758      1.731     3.94     862.3802     55.08989     568.6439        32     1.504     1.089  42.67   0
        50    779.4534    944.1068 307.5821282  +6.3029902     1375.539     2256.081     2176.082     78.21989     156.2534     312.7243      1.777     5.05     860.0586     55.08989     154.7417        17     1.269     0.946  40.09   0
        51    252.7391    943.7131 307.8008255  +6.2855779     4342.755     6747.194     7016.362     78.46782     156.5018     312.6311      1.681     3.79     861.4057     55.08989     556.0685        28     1.466     0.993  38.26   0
        52    462.7996    941.7819 307.7136780  +6.2933952     1124.515     1939.117     1834.673     77.97118     155.8801     312.2271      1.886     4.22     863.2314     55.08989     190.6969        13     1.189     0.761  52.01   0
        53     21.4890    941.2044 307.8969161  +6.2788688     2048.204     3119.144       3207.3     77.84653     156.0046     312.2581      1.682     4.03     858.8286     55.08989     275.4963        20     1.339     0.965  43.04   0
        54    872.8279    939.9252 307.5434986  +6.3078227     894.6876     1570.121     1590.385     78.21989     156.2534     312.5069      1.806     6.71     858.1826     55.08989     120.9003        13     1.560     0.810  34.44   0
        55    288.5443    937.0810 307.7861827  +6.2895136      775.476     1348.351     1851.985     78.34395     156.3156      312.569      2.143     5.92     861.9583     55.08989     100.3595        10     1.450     0.680  18.99   0
        56    996.8995    936.1682 307.4921084  +6.3134968     687.1453     1374.029     1479.424     78.34395     156.1913     312.6933      2.257     5.88     854.5526     55.08989     116.5264         8     1.303     0.953 -39.73   0
        57    944.4890    936.6983 307.5138520  +6.3115369     680.2385     1027.879     932.6903     78.34396     156.7499     312.5379      1.939     6.13     856.4429     55.08989     110.2505         9     1.215     0.869  42.68   0
        58    565.2522    936.0908 307.6713315  +6.2991634     1663.641     2572.408     2241.067     78.21989     156.1291     312.6933      1.633     3.94      862.998     55.08989     222.2296        15     1.115     0.913  37.25   0
        59    604.6304    932.5251 307.6551013  +6.3019486     1244.466     2101.239     2407.562     78.21989     156.3777     312.5379      1.874     4.82      862.876     55.08989     176.8827        18     1.376     0.994  34.33   0
        60     54.4765    933.2856 307.8834875  +6.2832440     790.2067     1206.613     1753.981     78.34396     156.6259     312.6001      1.822     4.77      858.824     55.08989     116.6316        10     1.124     0.863  -4.91   0
        61    284.2464    930.2917 307.7881950  +6.2921729     1373.523     2156.589     2247.906     78.34396     156.2534     312.6622      1.654     4.17     861.7433     55.08989     207.9366        15     1.340     0.751  40.06   0
        62    553.3386    928.2242 307.6765413  +6.3020139     597.1741     871.0801     813.4998     77.97118     156.2534     312.4447      1.249     3.44     862.8891     55.08989     102.0973         5     0.784     0.436  73.62   0
        63    751.4138    926.2145 307.5943679  +6.3094441     794.4167     1358.356     1671.927     78.21989     156.0046     312.4758      1.758     5.47     860.6413     55.08989     122.8019        11     1.385     0.773  43.16   0
        64    888.8431    922.7554 307.5374217  +6.3154442     6415.936     11011.72     11274.11     78.34395     156.3156     312.4447      1.827     4.09     857.6675     55.08989     755.7098        37     1.628     1.134  38.85   0
        65    424.6143    920.1489 307.7302569  +6.3010516     2212.883     3435.872     3256.298     77.72167     156.3156     312.2892      1.623     4.29     862.6426     55.08989     301.9086        22     1.357     1.058  39.04   0
        66    326.3698    918.4852 307.7711024  +6.2984558     9563.709     14681.78     15852.73     78.34396     156.1291     312.4136      1.692     3.85     861.7461     55.08989     1201.565        38     1.519     1.079  45.70   0
        67    246.3885    917.4147 307.8043450  +6.2962229      7104.07     11047.09     11005.59     78.09563     156.0046     312.4758      1.692     3.68     860.6808     55.08989      982.261        35     1.549     1.051  44.41   0
        68    574.6467    911.7716 307.6682449  +6.3095173     1083.105      1715.32     1386.117     77.97118     156.3777     312.4447      1.545     4.34     862.4242     55.08989     168.6271        14     1.313     0.854  31.60   0
        69    904.3160    907.5831 307.5315033  +6.3222228      1001.94      1561.11     1958.921     77.97118     156.0046     312.4758      1.634     3.90     857.1395     55.08989     153.0831        12     1.082     0.866  25.92   0
        70    137.3803    908.3073 307.8499085  +6.2963340     647.3116     814.6628     728.6547     78.21989     156.1291     312.3825      1.273     3.06     858.6952     55.08989     120.8696         5     0.964     0.338 -20.39   0
        71    860.9395    906.5616 307.5495480  +6.3212024     706.2131     1263.091     1131.796     78.34395     156.3777      312.569      1.946     4.35     858.0315     55.08989     124.1379         6     1.098     0.490  55.52   0
        72    403.1925    906.4084 307.7396116  +6.3060090     550.4911     776.9231     853.9019     77.72167     156.1291     312.4136      1.414     3.39     862.2683     55.08989     90.89282         5     0.741     0.449  19.81   0
        73    741.0280    901.0861 307.5995197  +6.3194731     1634.713     2780.569      3100.94     78.46782     156.0046     312.3825      1.774     4.34     860.5302     55.08989     205.0089        19     1.459     0.812  44.85   0
        74    564.9599    901.4520 307.6726122  +6.3134549     774.1686     970.4152      508.633     78.21989     156.3777     312.5379      1.360     3.46     862.1357     55.08989     114.4234         8     0.807     0.697  79.47   0
        75    605.1239    897.4064 307.6560713  +6.3164645      719.375      1227.34     1377.067     77.97118     155.8177     312.3825      1.764     4.40     862.0087     55.08989      126.356         8     1.147     0.592  15.30   0
        76    526.2280    896.8241 307.6888487  +6.3140736     1121.482     1730.278     1757.324     77.84653     156.1913     312.3825      1.662     4.05     862.0214     55.08989      148.685        14     1.238     0.774  47.33   0
        77    659.3499    894.3364 307.6336589  +6.3195394     2633.789     3888.456     3944.042     78.34396     156.2534      312.569      1.648     3.53     861.3481     55.08989      365.317        20     1.252     0.964  43.13   0
        78    820.2675    891.2360 307.5669472  +6.3261771     672.5168     1072.773     1239.835     78.21989     156.3777     312.6311      1.684     5.16     858.6772     55.08989      88.3501         9     1.101     0.684  43.64   0
        79     55.9922    890.5958 307.8842942  +6.3009193     2849.693     4656.764     4786.671     77.72167     156.0046     312.3825      1.725     3.76     857.6758     55.08989     384.0072        23     1.384     0.974  39.65   0
        80    972.1630    896.6324 307.5036970  +6.3289986     1108.055     2129.019     2716.596     77.97118     156.0669     312.3203      2.253     6.15     855.0848     55.08989     127.9376        17     1.431     0.912  43.56   0
        81     73.5356    889.8053 307.8770372  +6.3018336     1980.793      3058.87     3921.635     77.72167     156.0669     312.3203      1.740     4.43     857.7809     55.08989     253.1762        17     1.323     0.875  39.11   0
        82    937.8835    889.8513 307.5181567  +6.3306594     789.6142     1406.929     1140.717     78.34395     156.2534     312.6311      1.806     4.98     856.1709     55.08989      111.669         9     0.999     0.701  72.62   0
        83    199.4212    889.2765 307.8247899  +6.3062682     2264.865     3501.547     3279.941     77.97118     156.0669     312.4758      1.646     4.26     859.4417     55.08989     322.4109        20     1.422     0.891  31.96   0
        84    233.6703    886.5397 307.8106620  +6.3085444     788.3469      1284.66     1007.532     78.46782     156.3156      312.569      1.787     5.06     860.0352     55.08989     119.7017         7     1.097     0.661  46.80   0
        85    654.0851    883.4119 307.6362102  +6.3238743     6806.059     10530.13        11026     77.97118     156.0669     312.3825      1.645     3.66     861.2664     55.08989     931.5005        33     1.462     1.053  39.32   0
        86    338.4929    885.6413 307.7671708  +6.3124210     963.5991     1616.331     2485.752     78.46782     156.2534     312.6311      1.890     4.78     861.1824     55.08989     121.6588        11     0.962     0.838  46.61   0
        87    791.6606    883.7558 307.5790750  +6.3283137     687.1079       781.55     452.1714     78.21989     156.3156     312.6622      1.387     4.76     859.2043     55.08989     112.1382         8     0.994     0.646  85.97   0
        88     14.3425    881.9478 307.9018770  +6.3030932     1160.091     1717.192     1627.669     78.34395     156.3156     312.5379      1.552     4.82     857.0374     55.08989     134.1674        13     1.184     0.841  22.84   0
        89    891.8385    879.5988 307.5376177  +6.3333620     2513.684     4515.386     4562.349     77.47136     156.1291     312.2892      1.887     4.56     857.0114     55.08989     285.1208        27     1.633     1.006  48.65   0
        90     26.8535    880.4094 307.8967345  +6.3041479      966.936     1573.762     1777.095     77.72167     156.2534     312.2581      1.773     5.24      857.085     55.08989     158.7227        12     1.457     0.823  41.08   0
        91    336.9939    876.7042 307.7680930  +6.3160606     16352.03     25179.09     26696.86     78.09563     156.0046     312.3514      1.602     3.53     861.0026     55.08989     2181.941        42     1.532     1.060  41.55   0
        92     71.6212    877.9316 307.8782314  +6.3066716     1432.566     2309.643     2175.928     77.97118     156.2534     312.4447      1.683     4.06     857.4545     55.08989     202.8037        16     1.128     1.035  47.44   0
        93    923.1402    877.8562 307.5246785  +6.3351220     537.5353     703.8788     712.8938     78.46781     156.3156      312.569      1.658     4.86     856.4739     55.08989     81.42236         6     1.067     0.627  -9.82   0
        94    208.0095    876.2018 307.8216633  +6.3119537     1196.569     1869.162      1990.48     77.72167     156.0046     312.3203      1.669     4.41     859.4645     55.08989     167.1426        14     1.191     0.808  37.17   0
        95    386.4603    875.6628 307.7475895  +6.3181437     541.8102     960.0812     550.8746     78.34396     156.3156      312.569      2.072     4.16     861.5646     55.08989     108.8605         5     1.284     0.385  12.94   0
        96    414.9805    867.9604 307.7360060  +6.3222765     1050.297     1585.418     1591.224     77.97118     156.1291     312.2581      1.591     4.58     861.8556     55.08989     173.4196        14     1.438     0.695  19.09   0
        97    100.2942    867.2420 307.8666864  +6.3120456     1689.438     2590.327     2802.916     78.34396     156.2534     312.6622      1.643     3.91     857.5159     55.08989     220.6061        17     1.223     0.933  40.84   0
        98    668.1708    863.7106 307.6310203  +6.3324778     831.7692     1441.815     1570.009     78.46782     156.0669     312.4447      1.723     5.20     860.9548     55.08989     119.5142         9     1.221     0.625  31.94   0
        99    495.1783    863.8955 307.7028434  +6.3266325      644.483     950.0007     1294.425     78.21989     156.1291     312.3825      1.459     2.49      861.123     55.08989     119.8715         7     0.896     0.715  26.11   0
       100    882.1442    861.3544 307.5422517  +6.3405724     1733.355      2809.19     2502.065     78.34395     156.3156     312.5379      1.718     4.95     856.9007     55.08989     208.3221        22     1.548     0.914  47.76   0
       101    852.9304    860.8300 307.5543997  +6.3398175     1857.594     2903.518     3277.299     78.21989     156.3156     312.4758      1.589     3.51     857.4407     55.08989     224.2585        18     1.266     0.845  41.12   0
       102    816.1469    860.2814 307.5696916  +6.3388204     2921.521     4667.328      5076.86     78.34395     156.3156     312.6001      1.708     4.06     858.2781     55.08989     371.8306        26     1.486     1.012  37.56   0
       103     83.6571    860.7301 307.8738128  +6.3141766     2337.167       3486.9     3546.008     78.46782     156.3156     312.5069      1.576     3.85     857.1781     55.08989     352.2341        20     1.407     0.868  27.30   0
       104    552.1316    851.8380 307.6795993  +6.3335110     338486.2     516043.9     540087.8     78.21989     156.3156     312.6311      1.605     3.56     860.8842     55.08989     47076.02       170     1.695     1.270  42.35   0
       105    331.3549    858.5765 307.7710424  +6.3233563     702.3939     1145.007     1654.017     77.84653     156.3156     312.4136      1.671     3.96     860.6218     55.08989     125.8732         7     1.120     0.814  44.91   0
       106    639.8477    854.9295 307.6430744  +6.3351594     1291.895     1901.477     2137.439     78.34395     156.2534      312.569      1.539     4.08     860.7563     55.08989     213.2509        14     1.286     0.720  55.54   0
       107    396.3372    854.4589 307.7441994  +6.3272280     7863.352     11404.65     12016.43     78.46782     156.2534      312.569      1.577     3.67     861.2369     55.08989     1027.906        29     1.443     0.939  37.16   0
       108    339.5397    852.9194 307.7678338  +6.3259655     12899.08     19229.06     19766.12     78.46781     156.3156     312.5069      1.610     3.69     860.5784     55.08989     1910.485        37     1.502     1.024  40.81   0
       109    658.0602    849.0632 307.6357083  +6.3381884     3654.584     5523.596      5432.82     78.34395     156.2534      312.569      1.579     3.65     860.4803     55.08989      550.394        26     1.484     0.899  35.01   0
       110    890.2264    847.7979 307.5393481  +6.3464383      4766.07     8305.908     9177.257     77.84653     156.0046     312.3514      1.902     4.09     856.5876     55.08989      642.943        41     2.009     1.186  17.65   0
       111    632.7334    843.1323 307.6464230  +6.3397929     3412.241     5409.064     5987.608     78.34395     156.3156      312.569      1.692     3.73     860.3945     55.08989     498.9329        29     1.535     1.072  40.40   0
       112    730.3092    845.8565 307.6058157  +6.3419190      775.131     1062.511     1293.928     78.21989     156.1913     312.6311      1.623     5.38     859.8002     55.08989     107.2039        10     1.209     0.677  37.55   0
       113   1023.0341    841.8364 307.4843999  +6.3533120     3323.746      4975.36     5244.766     74.79252     133.0943     245.0652      1.556     4.39      852.854     55.08989     487.4435        22     1.432     0.932  73.77  24
       114    821.1738    842.2695 307.5682056  +6.3464243     1581.356     2515.442     2931.441     77.97118     156.1913     312.4758      1.848     4.11     857.8161     55.08989     220.6572        16     1.248     0.845  39.72   0
       115    623.0823    842.1341 307.6504638  +6.3398834     990.3806     1687.877     2240.251     78.59148     156.5639     312.6001      1.919     4.60     860.4097     55.08989     147.2719        12     1.229     0.752  55.54   2
       116    625.6118    837.7346 307.6495606  +6.3417841     2007.646     3242.674     3993.827     77.84653     156.1291     312.4136      1.820     4.09      860.267     55.08989     300.6975        20     1.463     0.894  53.01   3
       117    948.0388    840.5969 307.5155823  +6.3513329     661.6436     1208.251     1202.943     77.47136     156.0669     312.2892      1.756     5.19     855.1191     55.08989     100.6553         8     1.136     0.670 -11.13   0
       118    909.3442    835.6993 307.5318132  +6.3520690     3109.357     5035.752     5027.347     78.09563     156.3156     312.7864      1.713     3.74     856.0056     55.08989     396.6879        29     1.554     1.034  45.49   0
       119    319.5768    836.6842 307.7766672  +6.3320010     1054.648     1482.422     1013.355     78.21989     156.0669     312.4447      1.433     4.24     860.1991     55.08989     161.2036         9     1.100     0.562  41.99   0
       120    367.3300    831.8737 307.7570009  +6.3355833     2752.871     4138.204     3848.582     78.46782     156.4398      312.569      1.567     3.74     860.3785     55.08989     415.6573        21     1.377     0.893  44.31   0
       121    503.7174    821.6160 307.7007139  +6.3443733     3266.064     4733.126     5066.408     77.97118     156.0046     312.4136      1.561     3.56     860.3284     55.08989     492.8046        24     1.394     0.900  34.56   0
       122    848.6729    820.5234 307.5575129  +6.3563174     1010.822     1532.656     1950.802     78.59148     156.5639      312.569      1.685     5.45     857.0342     55.08989     118.1211        10     1.089     0.768  51.08   0
       123    569.0656    819.1909 307.6736607  +6.3475548     822.2759     1165.568      938.262     77.84653     156.1291     312.4136      1.677     3.91     860.0803     55.08989     128.4783         8     1.035     0.528  55.05   0
       124    550.5308    817.6885 307.6814072  +6.3475568     6436.205     9383.156     9848.011     78.34396     156.5639     312.5069      1.568     3.64     860.2037     55.08989     936.8723        29     1.457     0.955  34.57   0
       125    557.2391    817.0067 307.6786446  +6.3480621     1328.309     1964.533     1974.876     77.72167     156.0046     312.2581      1.610     4.54     860.1335     55.08989     191.5764        14     1.273     0.767  40.48   0
       126    468.3186    816.6038 307.7155803  +6.3452610     1559.602     2604.408      2436.03     77.84653     155.8801     312.2581      1.698     3.99     860.2652     55.08989     228.9129        18     1.375     0.838  41.15   0
       127    262.3211    817.9174 307.8010703  +6.3378342     612.2997     903.4879     562.4113     78.46781     156.5639     312.6622      1.572     4.24     859.5856     55.08989     107.8737         6     1.080     0.473  37.73   0
       128    886.2678    815.6639 307.5420640  +6.3595740     1439.071     2241.204     2592.476     78.34396     156.3156     312.6001      1.744     3.66     856.2253     55.08989     226.3838        15     1.259     0.770  46.64   0
       129    110.0039    815.8905 307.8643816  +6.3335715     1153.678     1964.551     2102.511     77.84653     156.0046     312.2581      1.781     4.67     856.5427     55.08989     171.1126        16     1.272     0.968  36.46   0
       130    686.1819    814.5042 307.6251868  +6.3533937     700.9467     926.3451     862.4805     78.21989     156.1291     312.3514      1.353     4.73     859.1945     55.08989     98.25598         8     0.915     0.694  51.13   0
       131    521.2165    811.5522 307.6937849  +6.3491123     20236.63      30250.7     30964.72     77.84653     156.3156     312.3203      1.587     3.58     860.1392     55.08989     2780.102        41     1.503     1.032  42.25   0
       132    362.3268    813.0110 307.7597110  +6.3432038        660.7     790.4024     310.7997     77.84653     155.9424     312.4136      1.308     4.53     859.9295     55.08989     98.66016         7     0.989     0.591  36.22   0
       133    934.8685    809.6841 307.5220821  +6.3636584     3596.365     5607.032     6234.134     78.59148     156.5639      312.569      1.691     3.86     854.7852     55.08989     438.9066        26     1.478     0.963  42.88   0
       134    167.8014    811.0771 307.8405456  +6.3374947     613.6312     789.0516     791.0254     77.59661     155.7554     312.3514      1.396     5.29     857.7695     55.08989     91.85834         8     0.981     0.805  30.61   0
       135    689.0287    803.7046 307.6243658  +6.3579474     584.8771      642.155     714.5544     78.46781     156.0669     312.5069      1.430     4.22      858.838     55.08989     90.21765         5     1.086     0.467  67.92   0
       136     31.7006    802.0919 307.8973574  +6.3366438     1600.217     2452.883     2054.427     78.34395     156.7499     312.5069      1.604     4.82     855.9052     55.08989     206.8138        15     1.281     0.809  38.19   0
       137    313.8490    800.2516 307.7802680  +6.3468511     3433.121     5015.953     5253.286     78.46782     156.1913     312.5069      1.568     3.61     859.5972     55.08989     502.6773        23     1.362     0.901  39.66   0
       138    576.4204    800.7150 307.6712252  +6.3554282     627.9405     1116.888     1285.792     77.97118     156.0046     312.4758      2.133     4.54     859.5776     55.08989     95.64044         7     0.931     0.629  17.43   0
       139     13.6119    798.3413 307.9049940  +6.3375856     2100.926     3527.683     3648.139     77.72167     156.2534     312.2581      1.793     4.63     855.7963     55.08989     266.4852        20     1.468     0.926  34.15   0
       140    779.3867    796.0010 307.5871025  +6.3641368     54406.37      84259.3     88018.88     77.97118     156.0046     312.3203      1.651     3.65     857.6196     55.08989     7938.015        70     1.637     1.129  42.28   0
       141    717.6558    798.0327 307.6126682  +6.3612426      743.667     1059.121     1277.872     78.21989     156.3777     312.5379      1.650     5.24     858.6506     55.08989     99.43781         9     1.028     0.755  57.37   0
       142    236.0970    772.7133 307.8134770  +6.3556196     758147.9      1702153      1873787     78.34395     156.6879      312.569      2.259     8.20     858.0286     55.08989     63477.69       619     2.830     2.108  73.29   4
       143    904.6078    791.2431 307.5352630  +6.3702664      8225.46     13291.37     13803.14     77.84653     156.1291     312.2581      1.730     3.85     855.3188     55.08989     1125.754        38     1.594     1.089  43.85   0
       144    707.6052    790.5090 307.6170931  +6.3640142     21693.54     33176.14     35069.71     77.97118     156.0046     312.2581      1.654     3.69     858.4453     55.08989     3115.487        43     1.479     1.077  45.93   3
       145    701.3533    787.1490 307.6198015  +6.3651933     89960.11     135791.1     143324.8     78.46782     156.1913     312.6001      1.623     3.67     858.3363     55.08989     13285.69        82     1.659     1.144  44.35   3
       146    346.1670    788.0681 307.7672576  +6.3529616     21062.47     31612.64      32239.4     78.21989     156.3156      312.569      1.572     3.59     859.0365     55.08989     2958.936        45     1.532     1.038  40.60   0
       147    395.4173    788.3576 307.7467977  +6.3544880     1491.315     2239.014     2180.726     77.84653     156.1291     312.2892      1.612     4.20     859.1484     55.08989     214.8304        16     1.247     0.890  32.06   0
       148    408.0444    785.9239 307.7416362  +6.3559147     22748.95      34015.6     35002.34     78.21989     156.3777      312.569      1.547     3.53     859.0836     55.08989      3301.81        48     1.548     1.040  41.00   0
       149    945.1782    784.7654 307.5186320  +6.3742893     1911.677     3035.921     3231.908     77.84653     156.1291     312.2892      1.704     4.42     854.1862     55.08989     257.8376        20     1.453     0.901  54.73   0
       150    634.5922    787.3444 307.6475173  +6.3628880     830.8619     1170.105     1648.355     77.72167     156.1291     312.2581      1.466     4.22     858.5892     55.08989     142.6663         7     1.025     0.495  27.59   0
       151    901.6255    782.6603 307.5367878  +6.3737109     6437.978     10290.06     10822.61     77.97118     156.3156     312.4136      1.730     3.81     855.2842     55.08989     834.5743        37     1.603     1.089  44.32   0
       152    642.0955    781.7556 307.6445885  +6.3654456     6590.371     9926.475     10619.01     78.34395     156.2534     312.6622      1.569     3.71     858.4018     55.08989     892.5524        28     1.457     0.918  38.08   0
       153    874.0867    783.0763 307.5482096  +6.3726236     625.1685     1001.085     840.4808     78.34395     156.6259     312.6001      1.473     4.47     855.9691     55.08989     96.33893         7     1.132     0.502  39.55   0
       154    430.7856    779.7590 307.7323999  +6.3592196     1786.159     2602.096      2430.71     77.84653     156.1291     312.2892      1.602     3.84      858.761     55.08989     234.3652        16     1.191     0.848  37.19   0
       155    156.4181    779.1383 307.8463455  +6.3502996     648.6208     933.9465     1170.197     77.97118     156.2534     312.4136      1.644     4.42     856.3999     55.08989     81.76184         7     0.889     0.624  14.61   0
       156    677.2434    771.8969 307.6303231  +6.3706872     2557.569     3939.108     4142.333     78.34395     156.2534     312.6933      1.597     4.03      857.972     55.08989     399.5905        20     1.434     0.848  48.12   0
       157    595.0807    773.5403 307.6643861  +6.3672700     1102.234     1365.514     1502.166     78.46781     156.3156     312.5379      1.415     4.98     858.3425     55.08989     156.0471        12     1.243     0.676  41.02   0
       158    146.4019    772.5999 307.8507242  +6.3526635      1114.88     1579.931     1383.069     77.72167     155.8801     312.2271      1.625     4.85      855.956     55.08989     150.0226        13     1.338     0.750  45.42   0
       159    121.3227    772.6897 307.8611345  +6.3517863     1090.065     1704.812      1673.58     78.21989     156.5639     312.6001      1.730     4.26     855.4621     55.08989     165.6893        15     1.301     0.868  53.35   0
       160    870.1908    773.3906 307.5501507  +6.3764930     598.5874     911.4913     1029.429     77.97118     156.1291     312.4136      1.271     3.41     855.8275     55.08989     89.01392         5     0.761     0.441  19.67   0
       161    410.9954    768.5908 307.7409920  +6.3631695     55044.49     82912.44     86325.04     77.72167     156.0669     312.3825      1.568     3.57     858.2006     55.08989      7570.09        71     1.581     1.128  37.53   0
       162    954.1749    770.2880 307.5153788  +6.3805656     572.8976     986.8597     788.9458     78.46782     156.1291     312.4136      1.923     5.73     853.8207     55.08989     83.54443         8     1.254     0.737  36.67   0
       163    528.7502    767.5679 307.6921295  +6.3675233      7347.88      10934.8     11193.09     78.09563     156.3156     312.4758      1.595     3.63      858.107     55.08989     1049.809        31     1.457     0.976  38.46   0
       164    445.5477    766.1856 307.7267251  +6.3653166     4616.591     7006.599     8377.231     77.72167     156.2534     312.2892      1.660     3.84     857.9361     55.08989     701.0071        29     1.511     0.978  45.54   2
       165    442.1228    759.6031 307.7283679  +6.3679198     2336.285     3332.689     3653.623     77.84653     155.8177     312.3514      1.507     3.58     857.6154     55.08989     350.2531        19     1.310     0.829  39.16   2
       166    773.9131    764.1382 307.5904398  +6.3771099     11442.48     17654.04     18760.06     78.34395     156.5018     312.5379      1.639     3.67     856.9955     55.08989     1625.494        41     1.603     1.063  40.57   0
       167      3.4072    760.4532 307.9105064  +6.3528854     1088.925     1858.409     1813.001     77.84653     149.7797     266.1885      1.727     5.11      854.562     55.08989     163.0402        15     1.369     0.866  44.41  24
       168    422.8361    794.6069 307.7352031  +6.3528239      766.302     1133.955     1010.349     77.59662     156.0669     312.3203      1.511     4.96     859.5843     55.08989     118.8631         9     1.183     0.590  41.18   0
       169    795.7283    758.2864 307.5815763  +6.3802520     1166.013     1982.506     1658.954     78.46782     156.5639     312.5379      1.730     4.88     856.5729     55.08989     176.1662        15     1.575     0.669  40.69   0
       170    139.9333    756.5724 307.8539488  +6.3590638     3012.598     4905.825     5648.459     77.97118     156.2534     312.4758      1.822     3.79     855.2183     55.08989     436.4874        25     1.471     0.974  33.95   0
       171    131.6530    756.3032 307.8573961  +6.3588976     11799.68      17843.5     19280.65     78.21989     156.3156     312.7864      1.646     3.64     855.0416     55.08989     1672.976        41     1.547     1.062  39.09   3
       172    123.8389    753.5586 307.8607330  +6.3597690      2960.66     4846.959     5238.789     78.09563     156.3156     312.4136      1.790     3.84      854.831     55.08989     401.5374        26     1.468     1.036  45.50   3
       173    123.9255    747.1746 307.8609116  +6.3624075     1950.481     2946.124     3659.405     77.97118     156.1291     312.5069      1.571     3.88     854.5767     55.08989     313.1161        17     1.381     0.777  38.29   2
       174    919.5139    752.6235 307.5303615  +6.3867070     6355.641     9911.404     10482.82     78.34396     156.1291     312.4136      1.727     3.80     854.5734     55.08989        791.5        33     1.496     1.061  38.58   0
       175    968.7402    752.7913 307.5099137  +6.3882735     1333.312      2290.37     2282.615     77.72167     156.1913     312.2581      1.751     4.04     853.2496     55.08989      153.454        16     1.188     0.922  26.45   0
       176    674.9745    750.1767 307.6319916  +6.3795792     1856.847     2660.789     3283.921     77.84653     156.1913     312.5069      1.562     3.43     857.3975     55.08989     291.3741        16     1.237     0.772  36.22   0
       177    561.6942    749.4744 307.6790554  +6.3760926     2410.769      3650.64     3619.486     78.09563     156.5018     312.5379      1.614     3.93      857.238     55.08989     329.7584        22     1.405     0.915  39.06   0
       178    409.4865    748.8314 307.7422810  +6.3712770     1362.256      2035.54     1804.867     78.46782     156.1291     312.4758      1.633     4.37      857.152     55.08989     204.4874        14     1.456     0.663  50.24   0
       179    943.2174    744.1882 307.5207995  +6.3909775      2757.35     4368.074     4530.325     77.97118     156.0046     312.4447      1.664     3.76     853.9566     55.08989     386.5427        26     1.479     0.992  39.61   0
       180    913.6804    744.7226 307.5330475  +6.3897752     2960.931     4563.843     4795.951     78.59148     156.5639     312.6933      1.679     3.89     854.5799     55.08989     365.0126        22     1.391     0.932  38.75   0
       181    974.1907    743.9419 307.5079453  +6.3921083     1628.516     3071.841     3083.227     77.72167     156.2534     312.2581      1.857     5.64     853.0261     55.08989     220.8139        25     1.731     0.966  34.05   0
       182    666.1152    743.9069 307.6358801  +6.3818726     1507.884     2102.447     2197.917     78.09563     156.7499     312.6311      1.481     3.26     857.2564     55.08989     236.5994        18     1.204     0.901  43.22   0
       183    813.3013    741.9213 307.5748254  +6.3875935     989.2251     1486.878     1840.869     78.09563     156.6259      312.569      1.752     4.56     856.0448     55.08989     161.9554        10     1.147     0.599  42.65   0
       184    238.4329    738.9225 307.8136419  +6.3696485     1928.052     2994.463     3985.557     78.21989     156.3156     312.5069      1.776     4.13     856.6472     55.08989     254.9072        16     1.273     0.857  49.76   0
       185    675.4543    735.8682 307.6322708  +6.3855027     686.5965     1154.758      1315.71     78.34395     156.2534     312.4447      1.660     5.63     857.0243     55.08989     99.48242         8     1.300     0.688  44.80   0
       186    931.7767    734.3749 307.5258778  +6.3946490     968.7773     1595.054     1624.621     77.84653     156.1913     312.5069      1.954     3.97     854.1797     55.08989     124.6335        10     0.873     0.854  25.75   0
       187    258.5233    734.4488 307.8054499  +6.3721678     615.6478     785.3702     451.3064     78.21989     156.3777     312.5379      1.385     4.75     856.7108     55.08989     106.1227         7     1.257     0.510  37.33   0
       188    153.8935    734.3099 307.8489006  +6.3687226     743.1072     1092.427     723.9847     78.34395     156.8118      312.569      1.558     5.52      854.593     55.08989     110.7086        10     1.422     0.605  29.86   0
       189    905.5242    733.2778 307.5368164  +6.3942294     1021.785     1508.647     1136.837     78.59148     156.5639     312.6001      1.600     4.97     854.5098     55.08989     166.9573        11     1.365     0.619  40.00   0
       190    958.1730    731.9467 307.5149970  +6.3965286     2405.589     3933.394     4165.667     78.09563     156.4398     312.4758      1.735     4.18     853.3716     55.08989     311.4718        24     1.412     1.034  26.06   0
       191    677.5783    730.8580 307.6315563  +6.3876421     980.0775     1362.737     1829.964     77.97118     156.2534     312.3514      1.552     4.50     856.8552     55.08989     146.2847        10     1.166     0.615  40.06   0
       192    399.0599    727.1470 307.7473377  +6.3798813     620.6307     611.4574     524.9482     78.34395     156.2534     312.5379      1.357     5.14     856.1235     55.08989     94.09357         7     1.134     0.659  43.46   0
       193    999.4431    725.0531 307.4980883  +6.4007458     1652.647     2622.054     2877.321     78.34395     156.3156     312.5379      1.794     4.38     852.0964     55.08989     234.8646        18     1.339     0.898  28.57   0
       194    627.0303    725.4343 307.6527286  +6.3881967     669.9845     1240.454      1400.15     77.84653     156.0669     312.2892      2.004     3.72     856.8253     55.08989     123.2432         6     0.956     0.480   8.56   0
       195    887.4266    721.1572 307.5447363  +6.3986319     1515.291     2621.978     3319.657     77.97118     156.3156     312.4136      2.110     5.23     854.5544     55.08989     201.1147        22     1.626     0.997  56.34   0
       196    800.9947    723.6520 307.5805461  +6.3947269     1127.098     1640.403     1627.925     77.72167     156.0669      312.196      1.547     4.73     855.7984     55.08989     172.7198        10     1.041     0.686  37.23   0
       197    861.7213    716.5780 307.5555640  +6.3996678     949.9047     1347.393     1622.219     77.97118     156.0046     312.5069      1.543     4.64     854.8417     55.08989     158.4418        12     1.283     0.796  40.70   0
       198    844.3806    712.6681 307.5628958  +6.4007053     1557.732     2518.291     2358.398     77.97118     156.1913     312.4758      1.742     4.32      854.998     55.08989     219.0804        18     1.410     0.796  42.43   0
       199     43.2398    711.6734 307.8956088  +6.3743600     2564.584     4056.616     4275.436     78.21989     156.3156     312.6001      1.724     3.90     853.6892     55.08989     357.9671        19     1.308     0.913  43.36   0
       200    107.8065    711.5308 307.8688034  +6.3765831     853.8537     1828.867       2733.1     77.84653     155.8801     312.3825      3.100     4.42     853.7963     55.08989     134.7188        11     1.098     0.755  87.78   2
       201    455.7018    710.7289 307.7243673  +6.3885517     573.8297     945.3327     833.9442     78.21989     156.5018     312.5379      1.856     5.16     855.3795     55.08989     96.73682         8     1.209     0.621  43.77   0
       202    698.8406    703.2248 307.6236507  +6.3997594     670.6665     850.7491     864.1495     77.97118     156.1913     312.3203      1.522     3.40     855.9522     55.08989      106.276         5     0.981     0.341  47.97   0
       203    655.9990    700.0289 307.6415486  +6.3996514     6501.026     9807.856     10360.68     77.84653     156.1291     312.3514      1.538     3.61     856.0811     55.08989     980.2955        32     1.505     0.966  42.92   0
       204    602.6371    699.0078 307.6637426  +6.3982941      1363.47       2053.5     2149.748     77.59661     156.0669     312.2892      1.586     3.76     856.4163     55.08989     239.9977        13     1.337     0.661  31.68   0
       205    524.6213    699.6957 307.6961172  +6.3954076     671.9526     954.3587     452.6792     78.21989     156.1291     312.3514      1.412     4.33     855.7283     55.08989     103.0664         7     1.152     0.463  29.72   0
       206    513.6593    699.7438 307.7006677  +6.3950219     827.3157         1151     835.1371     78.46782     156.3156      312.569      1.429     4.42     855.5349     55.08989     144.9268         8     1.119     0.590  41.96   0
       207    119.0572    696.0776 307.8646513  +6.3833400     3767.178      5571.46     5668.849     78.34395     156.2534     312.5069      1.553     3.54     853.7342     55.08989     575.9513        26     1.475     0.907  38.07   0
       208    992.9797    695.2444 307.5017661  +6.4128384      2345.82     3639.247     3716.351     77.84653     156.1913     312.3825      1.626     3.78     851.9547     55.08989     315.0526        22     1.395     0.922  39.88   0
       209    629.8856    695.6202 307.6525404  +6.4006012     2277.474     3618.467     4171.527     77.97118     156.0669     312.4758      1.731     3.71     856.2119     55.08989     324.5068        21     1.329     0.946  28.03   0
       210    305.6870    695.5477 307.7871713  +6.3898062     709.6794     942.2617     754.7125     78.34396     156.1913     312.6622      1.555     5.14     854.6654     55.08989     106.4178         8     1.238     0.766  54.25   0
       211    240.9279    695.4387 307.8140663  +6.3876847      640.788     859.2714     905.6931     78.21989     156.3156     312.6001      1.668     4.97     854.4246     55.08989     89.72595         8     1.225     0.570  39.09   0
       212    772.9668    692.1199 307.5932388  +6.4068127     20460.27     30772.81     31925.52     78.21989     156.3156     312.5379      1.573     3.67     855.1822     55.08989     3115.525        50     1.542     1.095  39.19   0
       213    902.9141    691.8826 307.5392815  +6.4112336     3610.281      5698.48     6238.708     78.09563     156.5018     312.6311      1.688     3.77     853.8519     55.08989     492.1902        24     1.370     1.028  44.02   0
       214    500.7080    692.2512 307.7062970  +6.3976831     1012.269     1375.557     1136.003     78.21989     156.1913     312.7243      1.604     4.85     855.1168     55.08989     155.0098        12     1.219     0.752  54.80   0
       215    472.0394    692.3992 307.7181971  +6.3966649     1392.366     2159.614     2133.491     77.47136     156.0669     312.2581      1.619     4.25     854.7374     55.08989     217.6144        15     1.305     0.749  36.97   0
       216    454.8876    692.9992 307.7252996  +6.3958445     465.8334     636.3891     716.8558     77.59662     155.8177     312.2581      1.670     3.98     854.7996     55.08989     98.31793         5     0.859     0.528  28.26   0
       217    274.0075    691.9620 307.8004467  +6.3902269      755.838     891.8857     1177.287     77.59662     156.0669     312.2892      1.214     3.90     854.4153     55.08989     134.8716         7     0.995     0.541  58.08   0
       218    317.5596    691.5266 307.7823761  +6.3918633     609.8775     771.4756      452.204     78.21989     156.3777      312.569      1.122     3.57     854.3837     55.08989     129.8649         6     0.983     0.374  21.35   0
       219    962.8395    687.9907 307.5145249  +6.4148321     471.2443       479.67     644.5374     77.72167     156.1291     312.2892      1.329     3.93     852.5463     55.08989     71.94434         5     0.849     0.520  33.62   0
       220    246.4738    685.8961 307.8120839  +6.3918100     6447.326     9655.946     10019.64     78.09563     156.4398     312.5379      1.596     3.68     853.9716     55.08989       991.53        28     1.448     0.935  40.91   0
       221    653.4420    684.9843 307.6431138  +6.4057776      7257.92     10710.87     11479.69     77.84653     156.0669     312.3203      1.571     3.54     855.7159     55.08989     1196.174        29     1.449     0.942  40.53   0
       222    636.0777    686.1000 307.6502875  +6.4047382     946.5584     1500.264     1573.297     78.09563     156.5639      312.569      1.639     5.27      855.935     55.08989     135.2478        11     1.299     0.766  21.44   0
       223    348.3217    684.8522 307.7698258  +6.3956475     777.4263       1247.8     1541.275     78.34395     156.3156     312.5379      1.591     3.54     853.9128     55.08989     136.9187         7     1.034     0.477  19.79   0
       224    913.4725    677.4678 307.5353777  +6.4175361     1322.963     1775.418     1294.016     78.46782     156.4398     312.5379      1.566     3.91     853.3943     55.08989     186.6296        14     1.127     0.817  41.80   0
       225    725.0924    673.3494 307.6137476  +6.4129685     3754.179      5881.16     6117.779     78.21989     156.1913     312.7243      1.684     3.77     855.1188     55.08989     525.2491        25     1.487     0.937  49.83   0
       226    680.4877    673.9044 307.6322528  +6.4112535     907.3777     1437.065      1443.11     78.34395     156.6879     312.6001      1.692     4.67     855.1485     55.08989     128.0687        10     1.111     0.751  41.01   0
       227    991.5159    669.9051 307.5032188  +6.4232518     8504.497     13299.62     13790.98     78.21989     156.6879     312.6311      1.652     3.83     851.6428     55.08989     1114.258        37     1.557     1.052  42.16   0
       228    930.0722    670.4868 307.5287168  +6.4209702     2423.384     3565.835     3382.234     78.46781     156.5639     312.5379      1.543     3.78      852.887     55.08989     379.5641        16     1.318     0.765  42.91   0
       229     10.3553    669.7065 307.9106762  +6.3905832     1992.279     3369.411     4075.272     78.21989     156.2534     312.6622      1.893     5.64     853.4669     55.08989     268.7869        27     1.819     0.935  33.30  16
       230    979.9384    670.3510 307.5080120  +6.4226832     526.4865     787.6896      913.624     78.34395     156.2534     312.6001      1.768     4.59     851.8837     55.08989     109.7859         5     1.313     0.457  -6.34   0
       231    543.9213    667.8766 307.6891680  +6.4091887     539.5593      717.382     1157.837     78.59148     156.5639     312.6311      1.229     4.44     855.5445     55.08989     103.8383         7     1.135     0.495  38.55   0
       232     68.8074    664.9731 307.8865635  +6.3944974     26125.72     39737.59     41388.56     77.84653     156.1291     312.3514      1.588     3.63     853.4698     55.08989     3941.984        55     1.590     1.083  40.42   0
       233    530.1747    665.7988 307.6949463  +6.4095879     2161.329     3057.117     2791.823     77.97118     156.0046     312.3203      1.379     3.81     855.1479     55.08989     363.1652        16     1.315     0.724  38.40   0
       234    498.8998    663.1047 307.7080243  +6.4096564     1464.053     1953.161     1852.818     78.34395     156.8118     312.3825      1.491     3.97     854.3663     55.08989       222.36        15     1.277     0.797  25.96   0
       235    919.9564    661.8925 307.5332046  +6.4241823     947.5477     1471.808     1411.561     78.34395     156.3156     312.6622      1.606     4.90     852.8959     55.08989     147.3337        11     1.246     0.693  13.61   0
       236    539.1935    659.1905 307.6914223  +6.4126171     992.4077     1730.174     1724.104     77.84653     156.1291     312.3825      1.604     5.53     855.0921     55.08989     141.0283        13     1.427     0.693  26.25   0
       237    736.8873    655.2419 307.6094546  +6.4208374     4127.827     6180.221      6009.94     78.34395     156.3156      312.569      1.577     3.84     854.5354     55.08989     621.8403        25     1.467     0.900  32.65   0
       238    568.2422    653.1566 307.6795609  +6.4160775     3391.361     4877.846     5142.042     78.09563     156.3156     312.3825      1.498     3.65     855.0927     55.08989     514.8269        23     1.424     0.882  32.30   0
       239    404.2040    653.7528 307.7476628  +6.4103549     1335.181     2170.384     2432.398     77.72167     156.0669     312.2271      1.629     4.56     852.9896     55.08989     204.7957        14     1.394     0.678  35.73   0
       240   1009.7407    651.3236 307.4962694  +6.4315290      4708.88     7590.533     8055.429     78.46782     156.3777     312.5069      1.735     3.92     850.5807     55.08989     592.8626        30     1.536     1.039  39.43   0
       241    312.3808    652.1290 307.7858490  +6.4079558     1293.596     1972.775      2096.69     77.97118     156.1913     312.4758      1.621     4.07     852.5453     55.08989     205.4873        15     1.287     0.870  33.62   0
       242    975.1081    650.2143 307.5106895  +6.4308367     7871.719     12358.55     12834.38     78.09563     156.0669     312.3203      1.661     3.75     851.3466     55.08989     1124.254        37     1.618     1.019  41.33   0
       243    228.8781    652.6385 307.8205078  +6.4049518     1702.478      2359.64     2481.277     78.21989     156.3777     312.5379      1.456     3.66     852.6615     55.08989     278.5472        13     1.144     0.733  35.17   0
       244    714.8590    657.1592 307.6185387  +6.4193121     3662.027      5616.84     5728.826     78.34395     156.3156     312.6001      1.598     4.07     854.6533     55.08989     552.9109        26     1.451     0.937  46.00   0
       245    695.4534    649.4024 307.6268570  +6.4218682     1077.913     1525.236     1642.069     77.72167     156.0669     312.1648      1.446     4.52      854.493     55.08989     182.7706        11     1.438     0.606  35.39   0
       246     86.8359    647.3757 307.8796692  +6.4023669     802.0845     1215.398     1754.561     77.97118     156.1291     312.3203      1.644     3.36      853.414     55.08989     153.0966         9     1.095     0.569  40.76   0
       247    420.3882    644.7685 307.7412431  +6.4146049     2989.978       4597.5     4804.963     77.84653     156.0669     312.4447      1.611     3.62     852.6902     55.08989     490.1218        23     1.414     0.915  38.36   0
       248    133.5374    643.8375 307.8603950  +6.4053926     25329.81      37350.3     38357.55     78.34396     156.3777     312.5379      1.575     3.60      852.965     55.08989     3946.318        50     1.538     1.058  39.20   0
       249    801.9657    644.0740 307.5828009  +6.4276148      1244.28     1809.773     1571.343     78.21989     156.3156     312.5069      1.434     4.87     853.7469     55.08989     176.0127        11     1.166     0.782   9.60   0
       250    353.2481    638.6613 307.7693298  +6.4148826      882.942     1414.305     1510.271     78.34396     156.2534     312.6001      1.654     4.58     851.8447     55.08989     159.5532         8     1.163     0.778  49.97   0
       251    970.1478    633.2159 307.5133164  +6.4376901     6646.282     11220.15     12477.57     77.72167     156.3777     312.2581      1.836     4.22     850.9316     55.08989     901.2344        39     1.772     1.060  36.28   0
       252     14.6480    632.2831 307.9101536  +6.4061773     1273.726     1960.699     1740.384     78.34396     156.3156     312.5379      1.640     5.00      853.354     55.08989     168.6028        18     1.422     0.933  38.37   0
       253    563.5575    628.5754 307.6823294  +6.4260700     50690.16     73687.11     76345.84     77.97118     156.2534     312.3203      1.564     3.43       854.15     55.08989      8081.27        53     1.542     1.011  41.72   0
       254    928.1777    630.1667 307.5308487  +6.4375544     720.9944     930.6963     745.9482     77.84653     156.1291     312.3203      1.494     4.52     851.9178     55.08989      95.4671         7     1.026     0.565  67.16   0
       255    207.2688    629.8771 307.8302462  +6.4136256     583.1502     584.2191     966.2795     78.46782     156.4398     312.5379      1.205     3.95      852.028     55.08989     109.9058         6     0.902     0.623  27.19   0
       256    522.6438    628.2610 307.6993311  +6.4248346     648.6127     694.1287      253.567     78.34396     156.3156     312.6622      1.347     4.14     853.7573     55.08989     96.28845         6     1.078     0.454  32.63   0
       257    171.1340    625.3259 307.8454048  +6.4142946     2762.495     4105.254     4557.463     78.46782     156.3156     312.5069      1.579     3.86     852.0341     55.08989     395.1359        20     1.332     0.913  42.68   0
       258    493.4402    625.4910 307.7115519  +6.4250035     746.8197     963.2026     853.0634     78.34396     156.2534      312.569      1.354     5.17     853.3508     55.08989     103.6918         9     1.328     0.569  28.07   0
       259   1023.4959    627.6555 307.4913457  +6.4417578     32119.47     38801.84     40308.06     70.23907     126.7403     238.1107      1.124     2.88      849.393     55.08989     7139.104        36     1.443     0.706  85.79  24
       260     63.8004    619.4689 307.8901739  +6.4131160     1354.862     2110.562     2265.934     77.84653     155.8177     312.3514      1.697     3.93     853.3174     55.08989     225.9456        14     1.242     0.738  31.24   0
       261    460.8228    612.3910 307.7255366  +6.4293229      65991.2      96544.6     100605.2     77.97118     156.0669     312.3825      1.547     3.72     852.3247     55.08989     10201.54        67     1.571     1.065  41.11   0
       262      4.2938    613.9193 307.9150715  +6.4134115     1727.377     3052.375     3247.569     78.09563     156.0046     277.8978      1.854     4.39     853.2994     55.08989     254.0576        19     1.462     0.844  38.91  24
       263    647.1248    609.1373 307.6482747  +6.4368820     992.5906     1544.408     1894.682     78.59148     156.3156     312.5379      1.606     6.15     853.6625     55.08989     157.8649        13     1.138     1.091  11.80   0
       264    135.0659    607.3801 307.8609862  +6.4204954     1794.419     2339.695     1744.086     77.97118     156.3156     312.4447      1.384     4.02     852.2488     55.08989     260.5294        14     1.247     0.720  31.98   0
       265    414.3864    605.0087 307.7450688  +6.4308197     1082.115     1572.094     1564.077     77.97118     156.0669     312.4447      1.538     4.73     850.7042     55.08989     183.2493        12     1.353     0.730  36.24   0
       266    930.6744    604.9951 307.5306516  +6.4480301     661.0845     831.5619     1000.293     77.97118     155.8177     312.4447      1.371     4.31     851.1951     55.08989     127.8947         6     1.011     0.523 -11.99   0
       267    606.8357    603.8912 307.6651824  +6.4377047     933.6233     1282.498      1201.71     78.46781     156.1913      312.569      1.503     4.42     853.3377     55.08989     141.3582         8     1.053     0.528  38.35   0
       268    306.2489    601.7786 307.7900856  +6.4285384     2185.895     3362.944     3892.208     77.97118     156.3777     312.4136      1.650     3.90     850.8942     55.08989      388.822        22     1.419     0.928  44.97   0
       269      7.4198    603.6125 307.9141204  +6.4177715     654.5255     905.2091     1445.238     78.09563     156.0046     307.8732      1.468     4.69     853.2293     55.08989     89.64178         6     1.089     0.574  30.41  16
       270    314.6256    602.6494 307.7865776  +6.4284591     484.2984     592.5496     637.5532     77.97118     156.3777     312.4447      1.616     3.80     850.8328     55.08989     81.41669         5     1.036     0.400  15.79   0
       271    458.3701    600.1630 307.7269651  +6.4342895     1071.341     1427.574     1802.313     77.97118     156.0669     312.3825      1.496     5.82     851.9006     55.08989     152.3959        13     1.166     0.819  40.89   0
       272     13.9611    601.2795 307.9114826  +6.4189541     581.6793     875.2281     1223.091     78.21989     156.3777     312.5069      1.794     3.37     853.1833     55.08989     106.8088         5     1.011     0.326  42.16   0
       273    732.9405    595.7997 307.6130807  +6.4452479     5392.609     8071.481     8397.635     77.59661     156.0046     312.2271      1.496     3.56     852.6594     55.08989     884.2112        26     1.452     0.834  40.40   0
       274    786.4637    591.1217 307.5910080  +6.4489614      14455.6     21013.07     22003.39     78.59148     156.3777     312.5379      1.559     3.68     852.4686     55.08989     2332.218        38     1.469     1.005  45.64   0
       275   1003.7239    591.5476 307.5007610  +6.4560093     979.2808     1629.749     1901.185     78.34396     156.3777     312.5379      1.754     4.93     849.1259     55.08989     131.9985        14     1.370     0.879  50.24   0
       276    528.7415    591.0131 307.6980464  +6.4404165     1332.625     1994.831     2096.126     77.72167     156.2534     312.2271      1.625     4.78     852.4749     55.08989     194.7021        14     1.205     0.783  47.39   0
       277    610.2797    589.1459 307.6642456  +6.4439074     2912.738      4244.15     4261.046     78.34395     156.3156     312.6001      1.523     3.74     852.4053     55.08989     452.7744        21     1.407     0.794  40.63   0
       278     31.7845    590.4834 307.9044446  +6.4240091       814.47     1286.783     1606.482     77.97118     156.0046     312.4447      1.749     4.85     852.9661     55.08989     115.3608         9     1.121     0.594  31.11   0
       279    927.3287    585.2347 307.5327004  +6.4560774     1065.036     1615.658     2014.209     78.21989     156.2534     312.5379      1.984     4.47     850.7162     55.08989     152.7877        10     1.265     0.676  29.64   0
       280    222.6873    582.9462 307.8254201  +6.4335174     1343.918     2216.384     2792.037     78.34395     156.1913     312.6933      1.633     4.71     850.7275     55.08989     217.1731        14     1.468     0.620  47.88   0
       281    186.5809    583.7905 307.8403862  +6.4319600     728.3753     991.2925     1825.724     77.97118     156.0669     312.3825      1.695     3.74     851.1064     55.08989     112.1996         7     1.000     0.635   4.62   0
       282    368.5451    582.9315 307.7648470  +6.4384026     1087.792     1443.287     1105.335     78.34395     156.1913     312.5069      1.461     4.43     850.1387     55.08989     170.1328        10     1.065     0.620  31.48   0
       283    862.4736    574.2322 307.5600036  +6.4584637     2874.358     4382.711     4677.253     78.21989     156.3156     312.5379      1.633     3.74     851.7074     55.08989     459.6514        24     1.532     0.836  35.07   0
       284    157.6356    574.2281 307.8527282  +6.4349384     797.9001     1128.174     821.4026     77.97118     156.0669     312.3514      1.231     3.61     851.3113     55.08989     145.8778         8     0.989     0.658  46.32   0
       285    821.1553    571.6678 307.5772498  +6.4581479      2843.33      3872.29     3698.602     78.34395     156.2534      312.569      1.476     3.66     851.7902     55.08989     453.4189        19     1.295     0.826  37.38   0
       286    792.1110    567.8409 307.5894405  +6.4587613     2608.267     4149.625     4995.161     78.34395     156.2534      312.569      1.704     3.73     851.7324     55.08989     376.4181        23     1.444     0.902  43.01   0
       287    801.7869    562.9753 307.5855844  +6.4610922     164117.7     240684.4     251340.8     78.09563     156.1291     312.4758      1.542     3.59     851.5691     55.08989     27521.02       111     1.645     1.128  45.80   0
       288    249.1618    566.8170 307.8149674  +6.4410626     8082.682     11855.23     12063.64     77.97118     156.1913     312.2892      1.526     3.72     850.1714     55.08989     1256.186        30     1.475     0.902  42.58   0
       289    734.3860    567.7491 307.6134181  +6.4568773     664.2426     1179.601     1182.913     77.72167     156.3156     312.2892      1.850     5.32     851.7429     55.08989     115.3895        10     1.508     0.530  32.19   0
       290    183.4126    561.4596 307.8424526  +6.4410733     60642.75     90630.25     95465.25     77.72167     156.2534     312.2271      1.620     3.67     850.8217     55.08989      8797.77        80     1.600     1.164  39.12   0
       291    731.4630    563.2869 307.6147812  +6.4586222     674.0164     1058.576     1569.424     78.34396     156.5018      312.569      1.677     5.27     851.5887     55.08989     98.43835         8     1.057     0.786   7.06   0
       292    107.3586    557.7601 307.8741614  +6.4400527     6380.803     9841.446     10372.52     78.09563     156.3156     312.4136      1.648     3.69     851.5869     55.08989     994.0096        36     1.540     1.098  43.53   0
       293    972.4669    554.5361 307.5149772  +6.4702521     1266.706     2128.578     2016.114     78.34396     156.3156      312.569      1.764     5.19     849.3199     55.08989     203.8448        16     1.432     0.824  37.60   0
       294    838.4119    550.2558 307.5707978  +6.4675625     4509.734     6656.997     6472.905     77.72167     156.2534     312.2271      1.574     3.51     851.0452     55.08989     674.3299        24     1.437     0.863  44.94   0
       295    221.6275    552.6451 307.8268784  +6.4459920     777.7034     1111.278       1275.9     77.84653     156.3777     312.4447      1.561     5.68     850.0715     55.08989     133.6046        10     1.552     0.682  27.43   0
       296    356.7862    548.5086 307.7708855  +6.4522214     18274.59     26522.04     27486.44     78.09563     156.0669     312.3203      1.555     3.73     849.3045     55.08989     2632.935        42     1.513     0.980  38.44   0
       297    447.1614    548.6476 307.7333471  +6.4551840     756.5789     1145.809     1061.276     78.21989     156.3777     312.3514      1.525     5.17     850.5168     55.08989     113.7045         9     1.102     0.760  39.32   0
       298    158.5237    547.3649 307.8532626  +6.4460587     1881.725     2518.515     2423.442     78.21989     156.3777      312.569      1.495     4.09     851.0211     55.08989     269.1219        16     1.315     0.768  29.68   0
       299    792.3080    543.5975 307.5901686  +6.4687773     6184.028      8924.62     8996.552     77.84653     156.0046     312.2892      1.548     3.55     850.9587     55.08989     1002.179        28     1.448     0.895  46.12   0
       300    523.1741    543.4196 307.7019530  +6.4598804     6709.776     9854.038     10170.38     77.84653     156.1291     312.4447      1.539     3.85     850.5784     55.08989     980.1897        29     1.447     0.923  41.88   0
       301    233.5604    545.1052 307.8221760  +6.4495043     1078.857     1538.036     1475.718     78.46781     156.1913     312.6622      1.557     3.86     849.7423     55.08989     160.0499        11     1.109     0.773  40.95   0
       302    164.0633    544.8902 307.8510452  +6.4472660     679.2131     943.9796     1046.746     78.34395     156.4398     312.6001      1.552     5.87     850.9381     55.08989      128.035         9     1.235     0.785  40.54   0
       303     95.8404    544.5046 307.8793907  +6.4451392     868.2018     1289.932     1389.564     78.34396     156.2534     312.6933      1.548     4.88     851.2782     55.08989     122.6118        10     1.238     0.601  22.78   0
       304    381.3679    539.9333 307.7609643  +6.4565835     1439.862     1832.165     1891.975     78.21989     156.3777     312.4758      1.413     3.83     849.4346     55.08989     215.5579        15     1.204     0.864  38.00   0
       305    567.8828    536.4562 307.6836178  +6.4642472     2493.497     4079.724     3976.546     78.34395     156.3156     312.6311      1.730     3.81     849.9741     55.08989     385.0596        25     1.418     1.066  -0.14   0
       306    486.1626    537.7068 307.7175160  +6.4610035     617.4025      872.404     869.1834     78.46782     156.1913     312.6001      1.251     4.21     850.2649     55.08989     108.9207         7     0.896     0.564  36.55   0
       307    265.3685    533.0192 307.8093720  +6.4555586     90108.23     133762.3     139512.5     77.84653     156.1291     312.4136      1.556     3.73     848.9742     55.08989     14388.29        85     1.604     1.117  40.54   0
       308    170.0727    536.5373 307.8488304  +6.4509158     7038.484     10391.99     10371.92     78.46781     156.3156     312.6001      1.553     3.63     850.7868     55.08989     996.2617        30     1.431     0.957  35.82   0
       309    808.9595    535.7546 307.5835147  +6.4725696     1412.461      2082.54     2504.881     78.21989     156.3156     312.3825      1.542     4.64     850.6477     55.08989     224.9592        13     1.304     0.682  49.17   0
       310     41.7301    535.2330 307.9021742  +6.4471528     5311.242     8107.946     8958.945     78.21989     156.3156      312.569      1.661     3.82     852.0909     55.08989     770.5002        31     1.513     1.012  28.03   0
       311    851.1307    535.9889 307.5659916  +6.4738760     479.6844     673.4631     314.7986     77.84653     156.1291     312.4136      1.483     3.92     850.5434     55.08989     88.23267         5     0.841     0.524  30.90   0
       312    554.4199    530.2232 307.6894180  +6.4663714     858.5208     1403.125     1802.503     78.09563     156.1291     312.4758      1.961     5.86      849.896     55.08989     133.1379        11     1.556     0.622  50.54   0
       313    249.2626    528.3472 307.8162178  +6.4569485     1473.333     2245.061     2152.921     78.34396     156.2534     312.5069      1.715     5.44     848.9952     55.08989      193.136        17     1.514     0.788  49.43   0
       314    788.5321    525.3326 307.5923472  +6.4761927     16905.08     24385.09     24990.62     78.34396     156.3777      312.569      1.539     3.66     850.2377     55.08989     2524.829        39     1.510     0.940  45.15   0
       315    964.9721    526.6292 307.5190209  +6.4815252     1695.222     2310.443      2623.79     77.84653     156.0669     312.3203      1.484     3.72      848.647     55.08989     247.8406        17     1.270     0.803  30.03   0
       316    492.1518    523.8325 307.7154936  +6.4669316     42034.24     66585.68      71196.4     78.09563     156.3156     312.4758      1.687     3.96     849.6248     55.08989      6556.17        77     1.738     1.198  34.44   0
       317    522.7547    524.3590 307.7027658  +6.4677358     203.1038     459.9753     581.3807     78.21989     156.3156     312.3825      2.389     4.15     849.6722     55.08989     64.50989         5     1.514     0.325  40.44   0
       318    642.8165    522.3559 307.6529677  +6.4725677     950.4311     1442.321     1541.593     77.97118     156.1913     312.3203      1.448     4.11     849.5699     55.08989     148.1513        11     1.248     0.630  53.68   0
       319    204.6434    520.4918 307.8350124  +6.4586980     1810.645     2973.403     2664.496     78.34396     156.3156     312.6622      1.762     4.12     849.6426     55.08989     288.2317        21     1.461     1.050  53.36   0
       320    714.5954    518.2267 307.6232935  +6.4766644     1427.557     2332.365     2599.963     77.84653     156.1291     312.3825      1.887     6.72     849.8077     55.08989        261.2        17     1.971     0.666  58.74   0
       321     39.9510    520.6154 307.9034051  +6.4531279     1318.818     1940.116      1720.48     77.72167     156.2534     312.2581      1.472     4.40     852.1611     55.08989     212.8929        13     1.381     0.634  40.88   0
       322     91.1968    520.8250 307.8821159  +6.4547597     668.9906     1155.693     1861.565     77.97118     156.0046     312.3825      1.812     3.72      851.267     55.08989     100.7849         6     0.734     0.602 -50.04   0
       323    652.0728    518.7230 307.6492448  +6.4743761     3133.646      4528.75     4774.443     78.59148     156.5639     312.5379      1.473     3.59     849.5832     55.08989      473.376        20     1.291     0.879  31.99   0
       324    662.0421    518.4919 307.6451119  +6.4748038     1265.519     1754.228     1525.189     78.34395     156.3156     312.6311      1.495     4.03     849.6708     55.08989     243.0198        13     1.285     0.698  31.23   0
       325     71.9089    516.1566 307.8902832  +6.4560404      669.619     1456.801     2089.016     78.34395     156.2534     312.6311      2.691     4.27     851.5942     55.08989     106.8506         7     1.159     0.447  36.90   2
       326    389.7324    514.5251 307.7583427  +6.4673531      1756.77      2465.75     2512.035     78.46782     156.4398     312.5379      1.502     3.72     848.4482     55.08989     297.6462        15     1.255     0.736  33.88   0
       327    136.4546    511.4200 307.8636366  +6.4601593     26624.75     39524.44     41342.23     77.84653     156.3156     312.3514      1.606     3.63     851.0197     55.08989     3812.079        55     1.574     1.098  37.91   0
       328    501.3396    512.0715 307.7120718  +6.4720941     2266.249     3430.552     3378.961     78.46781     156.3156     312.6001      1.531     3.75     849.0756     55.08989     368.2092        18     1.364     0.795  42.59   0
       329    321.2840    512.7795 307.7868292  +6.4657853     3994.071     5648.121     5930.039     78.09563     156.0046     312.4758      1.519     3.51     847.9155     55.08989     644.8243        22     1.340     0.840  36.66   0
       330    864.5172    511.2774 307.5612568  +6.4845240     1572.505     2211.356     2348.824     78.46782     156.5639     312.6622      1.603     4.36     849.6677     55.08989     263.8047        13     1.365     0.664  30.50   0
       331    405.8851    510.8422 307.7517577  +6.4694134     415.6437      455.627     386.8027     78.34395     156.1913     312.5379      1.403     3.86     848.4504     55.08989     79.70697         5     1.323     0.322  31.14   0
       332    101.6128    509.6373 307.8781665  +6.4597277     2797.478     4126.348     4473.832     77.84653     156.1291     312.2581      1.602     3.59     851.1026     55.08989     435.1482        21     1.326     0.879  36.58   0
       333    338.5135    507.8625 307.7798386  +6.4683915     1202.025     1790.587     2436.238     78.46781     156.5018      312.569      1.582     3.93     847.7231     55.08989     169.2376        13     1.128     0.833  24.16   0
       334    962.0419    505.8599 307.5209307  +6.4900030     5151.324     7905.984     8054.765     78.34395     156.3156     312.6001      1.563     3.83     848.0028     55.08989     741.0667        28     1.470     0.938  44.31   0
       335    534.9622    498.2244 307.6985712  +6.4789333     1427.396     1999.833     1888.281     77.97118     156.1291     312.3514      1.479     3.81     848.4395     55.08989     217.5476        13     1.317     0.643  39.71   0
       336      1.6910    496.1823 307.9201170  +6.4619316     19037.15     23400.62     24140.02     72.14883     129.3944     240.7876      1.223     3.03     853.0128     55.08989     3917.261        30     1.290     0.787  83.29  24
       337    433.4723    492.5184 307.7409146  +6.4779003     45127.91     64844.72     66842.09     78.59148     156.6259      312.569      1.554     3.56     847.7904     55.08989     6946.664        54     1.531     1.016  43.17   0
       338    641.5482    492.1277 307.6545060  +6.4850056     12760.12     18163.75     18717.06     78.21989     156.3156      312.569      1.530     3.60     848.5484     55.08989     2177.014        40     1.550     0.966  39.55   0
       339    281.4894    492.6804 307.8040316  +6.4727522     1080.389     1642.143     1582.018     78.09563     156.5018     312.6311      1.750     4.50     847.2753     55.08989     144.7631        12     1.308     0.718  36.95   0
       340   1008.3741    492.3725 307.5021362  +6.4971108     351.0829     628.3822      835.023     77.84653     156.1291     312.3825      1.775     4.66     846.9982     55.08989     60.49567         5     1.359     0.454  45.05   0
       341    198.6252    490.1400 307.8385320  +6.4710274     19936.58     30556.71     31923.69     77.97118     156.3156     312.4136      1.650     3.86      849.241     55.08989     2914.883        49     1.672     1.017  39.20   0
       342    164.3262    490.9836 307.8527485  +6.4695303     1667.307     2421.928     1950.009     77.84653     156.0669     312.4136      1.454     4.36     850.8021     55.08989     253.5775        15     1.438     0.676  42.44   0
       343    975.4235    490.4889 307.5158853  +6.4967939     1135.137      1657.66     1520.403     78.34396     156.1291     312.4136      1.571     5.03     847.3312     55.08989     137.2339        14     1.250     0.813  54.85   0
       344    815.8743    490.2017 307.5821645  +6.4916073     883.5583     1125.346     772.0139     77.84653     155.7554     312.4136      1.341     4.19     848.9813     55.08989     198.0309         9     1.292     0.521  30.76   0
       345    563.2574    488.8729 307.6871324  +6.4837384     2888.081     4235.638     4503.354     78.46782     156.3156     312.5069      1.498     3.60     848.1075     55.08989     470.8683        19     1.409     0.765  41.86   0
       346    903.8922    489.2317 307.5456383  +6.4949355     604.4337     1037.247     846.6199     78.46781     156.1291      312.569      1.705     4.17     848.2799     55.08989      96.5661         6     1.203     0.413  29.67   0
       347    937.1959    486.0471 307.5319117  +6.4973574     4685.312     6878.833     7219.656     77.72167     156.0669     312.2271      1.529     3.77     847.6755     55.08989     725.3331        26     1.486     0.855  39.15   0
       348    610.2808    484.5558 307.6677462  +6.4870893     6654.317     9777.961     10243.25     78.34396     156.3156     312.5069      1.538     3.62     848.2702     55.08989     1055.529        28     1.497     0.871  40.77   0
       349     98.1350    485.4479 307.8804247  +6.4695977     1232.015     1847.929      1946.79     78.21989     156.1913     312.6001      1.715     4.44     851.0078     55.08989     158.1668        14     1.365     0.771  45.50   0
       350    134.9120    485.2028 307.8651590  +6.4709314      453.432      592.845     13.93575     77.72167     155.9424     312.2892      1.229     4.52     850.9608     55.08989     83.04614         5     0.829     0.701  47.43   0
       351    508.7335    483.8884 307.7099453  +6.4839767      510.406     962.6218     726.3638     78.34395     156.5018     312.5069      2.106     5.42      847.763     55.08989     82.62238         7     1.002     0.827  -2.25   0
       352    210.1071    483.9217 307.8339724  +6.4739790      540.066      732.113     528.5206     78.09563     156.5018      312.569      1.314     3.94      848.603     55.08989     89.15253         6     0.971     0.458  50.07   0
       353    959.7399    478.3466 307.5228047  +6.5012860     3373.411     5117.545     5152.013     78.34396     156.2534     312.5379      1.652     4.16     847.1179     55.08989     500.6282        26     1.474     0.923  41.50   0
       354    368.6864    476.0760 307.7683738  +6.4825237     2785.498     4194.068       4079.5     78.34395     156.6259     312.6001      1.547     3.98      846.548     55.08989     493.2524        21     1.500     0.840  42.94   0
       355    522.4980    475.7232 307.7045019  +6.4878073     7834.028     11353.61     11727.57     77.97118     156.5639      312.569      1.542     3.58     847.3547     55.08989     1267.546        32     1.515     0.919  43.31   0
       356    398.7342    477.6180 307.7558422  +6.4828914     777.3637     932.3845     1791.827     77.97118     156.3156     312.4447      1.307     3.71     846.7938     55.08989     138.6182         6     0.724     0.644  74.44   0
       357     91.7863    475.4055 307.8833993  +6.4735309     541.6306     664.8429     358.3984     77.97118     156.0669     312.4136      1.432     4.07     851.0049     55.08989     111.2376         6     0.958     0.493  40.25   0
       358    989.3887    473.0416 307.5106666  +6.5044614      442.875     755.3079     738.1541     77.72167     156.1291     312.2892      2.048     4.53     846.5925     55.08989     72.54877         6     1.894     0.308  40.84   0
       359    879.0519    471.4945 307.5565481  +6.5014327     3118.393     4647.102     5713.977     78.21989     156.2534     312.7864      1.606     3.88     847.9514     55.08989     474.9254        26     1.505     0.904  39.31   2
       360    532.3513    472.6643 307.7005119  +6.4893990     782.1814     990.3852     927.8997     78.21989     156.1913      312.569      1.296     2.59     847.2153     55.08989     136.2731         6     0.803     0.494  44.81   0
       361    226.9899    470.9226 307.8273974  +6.4799110     567.4462     750.6487     433.9109     77.97118     155.9424     312.3825      1.495     3.54     847.5874     55.08989     111.2565         5     0.978     0.370  31.44   0
       362    886.3530    465.8059 307.5537054  +6.5040242      2210.37     3243.216     3455.853     77.84653     156.1291     312.1959      1.543     3.73     847.6131     55.08989     391.6677        17     1.373     0.730  41.15   0
       363    926.1606    465.2172 307.5371904  +6.5055907     1226.499     1846.135     1827.493     77.97118     156.1913     312.3203      1.390     3.74     847.0147     55.08989     231.1967        11     1.211     0.571  32.67   0
       364    104.7670    465.3150 307.8783477  +6.4781319     797.2766     1102.563     1352.307     78.34396     156.1291     312.5069      1.549     3.27      850.668     55.08989     173.1111         7     1.149     0.467  41.83   0
       365    710.3090    461.8121 307.6269605  +6.4998135      3141.08     4235.509     4565.396     78.09563     156.0669     312.3514      1.468     3.58     847.2855     55.08989     532.1814        20     1.334     0.837  38.00   0
       366     72.0019    461.1215 307.8920967  +6.4787647     2023.415     3228.784     3198.662     77.72167     155.8177     312.3203      1.606     4.22     851.2108     55.08989     298.6215        20     1.423     0.876  35.41   0
       367    381.2651    460.2548 307.7636803  +6.4894761     3936.304     5937.603     6211.499     78.34396     156.2534     312.5379      1.552     3.53     845.8372     55.08989     595.2222        26     1.491     0.873  44.82   0
       368    421.5648    460.3954 307.7469375  +6.4907649     1169.551     1642.257     1936.191     77.47136     156.1291     312.3203      1.381     3.56     845.9263     55.08989     182.3241        11     1.164     0.596  37.67   0
       369    608.9454    456.7153 307.6692328  +6.4985392     10440.58     15213.21     15961.62     78.34395     156.3156     312.6933      1.492     3.66     847.0263     55.08989     1570.935        33     1.493     0.918  42.28   0
       370    771.6566    453.2494 307.6017654  +6.5053919     17270.11     24637.61     25466.22     78.34396     156.3156     312.6001      1.531     3.69     847.0823     55.08989     2776.751        38     1.502     0.933  45.58   0
       371    291.3210    453.6595 307.8012587  +6.4891912     2601.795     3851.457     3547.812     78.46782     156.3156     312.4758      1.529     3.66     846.1874     55.08989     399.7386        20     1.372     0.859  48.74   0
       372    415.4518    453.4269 307.7497102  +6.4934376     661.7394      1215.15     1206.472     77.97118     156.4398     312.4758      1.868     3.89     845.5107     55.08989     124.3318         5     1.148     0.378  52.33   0
       373    374.3564    450.1205 307.7668898  +6.4934292     1637.752     2507.829     2872.283     78.34395     156.3156     312.5379      1.608     4.17     845.3594     55.08989      253.806        17     1.432     0.834  41.28   0
       374    800.6581    450.3170 307.5898173  +6.5075681     1325.155     1620.199     1839.523     78.46782     156.3156     312.6001      1.376     3.94     847.1021     55.08989     200.7782        13     1.162     0.727  34.25   0
       375    723.1011    451.5727 307.6219896  +6.5044672     460.8068     849.1967     913.1326     78.46781     156.0669     312.5069      1.526     3.92     846.8224     55.08989      84.8761         5     0.889     0.495  -0.63   0
       376    956.9958    448.2832 307.5249475  +6.5136072     1818.092     2572.711     2810.171     77.84653     155.9424     312.2581      1.439     4.01      846.044     55.08989     256.0311        16     1.183     0.834  35.60   0
       377    775.7099    448.2892 307.6002476  +6.5075748     1335.874     2115.095     3089.093     78.34396     156.8118     312.6311      1.638     3.64      846.862     55.08989     224.6036        11     1.157     0.607  36.06   0
       378    363.0589    446.3568 307.7717084  +6.4946054     800.3025      1242.55     1107.774     78.21989     156.3156     312.6311      1.795     5.57     845.1849     55.08989     128.8712         8     1.275     0.721  33.79   0
       379    109.0366    445.2749 307.8772487  +6.4865485     4613.826       7106.3     7565.062     78.21989     156.3777      312.569      1.597     3.67     850.2099     55.08989     701.1349        29     1.528     0.955  36.95   0
       380   1010.8479    442.8572 307.5027597  +6.5176365     4016.323     6568.736     6308.403     78.34395     156.3156     312.6622      1.743     4.34     845.4451     55.08989      574.322        30     1.734     0.902  36.30   0
       381    747.2575    444.1464 307.6122042  +6.5083378       2433.5     3467.895     3607.214     78.46782     156.3156     312.5379      1.498     3.81     846.5117     55.08989     392.5688        18     1.312     0.779  41.38   0
       382    266.9472    442.5100 307.8117565  +6.4929788     1531.553     2146.284     2363.293     78.34395     156.1291     312.6622      1.516     4.22        846.4     55.08989     222.9653        15     1.287     0.763  38.91   0
       383    345.1366    440.0598 307.7793636  +6.4966059     3438.402     4992.289     4698.807     78.34395     156.2534      312.569      1.500     3.67     845.0682     55.08989       500.53        24     1.406     0.884  43.49   0
       384    700.8141    437.5961 307.6317142  +6.5094952     1736.161     2544.758      2674.84     77.97118     156.0046     312.4136      1.549     4.11     846.1494     55.08989     261.1309        16     1.327     0.837  34.61   0
       385    975.3385    436.7603 307.5177128  +6.5189742     643.3937      1056.84     1543.392     78.34396     156.3156     312.6001      1.439     3.42     845.5135     55.08989     116.5051         5     0.767     0.441 -74.19   0
       386    232.8882    435.8113 307.8261276  +6.4946044     938.3422      1215.77     1186.781     77.97118     156.0669     312.4136      1.306     5.25      846.874     55.08989     144.4771        12     1.332     0.740  31.84   0
       387    542.3691    430.5332 307.6977625  +6.5071278     1079.056     1511.501     1669.359     78.09563     156.3156     312.5069      1.472     4.41     845.2119     55.08989     180.7401        10     1.133     0.657  52.52   0
       388    443.5301    431.3833 307.7387873  +6.5034766     661.3635     1086.038      876.077     77.84653     156.1913     312.4447      1.701     3.38     844.3536     55.08989     103.5026         5     1.063     0.310  21.60   0
       389    464.5515    428.6563 307.7301474  +6.5053047     1312.299     1899.062     1976.694     78.34396     156.3156     312.6311      1.598     3.87     844.2711     55.08989     247.7669        14     1.369     0.669  40.27   0
       390    827.0459    427.6454 307.5796141  +6.5178067     1546.283     2215.139      2247.39     78.34395     156.3156     312.5379      1.542     3.74     845.9974     55.08989      260.416        16     1.391     0.707  37.78   0
       391    812.7897    426.7834 307.5855645  +6.5176882     2078.912      2889.38     2721.116     78.09563     156.0669     312.4136      1.500     3.60     845.9473     55.08989      371.688        18     1.353     0.800  51.47   0
       392     38.0196    428.5669 307.9073061  +6.4910652     501.7677     548.6714     408.6358     77.84653     156.1291     312.3514      1.384     6.28      851.377     55.08989     72.47186         6     1.200     0.924  17.10   0
       393    710.1356    424.9532 307.6282652  +6.5150256     15327.99     22463.38     23563.35     78.21989     156.2534      312.569      1.501     3.69     845.5454     55.08989      2483.27        37     1.496     0.934  42.97   0
       394    631.2949    421.0643 307.6611432  +6.5140035     2656.021     4211.083     5030.364     78.21989     156.4398      312.569      1.763     4.25     845.3033     55.08989     470.8145        23     1.592     0.846  42.92   0
       395    603.5974    416.1659 307.6728118  +6.5151023     14127.59     26033.87     30374.53     77.59662     156.1291     312.3203      2.117     7.01     844.9974     55.08989     2418.585        58     2.497     0.947  36.83   0
       396    935.3654    414.7638 307.5350507  +6.5267276      3868.95       5742.5     5420.745     78.09563     156.0669     312.2892      1.554     3.44     844.9256     55.08989     670.8538        23     1.395     0.859  44.56   0
       397    374.5067    410.8889 307.7681439  +6.5096314     30860.65     44705.21     46289.26     78.34395     156.7499     312.6001      1.549     3.58     843.6681     55.08989     5115.438        50     1.523     1.009  40.76   0
       398    412.1018    412.3899 307.7524782  +6.5102682     672.4418     1188.867     1240.401     78.09563     155.9424     312.3514      1.900     4.19     843.4313     55.08989     99.31604         7     1.090     0.460  48.65   0
       399    120.5577    410.4214 307.8736362  +6.5013240     2381.007     3607.412     3729.889     77.84653     156.1913     312.3825      1.647     3.86     849.1921     55.08989     335.5444        21     1.393     0.903  44.08   0
       400    890.3665    409.6567 307.5539129  +6.5273401     1354.252     2469.668     3299.022     78.21989     156.3156     312.5379      2.266     7.05     845.1208     55.08989     218.0237        18     2.146     0.650  45.72   0
       401    904.2470    405.1855 307.5482964  +6.5296477     5114.127     7579.528      7922.74     77.72167     156.1291     312.2892      1.548     3.63     844.8956     55.08989     821.9601        28     1.479     0.914  40.38   0
       402     53.9056    405.9234 307.9014706  +6.5009463     1621.879     2633.346     2809.617     78.09563     156.4398      312.569      1.677     4.42     850.5338     55.08989     221.6323        15     1.321     0.752  28.60   0
       403    612.4984    427.0269 307.6687510  +6.5109150     789.7395     998.1962     1172.729     78.46781     156.0669     312.5069      1.423     5.15     845.5862     55.08989      145.838        10     1.244     0.602  29.54   0
       404    232.0412    401.4990 307.8276324  +6.5087420     14479.91     21595.71     22694.71     78.34395     156.1913     312.7554      1.560     3.66     845.9777     55.08989     2045.219        40     1.501     1.011  40.90   0
       405    959.3770    402.6982 307.5254793  +6.5325072     606.9627     867.9915     1187.909     78.46782     156.0669     312.3514      1.831     6.20      844.295     55.08989     103.7539         9     1.424     0.878  15.45   0
       406    794.8938    403.1789 307.5937868  +6.5268381     471.8962     572.0565     887.8623     78.21989     156.1291     312.3825      1.338     4.76     845.1185     55.08989     72.94745         6     1.572     0.409  31.77   0
       407    955.5251    393.8641 307.5273740  +6.5360265     1094.989     1626.909     1482.415     78.46782     156.3156     312.5069      1.529     4.38     843.9624     55.08989     197.1664        11     1.236     0.866  52.61   0
       408     67.4767    395.8021 307.8961747  +6.5055800     800.8839     993.7343     1431.497     77.72167     155.8177     312.4136      1.515     3.88     850.0566     55.08989     135.8806         8     0.969     0.668 -36.01   0
       409    726.8461    395.0517 307.6223241  +6.5279277     793.3465     1189.352      1539.78     78.46782     156.2534     312.6001      1.511     4.34     844.1465     55.08989     122.9327         7     1.169     0.458  34.01   0
       410   1004.2982    394.2162 307.5071024  +6.5375016     543.0309     570.5252     1023.535     78.34396     156.0669     312.3514      1.623     3.97     843.1898     55.08989     78.19989         6     1.433     0.314  25.37   0
       411    694.9971    394.0684 307.6355864  +6.5272726     716.1147     1087.418     1554.518     77.72167     155.9424     312.3203      1.555     4.09     844.0417     55.08989      101.822         7     0.908     0.527  42.89   0
       412    345.0692    391.1731 307.7810327  +6.5167870     1434.429     1852.797     1732.704     77.97118     156.1913     312.4447      1.471     4.62     843.5591     55.08989     217.6067        16     1.430     0.725  33.50   0
       413    178.1916    391.7460 307.8503266  +6.5109653     748.5729     1137.936     1134.738     77.84653     156.2534     312.2581      1.409     3.13     847.4351     55.08989     124.4374         6     0.751     0.559 -54.43   0
       414    132.3340    390.2206 307.8694247  +6.5100586     5368.647     8073.524     7910.494     77.97118     156.3156     312.4136      1.598     3.72     848.6878     55.08989     772.1048        28     1.440     0.943  39.70   0
       415    372.6128    390.6166 307.7696109  +6.5179376     418.3244     497.9577     431.5992     78.09563     156.0046     312.4758      1.344     4.99     843.1986     55.08989     74.24805         6     1.175     0.600  66.95   0
       416    237.1462    389.1222 307.8259280  +6.5140227     1407.109     2009.733     1792.454     78.46781     156.3156      312.569      1.446     3.71     845.4803     55.08989     210.3386        14     1.190     0.790  52.39   0
       417    429.5929    388.7388 307.7460064  +6.5206173     849.9991     1330.957     1342.246     77.72167     156.1291     312.2892      1.574     5.76      842.717     55.08989     134.6035        10     1.150     0.842  45.95   0
       418    625.8660    388.9946 307.6644717  +6.5270630     433.8465     482.8822     611.5715     77.84653     156.0046     312.3514      1.426     3.98     843.3519     55.08989     69.48932         6     0.959     0.474  54.25   0
       419    818.3615    386.3390 307.5846014  +6.5345719     864.3964     1218.512     575.2818     78.34396     156.3777     312.5379      1.408     4.79     844.8539     55.08989      151.249        10     1.390     0.467  35.30   0
       420    154.3980    385.7734 307.8604100  +6.5126339     2404.593     3927.654      3799.44     77.84653     156.0046     312.3514      1.705     3.94      848.168     55.08989     367.4761        24     1.337     1.154  63.91   0
       421    550.0554    384.9530 307.6960969  +6.5262027     1052.682     1626.951     1491.399     78.34395     156.3156     312.6001      1.482     3.47     842.6943     55.08989     192.0289        10     1.082     0.620  42.87   0
       422    964.4134    384.1913 307.5240046  +6.5403155     459.8493     1090.948     1342.394     77.97118     156.0669     312.4447      1.993     4.39     843.3843     55.08989     81.86932         5     1.152     0.477  32.34   0
       423    377.7304    380.5230 307.7678239  +6.5222759      2214.04     3233.261     3203.936     78.59148     156.5018     312.5379      1.567     4.16     842.9116     55.08989     327.5653        19     1.322     0.840  42.63   0
       424    265.8965    381.0492 307.8142577  +6.5183180     931.3345     1255.212     941.9474     78.21989     156.2534     312.6933      1.393     4.54     844.8971     55.08989     149.2368         9     1.184     0.545  46.01   0
       425    965.9950    379.4248 307.5235067  +6.5423360      803.632     1256.159     1671.766     77.84653     156.0669     312.3825      1.766     4.51     843.1118     55.08989     140.2971        10     1.389     0.522  30.61   0
       426    312.0424    378.5158 307.7951756  +6.5209080     639.4101     820.3948     1304.349     78.34395     156.2534     312.4758      1.516     3.42      844.064     55.08989     116.5163         6     0.792     0.499   1.63   0
       427    431.6199    374.2294 307.7456511  +6.5266754     7756.884     11305.08     11889.38     77.84653     156.1291     312.4136      1.559     3.83     842.2672     55.08989     1263.971        28     1.434     0.933  42.18   0
       428     28.0195    375.1531 307.9132581  +6.5127815     3180.923     5312.415     5103.243     77.97118     156.3156     312.3514      1.702     3.96     849.9957     55.08989     440.6773        26     1.389     1.179   9.80   0
       429    772.3063    371.5459 307.6042266  +6.5391464      13558.1     19178.14     20056.86     78.21989     156.2534     312.7554      1.500     3.49     843.9035     55.08989     2305.668        36     1.537     0.886  42.94   0
       430    764.3419    373.0668 307.6074841  +6.5382533     2123.727     2923.468     3273.192     78.46781     156.2534     312.5379      1.483     3.68     843.7503     55.08989     319.2721        14     1.202     0.707  41.05   0
       431    191.8044    373.1720 307.8452970  +6.5190895     530.8735     776.0936     664.4699     77.84653     156.1291     312.3825      1.558     4.54     846.5275     55.08989     90.55048         6     1.548     0.378  58.62   0
       432    335.9067    369.9928 307.7855495  +6.5252250       1145.7     1579.532     1128.583     77.97118     156.0046     312.3514      1.462     5.25     843.2837     55.08989     167.1819        11     1.141     0.696  40.24   0
       433   1016.1998    366.5046 307.5030826  +6.5493383     3466.338     5130.176     5220.813     77.84653     155.9424     312.1337      1.548     3.78     841.0494     55.08989     511.5717        21     1.465     0.787  47.01  16
       434    180.5485    362.7008 307.8503243  +6.5230356       742.46     921.8268     1402.587     78.34396     156.3156     312.7554      1.392     4.28     846.8749     55.08989     134.0524         7     0.996     0.525  31.81   0
       435    897.5746    361.5406 307.5525252  +6.5474455     545.5796     780.6059     258.0747     77.97118     156.3156     312.3825      1.301     3.07     843.9572     55.08989     128.9955         6     0.907     0.408  20.73   0
       436    479.8422    357.9287 307.7261674  +6.5350161     3214.038     4818.268     4771.676     78.21989     156.3156     312.6001      1.535     3.67     841.3427     55.08989     569.3387        22     1.419     0.821  41.91   0
       437    452.0298    358.5866 307.7376980  +6.5338155       2413.1     3549.867     3607.706     77.97118     156.1291     312.4758      1.545     3.68     841.6403     55.08989       377.66        18     1.333     0.811  42.38   0
       438    908.4689    357.3752 307.5481388  +6.5495276     703.1146     944.8188     701.9725     77.97118     156.1913     312.4758      1.438     5.01     843.7033     55.08989     110.7325         7     1.060     0.670  45.48   0
       439    837.6512    354.4483 307.5776541  +6.5483805     34072.67     51526.87     54163.56     78.46782     156.1913     312.5379      1.654     3.54     844.2437     55.08989     5174.329        57     1.587     1.120  50.93   0
       440     55.2792    350.9828 307.9027497  +6.5236745     736.4619     1090.267     1149.779     77.97118     156.0046     312.4758      1.687     4.87     849.0948     55.08989     120.2643         8     0.961     0.724  71.45   0
       441    329.8068    350.0710 307.7887521  +6.5332458     908.3564     1176.612     828.0403     77.84653     155.9424     312.4758      1.313     4.79     842.9471     55.08989      172.609         9     1.230     0.528  43.38   0
       442    609.1022    346.7734 307.6728487  +6.5439356     2647.302     4008.476      4119.68     78.46781     156.0669     312.4758      1.653     4.35     840.6299     55.08989     467.7795        23     1.695     0.886  37.44   0
       443     17.8891    347.2798 307.9184044  +6.5239489     1114.226     1684.635     2047.131     78.09563     156.5639     312.6311      1.591     3.95     849.3572     55.08989     155.0644        12     1.180     0.734  45.96   0
       444    141.2681    345.5723 307.8672158  +6.5287910     619.1529     900.7905     947.8759     77.97118     156.2534     312.4447      1.642     4.22     848.0724     55.08989     100.4485         6     0.913     0.557  39.49   0
       445    694.0910    340.4449 307.6377568  +6.5493817     83393.38     120031.1     125275.1     78.34395     156.2534     312.6622      1.514     3.66     841.5807     55.08989     12621.81        81     1.597     1.055  43.14   0
       446    852.1824    341.7561 307.5720418  +6.5541042      1278.37     1806.134     1822.323     77.84653     156.1913     312.3203      1.426     3.66     843.5267     55.08989     232.6441        13     1.250     0.774  35.97   0
       447     73.2411    339.9808 307.8956595  +6.5288190     1191.518     2115.507     2282.141     77.97118     156.1291     312.2892      1.848     4.81      848.899     55.08989     176.1557        15     1.451     0.719  27.66   0
       448    556.5228    337.1051 307.6950135  +6.5461732     2827.262     3978.515     4041.417     78.09563     156.4398     312.6001      1.462     3.51     840.2546     55.08989     467.7613        19     1.340     0.803  48.58   0
       449    935.8141    337.5934 307.5374398  +6.5586040     992.7188     1401.496     883.9938     77.97118     156.0669     312.3825      1.524     3.90     842.2609     55.08989     144.1227        11     1.115     0.728  31.42   0
       450    383.9639    337.4376 307.7666806  +6.5402725     632.4645     615.1922     871.9835     78.09563     156.1913     312.3203      1.271     4.51     841.6497     55.08989     105.4874         7     0.982     0.588  61.66   0
       451     93.7844    336.1152 307.8872568  +6.5311037     6368.521     9316.207     9163.131     77.97118     156.0669     312.4447      1.536     3.78      848.677     55.08989     1008.682        28     1.390     0.935  43.73   0
       452    539.8163    333.4022 307.7020772  +6.5471444     7499.369     10919.26     10564.91     77.97118     155.9424     312.3514      1.543     4.03     840.1036     55.08989     1123.776        29     1.464     0.894  40.31   0
       453    268.7361    331.0281 307.8147588  +6.5390645      2879.56     4407.284     4531.169     77.97118     156.3156     312.4758      1.600     3.81     843.6274     55.08989     428.2317        24     1.426     0.950  38.60   0
       454    402.7147    328.5817 307.7591891  +6.5445555     27448.38     40057.45     41283.75     77.97118     156.0669     312.4758      1.559     3.66     841.0745     55.08989     4099.457        49     1.520     1.012  43.23   0
       455    581.5441    328.0398 307.6849235  +6.5507508     678.9775     1000.039     766.2626     78.34395     156.3777     312.5069      1.329     4.58     840.0869     55.08989     145.0803         7     1.096     0.544  65.30   0
       456    510.3179    327.2172 307.7145378  +6.5487133     1548.417     2164.776     1608.002     77.97118     156.0046     312.4758      1.533     4.70     840.0045     55.08989     229.5279        14     1.283     0.769  31.94   0
       457    382.5831    326.5125 307.7676208  +6.5447368     1228.395     1836.535     2634.772     78.09563     156.0669     312.4136      1.819     4.18     841.3477     55.08989     195.3445        12     1.289     0.643  33.81   0
       458    669.2407    326.5368 307.6485449  +6.5542957     554.6195     755.1495     484.7656     78.34396     156.2534     312.6311      1.429     3.40     840.9236     55.08989     103.4778         5     0.763     0.439  22.29   0
       459    482.0507    323.9132 307.7263905  +6.5491335     1356.717     1864.899     1548.793     78.34395     156.1913     312.6311      1.466     4.02      839.985     55.08989     230.1087        12     1.312     0.612  29.52   0
       460    797.6515    321.0482 307.5953862  +6.5608392     758.0751     1310.998     1017.832     78.46781     156.1913     312.5379      1.764     4.89     842.1576     55.08989     132.9815         8     1.266     0.649  51.61   0
       461    491.7917    318.9837 307.7225094  +6.5514940      9138.88     13087.27     13952.53     77.97118     156.0669     312.3825      1.514     3.75     839.7574     55.08989      1497.77        32     1.488     0.902  42.49   0
       462    633.2173    320.5412 307.6637097  +6.5555701     737.8461     1064.822     1138.124     77.97118     156.1913     312.3203      1.363     4.87      840.313     55.08989     120.0022         8     1.238     0.542  38.31   0
       463    379.8922    321.1787 307.7689176  +6.5468490     822.6089     1431.281      1629.02     78.21989     156.1291     312.3825      1.681     3.94     841.2141     55.08989     122.4383         7     0.925     0.603  16.85   0
       464    760.9248    317.7589 307.6107527  +6.5609744     3224.954     4615.394     4527.617     78.21989     156.3156      312.569      1.500     3.73     841.4283     55.08989     491.0564        24     1.504     0.810  42.98   0
       465    916.2511    317.3167 307.5462433  +6.5663253     975.4253     1429.442     1794.364     78.34396     156.2534     312.6311      1.774     4.72     841.4561     55.08989       169.67        10     1.249     0.706  28.78   0
       466    708.7051    317.2401 307.6324624  +6.5594492     777.2047     990.7892     1029.902     78.34396     156.2534     312.6311      1.273     3.53     840.8389     55.08989     139.0751         7     1.015     0.489  23.84   0
       467    318.3646    315.8467 307.7946541  +6.5469927     1144.427     1552.795      1038.99     77.97118     156.2534     312.4447      1.486     4.92      842.345     55.08989       160.69        13     1.309     0.701  36.62   0
       468    154.0896    309.8137 307.8630930  +6.5439836     1130.426     1625.217     1861.121     78.09563     156.1291     312.4136      1.467     3.81     847.4858     55.08989     215.1042        12     1.209     0.716  47.66   0
       469    253.7770    309.4460 307.8216976  +6.5474740     610.5363     808.2136       610.73     77.97118     156.3156     312.4136      1.461     4.43     843.5209     55.08989     88.03864         7     1.210     0.461  39.66   0
       470    381.6651    303.1677 307.7687856  +6.5543442     7731.671        11342     11716.17     78.21989     156.3156     312.5069      1.545     3.63     840.6105     55.08989     1270.689        32     1.440     0.967  42.60   0
       471    237.5589    303.7039 307.8286273  +6.5493017     2449.378      3505.44      3797.76     78.34396     156.2534     312.6933      1.597     3.59     843.8254     55.08989      364.525        17     1.265     0.809  46.83   0
       472    735.3443    302.7182 307.6218820  +6.5663322     1069.331     1383.804     1757.648     78.34396     156.3156      312.569      1.428     3.93     840.5826     55.08989     195.3916        13     1.312     0.779  50.09   0
       473    669.7338    303.8797 307.6490983  +6.5636665     543.5765     817.0236     630.7441     78.46782     156.4398     312.5069      1.687     4.43      840.043     55.08989       95.073         5     1.220     0.458  34.42   0
       474    749.5691    298.9762 307.6160980  +6.5683510     57125.27     81992.93     84691.09     77.84653     156.1913     312.3514      1.503     3.59     840.5441     55.08989      10116.7        63     1.555     1.008  43.97   0
       475    421.1761    298.5634 307.7525275  +6.5575657     2493.178     3414.633      3984.86     77.97118     156.1291     312.3203      1.456     3.54     839.5921     55.08989      380.249        19     1.283     0.849  44.85   0
       476    984.4585    296.1263 307.5186158  +6.5773411      1587.46     2322.124     2299.811     78.46781     156.3156     312.5379      1.574     3.74     839.3177     55.08989     256.3141        15     1.220     0.783  31.19   0
       477    925.1722    295.1261 307.5432781  +6.5757838     2206.109     3282.271     3079.613     78.21989     156.2534     312.4758      1.554     3.78     840.1543     55.08989     339.5405        20     1.406     0.917  40.64   0
       478    567.3943    295.9785 307.6918752  +6.5635156     1396.086     2039.513     1782.995     77.97118     156.0669     312.3514      1.496     3.78     839.0627     55.08989     250.8108        13     1.261     0.679  43.52   0
       479    407.7289    294.1152 307.7582627  +6.5589528     2156.781     3201.984     3758.583     78.46782     156.5639      312.569      1.665     3.76     839.6617     55.08989     360.0291        17     1.384     0.764  39.76   0
       480    458.3047    294.7219 307.7372333  +6.5603923     1107.763     1487.573     1482.023     78.09563     156.5639      312.569      1.326     3.67     839.0602     55.08989     172.3985        13     1.206     0.698  29.29   0
       481    287.5358    293.4351 307.8082127  +6.5552140      790.411     1174.023       903.17     78.21989     156.3156     312.5379      1.598     4.55     842.3658     55.08989     105.0029         9     0.946     0.764  21.07   0
       482    829.1217    288.4466 307.5834025  +6.5753467     1273.915     1983.607     1841.714     78.34395     156.3777     312.5069      1.639     4.38     840.1448     55.08989     220.2104        15     1.365     0.983  38.80   0
       483    458.5478    289.0827 307.7373214  +6.5627286     679.6187     827.0355     517.6797     78.34395     156.3156     312.6001      1.281     2.16     838.8099     55.08989      152.283         5     0.699     0.449 -66.39   0
       484    184.1700    285.3689 307.8514204  +6.5550834     2487.813     3414.382     3845.832     77.84653     156.0669     312.2892      1.455     3.46      846.019     55.08989     391.1914        18     1.321     0.758  40.63   0
       485    748.0143    283.5400 307.6172601  +6.5746723     6352.198     9260.556     9574.671     77.84653     156.1913     312.2892      1.484     3.57     839.9343     55.08989     966.2519        27     1.455     0.865  45.20   0
       486    438.1200    285.3500 307.7459324  +6.5635872     1206.327     1892.903     2337.481     78.34395     156.3777     312.5379      1.531     4.04     838.8796     55.08989     221.0275        15     1.372     0.774  16.20   0
       487    219.8820    283.5905 307.8366460  +6.5570137     730.7664     928.1423     370.6009     77.97118     155.9424     312.3825      1.560     5.22     844.3506     55.08989     98.48718         8     1.154     0.667  42.79   0
       488    792.9815    282.6034 307.5986111  +6.5765563     3132.705     3104.774     3254.122     77.97118     155.8801     312.3514      0.647     0.91     839.9896     55.08989     1511.493         8     0.585     0.404  86.28   0
       489    764.4769    281.5187 307.6104888  +6.5760550     2727.451     3976.409      4288.79     78.59148     156.5639     312.6622      1.578     3.66     839.8835     55.08989     459.0176        20     1.376     0.812  38.25   0
       490    338.6820    282.7992 307.7873242  +6.5613162     731.5641     1253.438     1328.762     77.59662     155.8177     312.2271      1.752     5.61     841.1038     55.08989      104.926         9     1.282     0.693  40.99   0
       491     80.4075    282.7047 307.8946109  +6.5527056     1223.095     1798.977      2064.39     78.09563     155.9424     312.3514      1.689     4.20     848.4181     55.08989     214.0214        12     1.195     0.642  38.01   0
       492     67.8994    276.7304 307.9000076  +6.5547525     1322.909     1763.718      1631.22     78.34395     156.4398     312.5379      1.509     3.98     848.6426     55.08989     188.3801        13     1.187     0.815  40.14   0
       493    353.9108    276.2162 307.7812193  +6.5645433     1904.079     3343.556     3933.586     78.09563     156.0669     312.3825      1.932     5.57     840.5724     55.08989     267.2912        23     1.706     0.901  18.37   0
       494   1002.6629    272.3746 307.5118455  +6.5877524     6096.065     9093.507     9150.487     77.97118     156.3156     312.4447      1.582     3.68     838.1064     55.08989     898.4143        27     1.416     0.950  42.70   0
       495    480.7318    272.3495 307.7286672  +6.5703780     2177.477     3197.197     3490.827     78.21989     156.1913     312.5069      1.526     3.67     837.8828     55.08989     355.3099        16     1.399     0.708  43.97   0
       496    243.2660    267.9808 307.8274572  +6.5642412     6204.715     9012.163     9904.001     77.97118     156.3156     312.4447      1.508     3.62     843.6613     55.08989     1024.443        26     1.392     0.889  37.59   0
       497    807.7873    266.4647 307.5929999  +6.5837123      551.183      785.545     1075.876     77.84653     156.1291     312.4447      1.425     3.45     839.4953     55.08989     95.11462         5     1.035     0.333  22.29   0
       498    762.6769    261.2045 307.6119157  +6.5843822     978.8115     1236.092     1092.497     77.97118     155.8177     312.3825      1.353     5.47     839.0138     55.08989     129.5198        11     1.356     0.623  36.09   0
       499    220.1883    260.8332 307.8372838  +6.5664193     718.1088     1217.308     951.2184     77.84653     156.0669     312.3825      1.701     4.59      844.456     55.08989      109.239         9     1.337     0.447  25.16   0
       500    783.4542    259.4177 307.6033441  +6.5858117     555.9991      710.711     1075.515     77.84653     156.3156     312.2892      1.217     4.19     839.1187     55.08989     111.0335         6     1.265     0.397  44.91   0
       501    377.4896    258.8193 307.7720086  +6.5725142     1814.133      2571.58     2334.486     78.21989     156.0669     312.4447      1.586     3.87     839.4418     55.08989     317.0171        17     1.337     0.819  36.73   0
       502    964.3610    257.3121 307.5282600  +6.5926986     1091.595     1643.658     1511.726     78.34396     156.2534      312.569      1.629     4.45     837.9221     55.08989     157.6914        13     1.323     0.809  37.78   0
       503    299.9450    254.9010 307.8043524  +6.5715382     1185.538     1779.855     1590.949     78.21989     156.3156     312.7864      1.475     6.01      841.853     55.08989     192.8302        14     1.674     0.608  46.16   0
       504    184.4513    255.9696 307.8522923  +6.5672303     591.2612     822.3237     786.8032     78.09563     156.4398     312.4758      1.528     4.84     845.7866     55.08989     98.70917         6     1.069     0.620  33.73   0
       505    147.0825    254.4914 307.8678646  +6.5665885     1892.697     2798.891     2651.455     78.09563     156.5639     312.6001      1.567     3.81     846.8632     55.08989     284.7011        16     1.252     0.848  36.37   0
       506    556.7012    250.1312 307.6978533  +6.5820873     2334.086     3280.825     3192.738     78.34395     156.4398     312.5069      1.467     4.09     836.9127     55.08989     403.5875        19     1.410     0.771  47.30   0
       507    900.4432    249.2037 307.5550844  +6.5939215     1817.421     2724.025     3102.975     77.72167     155.9424     312.2271      1.617     4.11     838.4233     55.08989     279.8551        18     1.454     0.744  34.15   0
       508    720.4801    247.7294 307.6298961  +6.5885401     5231.312     7565.648     7736.757     78.59148     156.5639     312.5379      1.503     3.60       838.08     55.08989     955.4291        24     1.460     0.799  43.23   0
       509    661.0374    247.4793 307.6545986  +6.5866623     2256.008     3447.383     3363.349     78.21989     156.3777     312.5379      1.541     3.84     837.8453     55.08989     396.8668        16     1.404     0.678  41.28   0
       510    958.1439    247.0000 307.5311869  +6.5967496     726.1567     1215.913     1358.034     77.59662     155.9424     312.1959      1.788     5.75     837.5459     55.08989     91.11676         9     1.286     0.723  30.90   0
       511    376.4414    241.7872 307.7730157  +6.5795109     981.9026     1364.622      1188.25     77.72167     156.1291     312.2892      1.475     4.93     838.9834     55.08989     160.4187         9     0.980     0.721  66.64   0
       512    916.1420    239.5437 307.5488851  +6.5984318     1084.359     1540.755     1496.785     78.46782     156.3156      312.569      1.570     4.95     837.7878     55.08989     170.5016        15     1.385     0.721  33.61   0
       513    219.7676    232.9961 307.8383944  +6.5778978     2489.911      3555.67     3225.919     77.59662     156.1913     312.3203      1.477     4.12     844.5843     55.08989     390.4074        19     1.338     0.840  42.73   0
       514    862.6486    231.9360 307.5713624  +6.5997937     1644.497     2633.503     2883.887     78.21989     156.1913     312.6001      1.620     3.80     838.4738     55.08989     315.6159        17     1.379     0.786  39.50   0
       515    752.9550    231.3045 307.6169544  +6.5964031     1816.687     2557.325     2986.573     78.34395     156.2534     312.6622      1.523     3.25     837.5983     55.08989     285.9308        17     1.230     0.811  39.83   0
       516    314.9276    224.9938 307.7991332  +6.5843868     763.8553     1258.693     1470.631     77.97118     155.8801     312.4447      1.754     5.40     841.0113     55.08989     129.7293        11     1.591     0.697  71.21   0
       517    241.6314    226.8489 307.8295188  +6.5811678     654.7931     909.3248     898.9268     78.09563     156.3156     312.4758      1.380     3.44     843.8831     55.08989     87.80426         5     0.776     0.441  72.20   0
       518    779.8628    222.0130 307.6060866  +6.6011353     13904.75     20579.64     22270.41     77.84653     156.1291     312.3203      1.538     3.88     837.8098     55.08989     2403.394        45     1.558     1.098  32.29   0
       519    453.8364    222.9207 307.7414977  +6.5898867     24408.75     35721.02     36810.94     78.21989     156.3777     312.5379      1.523     3.66     836.4303     55.08989     3945.757        43     1.509     0.970  41.55   0
       520    459.4008    217.5720 307.7393655  +6.5922808     1496.531     2132.328     2811.069     77.84653     156.0669     312.3514      1.658     3.79     836.2655     55.08989     246.2875        18     1.224     0.983  43.15   0
       521    718.5021    217.3284 307.6317349  +6.6010256     753.8496     1178.031     1176.587     78.21989     156.4398     312.5379      1.615     4.67      836.894     55.08989     122.7474         9     1.238     0.501  43.13   0
       522    142.0404    216.3010 307.8712440  +6.5821863     2495.823     3662.167     3793.427     78.34395     156.1913     312.7554      1.557     3.95      846.436     55.08989      357.913        18     1.393     0.750  41.35   0
       523    116.9002    215.3493 307.8817193  +6.5817366     1275.647     1880.051      2498.76     78.34395     156.3156     312.6933      1.562     4.18     846.9899     55.08989      207.688        15     1.293     0.841  37.52   0
       524    916.3764    212.2507 307.5496989  +6.6097080     1452.812     1987.575     2284.506     77.97118     156.3156     312.4447      1.544     4.27     836.7718     55.08989     206.8806        14     1.340     0.721  34.74   0
       525    168.7784    214.1349 307.8602098  +6.5839766     622.5997     924.3188     669.1581     77.97118     156.3156     312.4136      1.606     4.31     845.7927     55.08989     94.49579         6     1.256     0.421  29.99   0
       526    577.8840    208.6100 307.6904446  +6.5999367     4946.159     7112.652     7662.931     77.97118     156.0046     312.3825      1.512     3.93     835.5602     55.08989     746.9373        23     1.396     0.840  40.09   0
       527    540.5193    208.5604 307.7059687  +6.5987102     2380.248     3203.382     3181.079     78.34396     156.3777     312.4758      1.412     3.24     835.0098     55.08989     412.5203        17     1.220     0.793  46.48   0
       528    298.2303    209.4629 307.8065911  +6.5902401     1102.459     1350.846      1397.95     78.09563     156.3777     312.4758      1.327     4.65      842.191     55.08989     161.8019        11     1.269     0.669  41.85   0
       529    382.3647    207.5007 307.7717060  +6.5938643     1700.945     2415.237     2569.851     78.34396     156.1913     312.6933      1.615     3.85     838.1401     55.08989     262.3188        16     1.344     0.747  34.07   0
       530    938.7731    205.6666 307.5406140  +6.6131710     2800.318     3912.704     4397.462     77.97118     156.1913     312.4447      1.454     3.62     836.2745     55.08989     438.9402        20     1.323     0.811  40.45   0
       531    884.9215    205.1437 307.5630042  +6.6115963     11634.11     16841.55     17089.64     78.34395     156.3156     312.5379      1.523     3.79       837.16     55.08989     1824.961        35     1.471     0.922  39.50   0
       532    560.2469    205.3993 307.6978792  +6.6006737     947.7661      1370.31     1511.517     77.72167     155.9424     312.1026      1.503     6.16     835.0863     55.08989      148.172        12     1.330     0.801  47.19   0
       533    971.5824    202.9793 307.5270730  +6.6153710     10105.89     14693.82     15265.81     78.09563     156.1913     312.4447      1.565     3.49     835.9728     55.08989     1664.772        37     1.538     0.973  46.36   0
       534    312.6106    205.5777 307.8007478  +6.5923252     988.1705     1555.468      1566.18     77.97118     156.0669     312.4136      1.695     3.42     841.4286     55.08989     160.2458         9     1.073     0.720  35.96   0
       535    682.9480    202.9652 307.6469861  +6.6057709     2984.737       4262.5      4878.87     78.21989     156.3156     312.4447      1.501     4.11     836.1259     55.08989     493.1541        19     1.341     0.774  45.99   0
       536    204.0728    205.2519 307.8458470  +6.5888264     760.5776     1148.872      965.647     78.34395     156.3156      312.569      1.508     4.43     844.9417     55.08989     127.0184         6     1.045     0.534  27.34   0
       537     11.0349    201.9117 307.9261482  +6.5837332     26485.34     39662.89     41662.28     78.34395     156.2534     312.5379      1.551     3.63     851.0485     55.08989     3976.464        53     1.564     1.053  39.17   0
       538    257.1748    202.6502 307.8238752  +6.5916786     1211.409     1638.155     1844.515     77.97118     156.3156     312.4447      1.430     4.09     843.6705     55.08989        193.1        13     1.207     0.748  39.53   0
       539    491.4637    197.9161 307.7267049  +6.6014669      2235.77     3060.659     3193.105     78.46781     156.4398     312.5379      1.532     3.93     835.4864     55.08989     358.2352        17     1.307     0.775  38.30   0
       540    823.5092    194.5249 307.5888727  +6.6139371     2177.949     3266.452      3061.26     78.34396     156.5639      312.569      1.552     3.61     837.4433     55.08989     337.1805        19     1.321     0.883  42.60   0
       541    503.7032    193.9443 307.7217533  +6.6035154     2710.049      4099.38     3959.335     78.21989     156.3156     312.7243      1.568     3.66     835.2067     55.08989      476.536        20     1.350     0.913  40.84   0
       542    875.7698    193.5564 307.5671933  +6.6160759     1999.906     2765.672     2848.393     77.97118     156.3156     312.4136      1.394     4.17     836.9501     55.08989     334.9838        13     1.259     0.691  45.51   0
       543    735.0826    191.1222 307.6257233  +6.6123976     42353.18     60485.65     62739.88     78.46782     156.5639     312.6622      1.471     3.64     836.8705     55.08989     6686.695        54     1.518     0.975  42.76   0
       544    338.1745    190.6128 307.7906307  +6.5993587     5646.754     12059.15     13242.57     78.09563     156.1291     312.4758      2.157     6.42     840.1218     55.08989     738.9548        46     1.938     1.306  88.98   0
       545    969.0035    189.8566 307.5285824  +6.6207032     2850.326     4291.448     4330.099     77.72167     156.1291     312.2271      1.519     3.33     835.7238     55.08989     422.1648        21     1.282     0.921  45.89   0
       546    902.9742    188.1860 307.5560705  +6.6191979      7883.76      11462.8     11774.57     78.09563     156.1291     312.4758      1.491     3.43     836.2914     55.08989     1164.606        32     1.449     0.964  41.85   0
       547   1007.2170    188.4374 307.5127535  +6.6225588     1729.846     2569.476      2379.24     77.97118     156.1913     312.2892      1.562     4.43     835.5159     55.08989     261.3774        17     1.400     0.732  33.59   0
       548    446.5453    187.3881 307.7457185  +6.6043130     5544.918     7878.876     8396.574     77.72167     156.2534     312.2271      1.553     3.57     836.0142     55.08989     836.4044        28     1.445     0.908  37.90   0
       549    312.4790    186.1882 307.8014538  +6.6003258     487.0991     546.3265     167.6337     77.97118     156.0046     312.3825      1.475     3.70     841.8341     55.08989     78.88654         5     1.042     0.377   6.01   0
       550    220.8035    184.0100 307.8396110  +6.5981564     883.2804     1520.337      1833.14     77.84653     156.0046     312.4136      1.964     4.67     844.5615     55.08989     135.1242        11     1.228     0.651  52.37   0
       551    103.8293    178.7785 307.8883800  +6.5963964     5178.116     7535.074     7483.662     77.84653     156.1291     312.4136      1.531     3.60     846.7902     55.08989     754.7389        28     1.487     0.898  40.06   0
       552    274.1620    175.4095 307.8177338  +6.6034936     35754.64     52972.81     55071.53     77.59662     156.1291     312.2581      1.559     3.62     843.8347     55.08989     5035.008        55     1.565     1.029  42.20   0
       553    249.4952    176.5109 307.8279440  +6.6022131     7041.714     10185.58     10806.97     78.34396     156.6879     312.6001      1.579     3.58     844.1498     55.08989     1082.234        29     1.479     0.925  42.35   0
       554    923.3152    177.5349 307.5479753  +6.6242718     921.4481      1270.33     1813.222     78.46782     156.5018     312.6001      1.575     4.41      835.677     55.08989     168.5082         9     1.166     0.606  29.79   0
       555    600.8993    177.2512 307.6819336  +6.6136513     653.7914     1221.423     1311.058     78.34395     156.3156     312.7554      1.866     2.74     834.3107     55.08989     156.0223         5     0.904     0.337  46.30   0
       556    703.2094    174.5090 307.6395208  +6.6181946     933.5274     1144.335     1094.911     77.97118     156.0046     312.2892      1.508     3.88     835.6931     55.08989     156.3645         7     1.027     0.469  46.36   0
       557    398.2466    170.8669 307.7663378  +6.6095197     53605.03     78259.81     80961.25     78.34395     156.2534      312.569      1.530     3.66      837.025     55.08989     8406.837        62     1.550     1.025  41.52   0
       558    154.2703    172.1736 307.8676483  +6.6008141     4287.253     6487.513     7012.866     77.97118     156.1913     312.4758      1.569     3.53     845.5782     55.08989     614.2449        26     1.396     0.937  44.26   0
       559    415.7080    171.2941 307.7590694  +6.6099270     1440.459     2175.688     2071.132     78.34396     156.8118     312.5379      1.619     4.20      836.172     55.08989     219.4147        15     1.305     0.811  51.93   0
       560    737.5283    167.0300 307.6255131  +6.6224259      35301.3     50314.33     51536.69     78.21989     156.3156     312.5069      1.521     3.63     836.8463     55.08989     6092.924        51     1.541     0.970  44.42   0
       561    302.2166    168.6030 307.8063078  +6.6072425     19369.74     28356.05     29766.71     77.97118     155.9424     312.3825      1.548     3.54     842.8575     55.08989     2985.768        42     1.504     0.990  42.47   2
       562    309.5206    168.6060 307.8032734  +6.6074857     2175.279     3586.472     4313.726     77.97118     155.8177     312.3203      1.926     4.56     842.2767     55.08989     301.6736        18     1.548     0.766  39.90   3
       563    685.9385    168.8269 307.6468862  +6.6199650     1060.242     1482.299     1864.853     77.97118     156.3777     312.4447      1.506     3.62     834.8766     55.08989     186.2678        11     1.093     0.672  27.97   0
       564    785.8262    167.4567 307.6054331  +6.6238582     1178.345     1449.089     1704.517     77.97118     156.3777     312.3825      1.290     3.55     836.9338     55.08989     199.4745        11     1.151     0.592  36.45   0
       565     24.1360    167.8130 307.9218547  +6.5982502     478.1839     1170.223     1672.007     77.84653     156.1291     312.3825      2.483     4.18     850.8696     55.08989     81.61115         5     1.398     0.356   6.73   0
       566     54.2901    164.3754 307.9094441  +6.6006812     9720.497     14471.25     15274.25     78.46782     156.1291     312.3825      1.609     3.62     849.1996     55.08989      1360.22        36     1.540     0.964  37.94   0
       567    568.4606    169.9001 307.6956564  +6.6156040     671.9447     1036.267     1225.718     78.09563     156.2534     312.6622      1.883     5.54     833.8332     55.08989     125.1204         9     1.346     0.643  26.97   0
       568    995.7934    161.2446 307.5184069  +6.6334064     1087.888     1981.393     2017.187     77.84653     156.1291     312.2271      1.899     4.84     835.1226     55.08989     172.1699        17     1.480     0.863  54.48   0
       569     88.0203    162.2673 307.8955031  +6.6026829     1473.927     2251.332     2100.318     77.97118     156.3156     312.4758      1.661     4.18     847.2333     55.08989     208.8729        14     1.336     0.701  35.51   0
       570    722.1837    154.7902 307.6322976  +6.6269680     583.4515     698.4807     570.5679     78.09563     156.0669     312.4136      1.260     3.45     835.8668     55.08989     80.63562         5     0.997     0.345  46.53   0
       571    571.6320    151.2832 307.6949626  +6.6233960     1015.679     1465.062     1511.593     78.34396     156.1291     312.4136      1.517     4.21     833.3929     55.08989     153.6765        11     1.170     0.692  33.33   0
       572    997.0253    147.5197 307.5183530  +6.6391139     2067.474     3268.729     3629.833     78.09563     156.1291     312.5379      1.598     3.95     834.4465     55.08989     313.2555        20     1.552     0.749  29.69   0
       573    273.0634    141.6736 307.8193239  +6.6173847     32386.64     47987.31     50082.54     78.59148     156.3156     312.5379      1.558     3.72     844.1911     55.08989     4793.969        52     1.554     1.048  42.39   0
       574    266.0735    145.4052 307.8221024  +6.6156101     651.6157     1052.763      1420.48     77.97118     155.8801     312.4447      1.578     4.30     844.2287     55.08989     111.2339         7     1.082     0.487  46.83   0
       575    588.1559    143.3497 307.6883635  +6.6272227     2232.569     3171.056     3633.297     78.46782     156.1913      312.569      1.543     3.85     833.3335     55.08989     341.1926        19     1.394     0.817  35.51   0
       576    579.8046    145.1062 307.6917743  +6.6262189     1119.038     1506.115     1543.895     78.09563     156.0046     312.2892      1.426     3.30     833.3461     55.08989      217.472         9     1.011     0.553  34.43   0
       577    332.4044    143.5947 307.7946068  +6.6185773     1119.165     1552.586     1499.922     77.72167     156.0046     312.4136      1.548     3.94     841.3378     55.08989     185.7883        10     1.082     0.772  27.17   0
       578     18.3473    140.2206 307.9251890  +6.6094472     4699.146     6932.923     6684.452     77.84653     156.3156     312.3514      1.540     3.58     851.4094     55.08989     701.9499        26     1.428     0.902  43.65   0
       579    704.6846    138.2099 307.6401226  +6.6332303     8580.918     12321.69     13073.78     77.97118     156.0046     312.3825      1.534     3.75      834.546     55.08989     1345.901        30     1.470     0.924  41.27   0
       580    181.8581    139.4965 307.8572869  +6.6152291     1016.274     1591.837     1315.238     78.21989     156.3156     312.6933      1.751     6.09     844.8253     55.08989     162.1551        13     1.502     0.694  29.90   0
       581    259.2949    136.6293 307.8252134  +6.6190063     860.0505     1455.087     1617.786     78.46782     156.0669     312.4447      1.851     5.18     844.2883     55.08989      122.532        10     1.371     0.639  25.79   0
       582    115.4073    135.3374 307.8850324  +6.6147190     5120.434     7412.936     7794.932     77.72167     156.1291     312.3514      1.565     3.70     845.7871     55.08989     743.4094        26     1.455     0.887  42.85   0
       583    454.5007    132.5746 307.7442523  +6.6272089     1493.854     1991.002     1896.082     78.46782     156.0669     312.4447      1.470     3.94     834.9805     55.08989      261.879        16     1.389     0.775  51.34   0
       584    411.5432    134.8128 307.7620239  +6.6248492     438.1647     524.3833    -337.7984     77.72167     156.1913     312.2271      1.133     2.69     836.2811     55.08989     100.6212         5     0.715     0.469  71.86   0
       585    386.0411    131.4435 307.7727318  +6.6253877     3970.772     6544.804     6668.463     78.09563     156.3156     312.4136      1.725     3.85     838.2148     55.08989     553.6663        30     1.591     1.024  52.46   0
       586    577.4339    133.0595 307.6931628  +6.6311133      752.993      1093.96     1257.436     78.21989     156.3777     312.4758      1.849     4.65      833.246     55.08989     123.0867         8     1.202     0.581  26.37   0
       587    643.6614    132.1268 307.6656791  +6.6337076     859.0745     1040.962     713.1676     78.46782     156.3156      312.569      1.406     4.03     833.4176     55.08989     142.6696         9     0.915     0.700  25.03   0
       588    562.5506    130.4438 307.6994339  +6.6316966     640.7939     1184.141     1397.395     78.34396     156.2534     312.5379      1.946     6.70       833.21     55.08989     88.76691         9     1.577     0.799 -78.70   0
       589    350.6028    130.2512 307.7874945  +6.6246949     3513.529     5045.214     4942.521     77.72167     156.0669     312.1337      1.519     3.73     840.8066     55.08989     550.7485        24     1.419     0.850  37.47   0
       590    104.7231    130.0514 307.8896489  +6.6165431     1835.591     2775.969      2887.68     78.46782     156.3777     312.5069      1.623     4.76     845.8669     55.08989     239.5445        15     1.207     0.764  40.42   0
       591    741.0403    127.8241 307.6253655  +6.6387296     560.9327     578.5382     440.4233     77.97118     156.1291     312.3203      1.190     3.72     834.8321     55.08989     92.94104         6     0.903     0.471  37.46   0
       592    666.2860    127.7455 307.6564261  +6.6362708     828.0217      1296.26     1137.715     78.34396     156.2534     312.7243      1.613     4.78     833.4568     55.08989      138.004         9     1.233     0.525  41.29   0
       593    997.4537    124.3142 307.5189493  +6.6487089     1592.583     2317.858      2362.63     78.34396     156.2534     312.6933      1.568     3.52     833.1982     55.08989     280.6182        13     1.232     0.647  38.56   0
       594    202.4682    119.1789 307.8494081  +6.6243076     5791.193     8384.072     8164.659     77.97118     156.2534     312.4447      1.572     3.66     844.5766     55.08989     924.2484        28     1.412     0.952  40.13   0
       595    664.2253    117.9930 307.6576087  +6.6402285     6621.205     9562.254     9880.841     77.84653     156.1913     312.3825      1.486     3.68      833.305     55.08989     1083.492        27     1.405     0.894  40.85   0
       596     85.2196    119.0231 307.8981225  +6.6204420     2340.698     3541.225     3668.973     78.09563     156.1913     312.4758      1.545     3.64      846.639     55.08989       347.72        20     1.339     0.850  37.47   0
       597    841.0750    118.5791 307.5841129  +6.6458771     643.8113     897.1218     1337.302     77.97118     156.1913     312.4758      1.637     4.33      833.668     55.08989     117.4577         6     0.818     0.652  40.37   0
       598    812.3165    117.4813 307.5960981  +6.6453732     1200.076     1573.232     1636.215     78.09563     156.5639     312.6001      1.508     4.26     833.6683     55.08989     196.6108        13     1.242     0.708  36.65   0
       599    616.3796    115.2523 307.6775789  +6.6397645     10155.35      14662.9     15696.48     77.84653     156.3156     312.3514      1.540     3.57      833.152     55.08989     1566.311        34     1.495     0.905  40.90   0
       600    251.2907    116.0249 307.8292313  +6.6272448     776.6968     919.6032     888.7607     78.46781     156.1291     312.3825      1.436     4.94     844.3656     55.08989     121.0568         8     1.142     0.605  54.62   0
       601     14.9982    114.2876 307.9274540  +6.6200410     983.1229     1615.928     1318.384     77.59661     155.9424     312.2581      1.632     5.73     851.7685     55.08989      150.248        11     1.196     0.809  16.65   0
       602    554.3859    114.4996 307.7033603  +6.6380068     670.4189     1107.904     1558.949     78.21989     156.0669     312.2581      1.488     3.68     833.0613     55.08989     113.5069         6     1.025     0.381  19.92   0
       603    343.5829    110.9593 307.7910589  +6.6324247     3852.979      6159.35     6380.562     77.84653     156.1291     312.3514      1.659     3.96     842.0101     55.08989     575.7221        28     1.305     1.246  34.06   0
       604    525.2230    110.1830 307.7156211  +6.6388154     1828.317     2766.528     2643.195     77.97118     156.1913     312.4758      1.593     4.42     833.1873     55.08989     262.1118        17     1.522     0.746  41.98   0
       605    989.8150    109.6143 307.5226136  +6.6545242     714.7042     1193.897     857.7053     78.09563     156.0046     312.4758      1.608     5.22     832.5029     55.08989     119.3448         9     1.328     0.651  44.37   0
       606    619.9788    106.7487 307.6763683  +6.6433954     56797.28     82197.35     85666.09     77.84653     156.3777     312.4136      1.491     3.60     833.0907     55.08989      8916.84        65     1.551     1.004  43.92   0
       607    299.0791    100.5713 307.8098970  +6.6352245     3749.681     5569.079     5976.028     78.21989     156.2534     312.5069      1.559     3.69     843.9052     55.08989       572.32        22     1.359     0.863  37.96   0
       608    494.6248     97.6160 307.7287550  +6.6429820     685.0512      1117.27     923.9973     78.09563     156.1913     312.4758      1.442     3.39     833.1123     55.08989     112.9853         7     1.059     0.486  -0.67   0
       609      2.5779     83.7072 307.9336442  +6.6322489     12123.96     27594.71     40353.92     78.34396     140.9612     254.2839      3.250     9.01     851.4124     55.08989     2364.126       154     4.160     1.878 -87.24  24
       610    699.0640     95.1033 307.6439004  +6.6508400     1048.964     1396.849     964.5417     78.21989     156.4398      312.569      1.421     4.59     832.9419     55.08989     204.2045        10     1.281     0.533  38.35   0
       611    670.3976     93.9297 307.6558499  +6.6503691     1488.038      2210.89     2355.156     77.84653     155.9424     312.3514      1.543     4.43     832.9199     55.08989     229.5956        15     1.366     0.809  51.79   0
       612    684.3278     90.6731 307.6501712  +6.6521780      3337.89     4916.128     4889.377     78.59148     156.4398      312.569      1.512     3.53     832.8312     55.08989     623.6509        20     1.407     0.794  44.92   0
       613     56.2739     88.9390 307.9111607  +6.6318910       500.68     670.2328     773.7043     78.46782     156.3156     312.5379      1.594     4.94     848.0665     55.08989     73.74756         6     1.242     0.556  61.74   0
       614    426.0710     81.7545 307.7577689  +6.6472401     4472.541     6441.074     6103.676     78.34395     156.3156     312.5379      1.474     3.47      835.864     55.08989     687.0513        22     1.390     0.797  40.73   0
       615    898.6127     77.0624 307.5615939  +6.6649320     3946.347     5895.326     6068.926     77.84653     156.1291     312.3203      1.535     3.62     831.6776     55.08989     629.0059        26     1.441     0.925  44.29   0
       616    880.6880     77.7821 307.5690175  +6.6640387     2312.737      3313.09     3320.283     78.09563     156.0669     312.4136      1.519     3.71     831.7271     55.08989     388.1461        16     1.276     0.878  41.44   0
       617    578.6852     77.7853 307.6944950  +6.6539755     786.7416     1021.445     1355.959     77.97118     156.0669     312.4136      1.553     4.81     832.3746     55.08989     134.2202         9     1.181     0.555  41.30   0
       618    590.7328     75.7346 307.6895582  +6.6552241     1934.744     2472.783     2619.219     78.34396     156.3156      312.569      1.373     3.51     832.2977     55.08989     315.8336        16     1.190     0.790  49.25   0
       619    610.8173     75.4387 307.6812235  +6.6560164       504.64     602.3405      428.654     77.97118     156.1913     312.3203      1.467     4.98     832.2442     55.08989     76.64606         6     1.158     0.605  24.32   0
       620    236.4927     75.1130 307.8367545  +6.6436397     915.1263     1379.136     1721.249     78.34395     156.7499     312.6311      1.617     5.13     844.3096     55.08989     136.9043        11     1.099     0.704  38.72   0
       621    389.3988     73.4053 307.7732852  +6.6494612      2085.97     2842.554     2933.951     77.72167     156.0046     312.3203      1.478     3.22      839.093     55.08989     348.1112        16     1.231     0.731  33.54   0
       622    137.3018     70.4792 307.8781196  +6.6422293     3501.025     5187.814     4755.975     78.21989     156.6879      312.569      1.590     3.67     844.2198     55.08989     530.6193        22     1.455     0.850  39.36   0
       623    285.7617     69.1547 307.8164855  +6.6477490     1561.163      2503.51      3291.26     78.09563     156.2534     312.4447      1.845     4.74      844.161     55.08989     209.2814        16     1.370     0.816  38.09   0
       624     19.2783     68.4069 307.9272218  +6.6391260     13050.29     19679.98     21210.71     77.97118     155.8177     312.3203      1.610     3.71     848.7721     55.08989     1830.147        39     1.511     1.017  41.37   0
       625    940.6000     67.1171 307.5444805  +6.6704342     543.7819     882.0884     1031.902     77.59662     155.8177      312.196      1.613     4.06     831.2052     55.08989     129.7664         5     1.364     0.345  48.38   0
       626    558.9761     67.9376 307.7030137  +6.6573834     644.6115     650.6905     496.2249     77.97118     156.3156     312.4447      1.259     4.50     832.1198     55.08989     119.5524         7     1.130     0.509  35.46   0
       627    546.1254     67.7369 307.7083597  +6.6570374     808.2761     1106.054     979.6667     78.59148     156.3156     312.5069      1.384     4.43     832.1519     55.08989     141.1166         9     1.207     0.515  28.70   0
       628    887.8479     63.7367 307.5665118  +6.6700757     650.3624     1165.193     1054.259     78.21989     156.1913      312.569      1.657     4.99     831.3178     55.08989     127.7007         9     1.512     0.467  51.32   0
       629    821.0038     62.7936 307.5943167  +6.6682409     6305.638     8941.278     9160.923     77.72167     156.0046     312.4447      1.473     3.58     831.4541     55.08989     983.1289        27     1.384     0.934  47.21   0
       630    766.0694     63.0880 307.6171318  +6.6662903     3492.953     4925.486     4948.042     78.34395     156.5639     312.5379      1.455     3.61     831.6805     55.08989     522.7997        19     1.373     0.754  41.29   0
       631    411.2703     63.9825 307.7645146  +6.6540826     1122.759     1480.816     539.2487     77.84653     156.1913     312.4447      1.350     3.29     837.3132     55.08989     199.4154        12     1.090     0.735  33.41   0
       632    912.2512     63.1861 307.5563907  +6.6711146     551.4728     553.0892     270.5983     77.72167     156.3156     312.2892      1.045     4.07     831.2703     55.08989     110.9987         7     1.119     0.423  61.76   0
       633     90.6357     63.7837 307.8977324  +6.6434287     577.8095     583.5451     396.8411     77.97118     156.0669     312.3203      1.283     4.03     844.6665     55.08989     94.18268         6     1.303     0.357  28.48   0
       634    528.5364     61.3119 307.7158829  +6.6591028     1168.278     1582.627     1590.852     78.21989     156.5018     312.5379      1.342     4.36     832.2279     55.08989     204.3553        12     1.366     0.612  52.15   0
       635    752.6951     62.2692 307.6227161  +6.6661829     611.7866      1139.78     2347.326     78.21989     156.3777      312.569      2.000     5.12     831.7078     55.08989     153.0969         7     1.303     0.568  23.63   0
       636     59.4694     60.1564 307.9108025  +6.6438808     3370.582     4913.924     5257.929     78.34395     156.2534     312.6001      1.616     3.77     846.0767     55.08989      506.033        23     1.567     0.839  44.59   0
       637     44.0609     60.9183 307.9171783  +6.6430492     959.8207     1144.372     933.8331     78.46782     156.3156     312.5379      1.354     4.22     846.8739     55.08989     139.0458        10     1.099     0.674  42.44   0
       638    648.5071     60.4288 307.6660667  +6.6634704     590.6707     631.0808     398.1429     78.46782     156.0669     312.4447      1.181     3.36     831.8911     55.08989     111.7779         5     1.083     0.302  22.17   0
       639    420.8811     59.8141 307.7606614  +6.6561248     919.3992     1279.516     1158.306     77.97118     156.0669     312.3514      1.588     5.58     836.6516     55.08989     140.7084        11     1.306     0.716  27.12   0
       640    583.4415     56.9353 307.6932175  +6.6627422     1308.623     1954.917     2300.269     78.34395     156.2534     312.6001      1.573     4.76     831.7194     55.08989      226.937        15     1.395     0.771  39.90   0
       641      2.1407     55.8247 307.9347655  +6.6437452     2641.698     3571.693     4200.928     76.07993     135.5525     247.9021      1.427     3.51     848.3817     55.08989     387.3429        16     1.133     0.851  56.42  24
       642    710.3985     52.8778 307.6406042  +6.6686510     526.8779     512.9137      630.667     77.59662     155.7554     312.3514      1.302     4.45     831.6067     55.08989     85.88971         6     1.044     0.657   4.22   0
       643    760.7264     50.6414 307.6197681  +6.6712510      2009.07     2766.578     2898.037     78.21989     156.3777      312.569      1.450     3.77     831.3375     55.08989     321.8908        16     1.285     0.747  50.89   0
       644    401.5195     50.8527 307.7690065  +6.6591773     1083.776     1566.346     1640.222     78.34395     156.3156      312.569      1.514     4.22      838.356     55.08989     173.1565        11     1.296     0.567  41.34   0
       645     74.0161     51.2567 307.9050588  +6.6480429     824.0714     1236.747     1074.756     77.72167     156.2534     312.2892      1.523     3.88     844.9222     55.08989     147.4036         9     1.204     0.608  34.89   0
       646    652.0818     50.5193 307.6649133  +6.6676808     484.0064     681.9399     78.37167     78.34395     156.5639     312.6311      1.301     4.73     831.6368     55.08989     91.73938         6     1.271     0.499   1.17   0
       647     98.3074     49.6422 307.8950213  +6.6495242     916.3727     1484.589     1378.077     78.34396     156.3156     312.6311      1.762     4.79     843.9625     55.08989     132.0914         9     1.102     0.603  39.81   0
       648     87.3058     44.5401 307.8997638  +6.6512616     10003.53     14969.65     15414.87     78.21989     156.3156     312.6001      1.600     3.62     844.1779     55.08989     1482.046        37     1.521     1.000  41.28   0
       649    416.3646     44.1711 307.7630630  +6.6624321     2577.374     3697.427      3959.57     77.97118     156.0669     312.3514      1.461     3.59     837.3938     55.08989     404.1995        17     1.325     0.739  42.46   0
       650    630.0963     36.4549 307.6745191  +6.6727541     19825.38     28629.64     30090.37     78.21989     156.3156     312.7243      1.507     3.55     831.0349     55.08989     3015.133        43     1.523     0.957  42.55   0
       651    254.0600     38.5498 307.8306852  +6.6593229     1558.749     2064.574     2573.103     78.34395     156.2534      312.569      1.489     4.48     844.0723     55.08989      242.649        17     1.340     0.933  36.05   2
       652    248.0053     32.9052 307.8333905  +6.6614505      2062.16     3079.582     4093.679     78.09563     156.0046     312.2892      1.743     3.57     844.0405     55.08989     297.1801        20     1.385     0.884  51.76   3
       653    659.4222     37.5402 307.6622980  +6.6732841     623.8287     470.4997     308.6471     77.97118     156.2534     312.4447      1.409     4.25      831.299     55.08989     108.4558         6     1.193     0.432  12.89   0
       654    529.8893     32.5890 307.7162838  +6.6710063     5611.032     8139.157     8542.729     78.09563     156.0046     312.3514      1.510     3.79     831.6362     55.08989     806.6738        27     1.403     0.913  39.89   0
       655    886.6481   1021.2988 307.5350459  +6.2746852     1341.323     2089.348     2186.138     78.34396      152.096     270.3876      1.743     4.91     858.6167     55.08989     141.0389        15     1.235     0.882  20.93  16
       656    435.3807     28.1464 307.7556999  +6.6696834     24113.21     35301.75      36422.5     77.84653     156.3156     312.3514      1.539     3.63     836.3594     55.08989     3805.538        45     1.539     0.964  40.84   0
       657    255.9923     28.6359 307.8302156  +6.6634805     9580.926      14260.3      15512.5     77.72167     156.1291     312.2892      1.563     3.67     844.0197     55.08989     1423.491        33     1.524     0.921  43.06   0
       658    501.6410     29.8895 307.7281112  +6.6711775     637.6574     808.9296     1227.169     78.34395     156.3156      312.569      1.260     2.72     832.3066     55.08989     125.5638         5     0.755     0.414  67.45   0
       659    316.2928     29.0518 307.8051483  +6.6653272     1105.344     1725.376     1959.178     78.21989     156.1913     312.7554      1.802     5.57      843.322     55.08989     165.3996        16     1.646     0.717  29.36   0
       660     21.3509     28.1935 307.9277157  +6.6557971     2559.021     3672.046     3861.413     77.84653     156.1291     312.1648      1.559     3.63     844.8959     55.08989     372.3495        21     1.387     0.834  43.53   0
       661    913.3219     28.0684 307.5571187  +6.6856490     1911.362     2570.665     2349.145     78.46781     156.5018     312.5379      1.439     3.62     830.2898     55.08989     284.2886        15     1.301     0.701  36.09   0
       662    548.5923     28.0906 307.7086637  +6.6734878     740.3943     1050.121     843.3832     77.97118     156.0046     312.3514      1.373     4.94     831.0985     55.08989     157.2767         9     1.320     0.665  32.56   0
       663    520.5961     27.9633 307.7203001  +6.6726057      664.691     992.1419      1289.94     77.47136     156.1291     312.3514      1.640     4.06     831.7747     55.08989     120.3387         7     1.153     0.409  32.00   0
       664    243.9848     25.1710 307.8353210  +6.6645089      3346.34     4956.694     5609.675     77.97118     156.0669     312.4447      1.543     3.82     843.9931     55.08989     515.7799        20     1.389     0.805  45.79   0
       665    296.9324     23.2684 307.8133865  +6.6670670       923.71     1501.714      1392.84     78.34395     156.4398      312.569      1.615     5.11     843.8021     55.08989     135.5816        10     1.220     0.604  46.98   0
       666    934.1132     18.3955 307.5488027  +6.6903339     947.2683     1287.887     1019.856     77.84653     156.0046     312.2271      1.506     3.54     829.8865     55.08989     145.2836        13     1.103     0.792  36.54   0
       667    209.0516   1020.3056 307.8163910  +6.2524944     1918.878     3195.634     3389.797     78.21989     156.2534     282.8511      1.774     4.40     863.1743     55.08989     237.8409        22     1.455     0.990  35.64  16
       668    712.2705   1017.3790 307.6075740  +6.2705016     6671.125     11300.47     12333.59     77.97118     156.1913     309.2266      1.845     4.06     862.2906     55.08989     791.0945        40     1.690     1.127  44.71  16
       669    426.9178   1017.3683 307.7260426  +6.2609902     3696.759     6163.291     7064.123     78.21989     156.1913     309.1952      1.883     4.11     864.6516     55.08989     488.5928        32     1.900     1.026  47.01  16
       670    704.6745   1016.5795 307.6107543  +6.2705787     1107.481     1771.772     1722.953     77.97118     156.1913     312.4758      1.660     4.43     862.4789     55.08989     174.1294        10     1.113     0.706  44.92  16
       671    744.0739   1012.7615 307.5945243  +6.2734670     1172.844     2131.964     2915.249     78.21989     156.3156     312.6001      2.179     6.81     861.3047     55.08989     165.2039        19     1.544     1.218  -3.65   0
       672    568.3368   1016.4544 307.6673616  +6.2660868     3956.942     6781.053     7857.555     78.46782     156.2534     312.5069      1.914     4.08     864.1361     55.08989     494.8408        35     1.641     1.166  45.90  18
       673    951.9033   1006.8663 307.5084344  +6.2828126      5495.62      10283.9     11088.42     78.34395     156.3777      312.569      1.988     4.48     857.7594     55.08989     631.1272        46     1.785     1.331  41.12   0
       674    706.4040   1007.8935 307.6103265  +6.2742225     900.6363     1805.462     2530.996     78.09563     156.0046     312.2581      2.530     6.60      862.324     55.08989     141.1268        15     1.607     0.947  64.73   1
       675    236.4705   1007.3029 307.8054448  +6.2587801     1268.235     2048.744     2046.943     78.21989     156.5018      312.569      1.750     6.16     863.0212     55.08989     176.4295        16     1.450     0.825  54.32   0
       676    711.5805   1004.9664 307.6082752  +6.2756034     2500.121     4359.155     4916.875     77.84653     156.1291     312.3514      1.859     4.04     862.1359     55.08989     358.8857        26     1.564     0.990  37.66   0
