#   1 NUMBER                 Running object number                                     
#   2 X_IMAGE                Object position along x                                    [pixel]
#   3 Y_IMAGE                Object position along y                                    [pixel]
#   4 ALPHA_J2000            Right ascension of barycenter (J2000)                      [deg]
#   5 DELTA_J2000            Declination of barycenter (J2000)                          [deg]
#   6 FLUX_APER              Flux vector within fixed circular aperture(s)              [count]
#   9 FLUXERR_APER           RMS error vector for aperture flux(es)                     [count]
#  12 FLUX_RADIUS            Fraction-of-light radii                                    [pixel]
#  13 FWHM_IMAGE             FWHM assuming a gaussian core                              [pixel]
#  14 BACKGROUND             Background at centroid position                            [count]
#  15 THRESHOLD              Detection threshold above background                       [count]
#  16 FLUX_MAX               Peak flux above background                                 [count]
#  17 ISOAREA_IMAGE          Isophotal area above Analysis threshold                    [pixel**2]
#  18 A_IMAGE                Profile RMS along major axis                               [pixel]
#  19 B_IMAGE                Profile RMS along minor axis                               [pixel]
#  20 THETA_IMAGE            Position angle (CCW/x)                                     [deg]
#  21 FLAGS                  Extraction flags                                          
         1      2.2904     33.5190 307.9364284  +6.6318857     554795.7      1051098      1193358     93.10021     165.7296     301.3525      2.112     9.24     1295.098     66.31096     60409.75       184     2.455     1.245 -88.34  28
         2     21.8630     20.3443 307.9287078  +6.6379991     3641.976     7783.149     9646.505     94.45065     188.1549     376.1977      2.234     7.32       1292.8     66.31096     352.5826        34     2.052     1.145  37.16   3
         3     24.8724     17.5989 307.9275450  +6.6392369     3999.551     7980.377     10201.02     93.55252     187.6307     376.0106      2.466     9.34     1292.387     66.31096     503.8507        41     2.774     1.168  36.22  19
         4    822.7761     12.6456 307.5948371  +6.6682016     2304.775     5109.948     6290.806     93.85285     188.1549      376.048      2.340     8.01     1243.938     66.31096     279.1499        33     2.326     1.005  75.74  19
         5    826.2170     11.6824 307.5934338  +6.6687157     1681.221     3451.434     4383.364     93.85285     187.7807     376.1229      2.403     7.33     1243.802     66.31096     212.6749        19     2.063     0.730  72.68  19
         6    768.2740     13.6370 307.6175427  +6.6659600     1132.362     3126.924      5257.24     94.15223     188.2297     376.2351      4.097     9.27      1244.68     66.31096     155.8707        22     2.154     1.114  72.12  18
         7     64.6791      8.9654 307.9112302  +6.6441566     990.9468     2401.239     3717.022     94.15222     188.2297     376.1977      3.141     9.01     1285.405     66.31096     148.3813        14     1.721     1.316 -17.73  18
         8      4.2902      7.9822 307.9364552  +6.6425180     956.3897     1871.536     1806.461     94.00266     187.1802     332.0531      1.807     5.47     1296.828     66.31096     111.5004        10     1.473     0.574  38.78  16
         9      7.1433      4.4235 307.9353850  +6.6440870     765.5936     1493.785     1089.429     93.85285     188.1549     327.5305      1.883     5.12     1296.563     66.31096     101.9816         8     1.384     0.535  65.53  16
        10      3.5759    996.6745 307.9034422  +6.2334630     6787.197     16406.21     18495.54     93.85285     181.7646     323.1624      2.392     5.66     1303.185     66.31096     865.8237        55     2.055     1.550  75.34  24
        11    282.2396   1023.3950 307.7863868  +6.2318257     1011.176      1644.96     1566.524     85.37392     154.2981     288.1774      1.708     5.06     1309.387     66.31096     160.8037         9     1.196     0.604  24.12  24
        12    613.0206    994.4351 307.6494692  +6.2549528      849.004      1731.85     2281.311      93.7028     187.9305     375.9358      2.279     5.86     1308.594     66.31096     116.9722         9     1.521     0.635  34.80   0
        13    797.2519    985.9350 307.5729517  +6.2646617     8052.895     19317.95     21172.41     94.30155     188.0801     376.1603      2.343     5.75       1307.4     66.31096     863.4912        57     1.851     1.637  77.40   0
        14     68.1682    986.7795 307.8768509  +6.2397419     3890.845     10405.31      12328.5      93.7028     187.9305      376.048      2.618     6.16     1305.505     66.31096     508.1578        56     2.051     1.720  65.09   0
        15    580.7936    976.7767 307.6634948  +6.2611742     74794.89       211603     281447.7      93.7028     187.9305      376.048      2.840     8.40     1308.463     66.31096     7847.103       149     2.765     1.999 -84.38   3
        16    583.3039    968.7993 307.6627153  +6.2645592     34856.98     71614.52     80656.01      93.7028     187.7057     375.7486      2.156     6.31     1308.224     66.31096     3750.074        59     2.071     1.216  28.54   3
        17    215.8298    979.1499 307.8155554  +6.2478887     1860.101     4238.976     5906.245     93.85285     188.3044     376.0854      3.051     6.54     1308.183     66.31096     235.5026        28     1.724     1.325  58.24   2
        18    791.4421    973.7949 307.5757792  +6.2694894     3749.395     9417.603     10508.22     93.55252     187.7807     375.8609      2.446     6.09     1306.724     66.31096     373.2961        46     1.845     1.556  78.29   0
        19    889.1929    970.7524 307.5351295  +6.2740294     887.2319     1852.229     1974.157      93.7028     187.9305     375.7486      1.980     6.25     1305.601     66.31096      119.866        11     1.555     0.774 -62.79   0
        20    211.3288    969.2593 307.8177639  +6.2518286     916.3596     2056.241     2055.055     94.45065     188.1549     376.2725      2.287     7.41     1307.891     66.31096     112.8038        13     1.754     0.876 -80.93   2
        21    214.6239    968.9805 307.8163997  +6.2520552     838.6447     1112.239     1583.404     94.00266     187.9305     376.1229      1.560     3.94     1307.964     66.31096     160.1322         5     0.855     0.519  37.34   3
        22    571.6234    965.7273 307.6676875  +6.2654371     1701.564     5538.777     8069.538     93.85285     187.9305     376.1229      3.211     9.97     1308.312     66.31096     201.6355        47     2.147     1.703  64.57   1
        23    715.4913    966.1453 307.6076976  +6.2701027     3844.648     9833.758     12013.15     94.15222     188.0053     376.3473      2.654     6.22     1306.865     66.31096     388.8141        48     1.838     1.649  72.36   0
        24    432.4480    966.4404 307.7256822  +6.2604549     1513.006     2350.792     2864.863     94.15223     188.1549      376.048      1.702     3.77      1309.21     66.31096     264.6968         8     1.107     0.469  80.02   3
        25    429.3582    965.8832 307.7269889  +6.2605813     1586.478     3811.959     4878.107     94.30155     188.1549     376.1229      2.706     8.97     1309.216     66.31096     167.2843        25     2.033     1.106 -78.24   2
        26    746.6860    961.7320 307.5948404  +6.2729769     809.1357     2007.161      2476.76     94.45065     188.4538     376.2351      2.780     6.38     1306.236     66.31096     107.9541        11     1.596     0.716 -86.75   0
        27    954.8803    955.5046 307.5082535  +6.2825411     4602.514     9918.948     10716.25     94.00266     188.4538     376.3099      2.181     5.10     1303.939     66.31096     475.6246        43     1.709     1.480 -79.38   0
        28    714.4765    953.6448 307.6085385  +6.2752405     1576.521     4254.053     5461.646     94.15223     188.2297     376.2351      2.833     8.66      1306.38     66.31096     200.4176        32     1.681     1.548 -72.09   0
        29    240.2474    954.8286 307.8061937  +6.2587754     850.1848     1763.276     2541.081     93.85285     188.3044     376.0854      2.337     6.37     1308.003     66.31096     102.9547        10     1.420     0.804  26.97   0
        30    363.4830    951.4340 307.7549349  +6.2643384     852.6119     1927.141     2511.115     94.30156     188.1549     376.1603      2.503     7.51     1308.792     66.31096     126.2844        11     1.899     0.832  67.20   2
        31    730.9966    951.8503 307.6017115  +6.2765381     561.2188     1237.307      1725.78     93.55252     187.8556     375.7111      1.644     4.43     1305.921     66.31096     90.42688         6     1.480     0.377  34.35   0
        32    543.4886    940.3427 307.6802663  +6.2749924     2059.215     5700.362     8019.308     94.30156     188.0801     376.3473      3.090    10.02     1308.189     66.31096      229.447        46     2.371     1.773  70.80   3
        33    540.1398    935.7438 307.6818164  +6.2767824     3018.428      5097.24     6301.368     94.45065     188.1549     376.2351      2.101     6.54     1308.109     66.31096     347.4392        20     1.797     0.763  40.04   3
        34    542.0460    932.7718 307.6811213  +6.2780762      3494.54     7719.942     9464.689      93.7028     188.2297     376.0854      2.349     7.20     1308.044     66.31096     437.4298        35     2.082     1.137  34.22   3
        35    292.4852    942.4805 307.7848323  +6.2656475      4222.59     6800.465     7951.058     94.00266     188.5285     376.3099      1.820     4.69     1308.339     66.31096     515.7349        18     1.402     0.942  52.60   3
        36    294.7504    939.7391 307.7839800  +6.2668581     7068.871     16178.24     20759.74     94.30155     188.0801     376.2725      2.551     6.48      1308.32     66.31096     930.5699        62     2.225     1.661  45.68   3
        37    808.1090    939.6047 307.5699729  +6.2841948     708.1755     1339.846     2057.322     93.85285     187.7807     375.8609      2.294     5.66     1304.668     66.31096     114.9697         7     1.283     0.703 -47.79   0
        38    748.2209    940.7458 307.5949019  +6.2817112     4042.574     10824.66     12315.42      93.7028     188.1549     375.9732      2.504     6.46     1305.166     66.31096     417.1095        50     1.818     1.727  81.83   0
        39    909.5450    934.2306 307.5278635  +6.2898226     5309.732     12498.72     14145.62     94.15223     188.2297     376.1603      2.363     5.54     1303.858     66.31096      539.114        55     1.802     1.683 -89.09   0
        40    883.0173    930.3456 307.5390526  +6.2905400     7101.871     17576.24     19512.75      93.7028     188.1549     375.8983      2.399     5.76     1303.727     66.31096     721.3706        57     1.864     1.670 -86.86   0
        41   1004.7143    929.5590 307.4883425  +6.2949464     3463.406     7019.919     7725.329     94.30155     188.0801     376.1603      2.161     5.57     1301.303     66.31096     346.3462        41     1.735     1.487 -85.87   0
        42    527.4633    929.5988 307.6873069  +6.2788979     1798.327     5300.056     6855.487     93.55253     187.9305     375.9358      2.837     8.52     1307.983     66.31096      223.927        39     1.872     1.762  64.01   0
        43    479.6351    927.2448 307.7073247  +6.2782611     793.7828     2291.013     2617.036     94.00266     188.0801      376.048      2.893     6.28     1307.896     66.31096     144.0028        11     1.417     0.781 -34.94   2
        44    914.8399    917.8950 307.5262010  +6.2967589     25791.84     61965.56     69127.47     94.30155     188.0801     376.3099      2.351     5.54     1303.072     66.31096     2554.549        82     1.945     1.723  82.99   0
        45    223.2776    915.7679 307.8145800  +6.2743626      794.514     1926.167     2963.599     94.15223     188.1549     376.1603      2.585     5.97     1306.959     66.31096     138.8486         9     1.712     0.585  36.00   0
        46    760.1099    909.5059 307.5909894  +6.2950356      3186.72     6987.994     8367.709     94.30155     188.7523     376.2351      2.401     6.53     1303.404     66.31096     338.4288        36     2.032     1.153 -88.72   2
        47    763.0000    908.9675 307.5898025  +6.2953555     2259.926     3411.829     4502.633     93.40199     187.8556     375.8609      1.574     4.86     1303.313     66.31096     382.7992        13     1.589     0.605  82.91   3
        48    812.4329    911.2148 307.5691185  +6.2960859     1385.002     2935.202     3804.388     93.85285     187.8556     376.0854      2.369     8.56     1302.936     66.31096     156.1241        22     1.561     1.310  17.23   0
        49     55.9727    907.3614 307.8846069  +6.2721857       1165.6      3302.24     4092.369     93.85285     187.9305     376.0106      2.668     8.04     1303.943     66.31096     173.3756        27     1.876     1.615  57.52   0
        50    231.8608    909.4237 307.8112151  +6.2772771     693.2017     1386.048     1864.123     93.85285     188.0801     376.0854      2.068     4.20       1306.9     66.31096     89.24377         5     1.197     0.421  13.38   0
        51    949.1014    904.7181 307.5123565  +6.3033597     4377.624     9899.787     10613.44     94.30155     188.6777     376.3099      2.237     5.50     1301.609     66.31096     438.3853        43     1.706     1.514 -78.22   0
        52    922.8475    896.2543 307.5235846  +6.3059810     1157.419      2578.41     2849.442     94.30155     188.1549     376.2351      2.155     7.33      1301.88     66.31096     166.2365        16     1.372     1.097  70.18   0
        53    257.0708    892.8011 307.8012639  +6.2850055     1665.805     4426.328     6374.267     93.55252     187.6307     376.0106      2.895     8.61     1306.766     66.31096     199.4658        32     2.139     1.316  89.63   2
        54    253.7149    892.3060 307.8026795  +6.2850970     1194.655     2170.356      3313.13     94.15223     188.6031     376.3099      2.224     6.36     1306.708     66.31096      151.811        13     1.790     0.636 -80.26   3
        55    643.7635    892.3433 307.6400688  +6.2982255     1921.138     5546.414     5865.446     94.30155     188.1549     376.2351      2.594     8.12     1304.712     66.31096     240.4261        39     1.785     1.737 -70.36   0
        56    781.8484    892.8484 307.5824830  +6.3026576     644.9501     1364.286     1821.881     94.30155     188.0053     376.1977      2.430     4.92     1302.161     66.31096     96.69641         8     1.187     0.577  85.33   0
        57     26.7778    890.8977 307.8973313  +6.2780092     1173.591     2557.881     3586.033     94.15222     187.8556     375.9732      2.817     6.01     1303.771     66.31096     170.5138        13     1.389     0.731  79.46   2
        58    992.1741    891.2225 307.4948488  +6.3103874     725.8163     1366.546     1449.927      93.7028     187.9305     376.1229      2.011     4.01     1299.007     66.31096     90.50977         5     0.835     0.637  50.02   0
        59    568.3813    884.2331 307.6717675  +6.2990446     723.3165     1869.561     1874.625     93.70281     187.9305     375.9732      2.315     8.16     1305.986     66.31096      94.1394        13     1.710     1.088 -61.76   0
        60    288.2459    879.3464 307.7887192  +6.2916243     634.6041     1801.781     2325.469     94.30155     188.1549     376.2351      2.782     7.13     1306.678     66.31096     113.6478         9     1.839     0.776  38.05   0
        61    891.8477    871.5209 307.5373344  +6.3151743     3847.411     9436.492        10196     94.30155     188.2297     376.1229      2.375     5.81     1300.582     66.31096     379.1339        49     1.793     1.670  87.45   0
        62    428.6312    869.1339 307.7305358  +6.3005845     861.1681     2860.597     3425.473     94.00266     188.1549     376.1229      2.849    10.33     1307.092     66.31096     153.6656        18     1.958     1.518  51.31   2
        63    328.0244    868.7650 307.7724911  +6.2973444      2737.15     5524.153      6660.53      93.7028     187.9305     375.9358      2.220     7.68     1306.977     66.31096     311.7871        27     1.953     1.028  52.71   3
        64    330.6339    866.3894 307.7714829  +6.2984153     3936.109     8296.114     9789.089     93.70281     187.8556     376.0106      2.210     6.85     1306.965     66.31096     506.8046        36     2.195     1.106  41.61   3
        65    248.5326    868.5327 307.8056385  +6.2947576     2013.963     4098.343     5767.545     94.30156     188.1549     376.2351      2.138     7.19     1306.056     66.31096     240.1039        24     2.110     0.803  42.91   3
        66    250.7411    865.6557 307.8048144  +6.2960224      2913.69     6720.322     8166.243     94.45065     188.1549     376.2351      2.480     7.09     1305.994     66.31096      335.597        37     2.158     1.207  41.35   3
        67    907.0953    855.0407 307.5315272  +6.3225043     670.3311     1405.565     1512.847     94.30155     188.0801     376.3473      1.932     4.65     1299.283     66.31096     99.83484         7     1.607     0.382 -54.47   0
        68    742.5623    848.0439 307.6003595  +6.3198750      651.349     1759.523     2378.054     94.00266     188.1549     376.0106      2.795     5.67     1300.373     66.31096     109.0238         7     1.566     0.578  74.60   2
        69    975.0239    844.3962 307.5035606  +6.3291864     737.1072     1364.312     2035.086     93.85285     187.7807     376.0106      2.396     5.74     1296.102     66.31096     101.7325         7     1.116     0.832  17.99   0
        70    661.0004    843.3135 307.6345228  +6.3190904     911.0987     2421.093     3912.429     93.40199     187.5557      375.786      2.954     6.15     1301.479     66.31096     133.1248        12     1.629     0.653  83.38   3
        71     61.3452    839.4134 307.8846539  +6.3004785     1140.231     2906.575       4696.8     93.55252     188.0801     375.8983      3.241    10.67     1302.993     66.31096     195.7545        20     1.977     1.605 -77.22   2
        72    204.4588    838.2360 307.8250305  +6.3058034     944.4415     1901.122     2877.212     94.30155     188.1549     376.1977      3.037     6.19     1305.196     66.31096     137.3887        10     1.386     0.778  65.79   0
        73     78.0123    838.3764 307.8777405  +6.3014712     929.4988     1805.199     2675.859     93.85285     187.9305     376.1229      2.238     6.32     1303.134     66.31096       129.02        10     1.435     0.781  36.33   0
        74    655.6875    831.9110 307.6371194  +6.3236293     2375.943      4877.96     5818.264     94.00266     188.7523     376.3099      2.218     8.49     1301.029     66.31096     304.5441        26     2.268     0.889  84.80   3
        75    658.6985    831.3640 307.6358823  +6.3239569     2678.528     4997.323     6574.068     94.30155     188.0053      376.422      2.365     8.01     1300.884     66.31096     320.6931        29     2.159     1.114  81.59   3
        76    894.5526    828.2201 307.5376519  +6.3331802     1514.713     3834.204     4922.962     93.85285     188.1549     375.9732      2.700     8.29       1296.9     66.31096     169.5989        28     1.656     1.408 -84.14   0
        77    340.3751    826.0331 307.7687763  +6.3154403     5243.779     19098.23     25467.15     93.55252     187.8556     375.9358      3.061     7.88     1305.815     66.31096      783.292        82     2.337     2.074  81.51   0
        78     77.3737    826.8463 307.8783947  +6.3062198      533.684     1102.536     1328.478     93.85285     188.2297     376.0854      1.902     3.47     1302.838     66.31096     97.70886         5     0.760     0.457 -74.76   0
        79    105.4415    816.4718 307.8670425  +6.3114611     654.2529     1317.378     1795.915     94.15223     188.1549     376.2725      1.815     3.91     1303.126     66.31096     112.9707         5     1.127     0.389  73.02   0
        80     87.9953    810.2816 307.8745240  +6.3134321     1079.171     2904.985     3720.938      93.7028     187.6307     375.8609      2.800     9.81     1302.604     66.31096     184.0957        24     1.904     1.462 -84.68   0
        81    884.7726    810.2228 307.5423303  +6.3402982      1120.23     2942.651     2679.754      93.7028     187.9305     376.1229      2.365     8.87     1295.418     66.31096     152.1296        22     1.572     1.396 -62.59   0
        82    855.4232    809.5843 307.5545887  +6.3395774     992.1681     2268.605      2337.67     94.00266     187.9305     376.0854      2.250     7.81     1295.813     66.31096     137.3351        14     1.754     0.974 -64.97   0
        83    818.1738    809.1285 307.5701348  +6.3385155     1345.615     3238.968     4835.665     93.85285     188.0053     376.1229      2.591     7.48     1296.286     66.31096     164.5438        19     1.622     0.966 -87.88   2
        84    555.3630    800.9115 307.6799853  +6.3330790     112450.2     396013.8     504889.7     94.30155     188.0053     376.1977      2.960     8.01     1303.138     66.31096     14076.95       176     2.399     2.223  78.77   0
        85    401.7607    802.8270 307.7439622  +6.3271116     2601.612     4690.485     6404.568     93.85285     187.9305     376.0106      2.149     9.80     1304.041     66.31096     384.5068        31     2.478     1.080 -76.80   3
        86    398.6965    801.9781 307.7452682  +6.3273594      2343.73     4897.676     6082.422     94.15222     187.9305     375.9732      2.366     9.17     1304.041     66.31096      287.082        30     2.465     1.006 -73.47   3
        87    342.8959    802.1440 307.7685271  +6.3254088     3948.434     14590.71     19077.46     94.15222     188.0801      376.422      3.033     8.13     1304.989     66.31096     641.6259        78     2.354     2.094  66.06   0
        88    661.1567    797.9926 307.6359739  +6.3378464     1209.262     4246.021     5081.898      93.7028     187.9305     375.8609      2.898    11.42     1298.963     66.31096     193.3574        39     2.238     1.623 -84.72   0
        89    893.4714    796.8458 307.5391499  +6.3461247     2521.351     6957.686     8821.111     94.30155     188.1549     376.1977      2.684     7.50     1294.324     66.31096     271.5515        45     1.890     1.719 -74.49   0
        90    634.1349    793.7510 307.6473823  +6.3386924     1024.919     1448.955     2587.498     94.15222     188.0053     376.1603      1.744     4.04     1299.279     66.31096     150.3014        10     1.046     0.657  62.38   3
        91    636.6147    790.6837 307.6464510  +6.3400449     1279.831     2588.146     3832.334     93.85285     187.7807      376.048      3.757     8.42     1299.007     66.31096     157.0071        24     1.951     1.016  32.09   3
        92    823.0722    790.5379 307.5687134  +6.3463716     837.5735     1572.841     2246.286     94.45065     188.1549     376.2725      1.935     5.02     1295.127     66.31096     118.7822         7     0.982     0.727 -87.45   0
        93    629.4379    785.5872 307.6496138  +6.3419121     917.5558     2386.971     3593.066     93.85285     187.9305     375.8609      3.310    10.06     1298.867     66.31096     126.2223        16     2.447     1.153  87.34   2
        94    950.1826    788.4126 307.5157854  +6.3515161     562.9526     871.4655      1189.09     94.00266     187.7807     376.0854      1.351     3.44     1292.509     66.31096     83.99146         5     0.759     0.451  18.92   0
        95    911.3812    784.9473 307.5320795  +6.3516484     1212.996      2592.75     3903.715      93.7028     188.2297     375.9732      2.269     6.01     1293.391     66.31096      160.417        12     1.884     0.538  76.13   3
        96    913.9763    783.6202 307.5310417  +6.3522846      1355.63     2578.171     3991.537     94.00266     187.9305     376.1229      2.717     7.76     1293.278     66.31096      181.808        16     1.432     1.177  -6.23   2
        97    371.2899    780.1839 307.7574259  +6.3354520     1133.822     2992.614     3468.737     94.00266     187.8556     376.0106      2.626     8.90     1303.589     66.31096     162.4888        22     1.914     1.154  10.23   0
        98    505.8230    772.1723 307.7016031  +6.3433011     1014.789      2542.28     3696.431      93.7028     188.0053     376.0106      2.758     7.72     1301.057     66.31096     126.0524        12     2.308     0.721 -86.46   2
        99    508.6897    770.3793 307.7004680  +6.3441394     1031.525     1817.824     3311.087     94.15223     187.8556     376.0106      2.896     5.69     1300.844     66.31096     142.6578         9     1.161     0.784  72.28   3
       100    552.7994    768.7743 307.6821306  +6.3462889      1574.81     3014.272     3655.703     93.85285     187.7807     375.9732      1.972     6.70     1300.101     66.31096      195.655        18     1.725     0.815  34.46   3
       101    554.4895    765.6312 307.6815312  +6.3476462     2210.971     5354.431     7434.363     94.45065     187.9305     376.1229      2.873     9.15     1299.777     66.31096     260.0676        42     2.394     1.482  25.65   3
       102    524.4351    760.6742 307.6942283  +6.3486850     6027.429      22666.6     29472.05     94.15223     188.2297     376.1603      3.031     8.82     1299.814     66.31096     865.3479        83     2.293     2.131  64.11   0
       103    937.7250    758.3945 307.5219812  +6.3635180     1765.066     4955.585     5360.503     93.85285     187.5557     376.0854      2.619     7.39     1291.228     66.31096     224.7858        41     1.898     1.696  84.75   0
       104    319.0102    748.8289 307.7802754  +6.3466606     1160.198     2558.543     3924.656      93.7028     187.9305     376.0106      3.117     9.04     1302.958     66.31096     163.9373        20     2.418     0.943  31.65   2
       105    314.0152    750.3394 307.7823072  +6.3458672     685.7263     1458.577     2631.143      93.7028     188.0801     375.8983      3.560     4.61     1303.019     66.31096     103.8774         5     1.170     0.516  27.80   3
       106     36.8586    750.6604 307.8978499  +6.3363683     648.4397     1129.962     2226.587     94.30155     188.0801     376.2351      1.331     2.12     1301.001     66.31096     159.6545         5     0.730     0.415  22.38   0
       107    782.4991    744.9860 307.5871525  +6.3638555     21040.19      67457.8     82096.03     94.15222     187.8556     375.8983      2.786     7.11     1293.298     66.31096     2127.546        98     2.222     2.031  81.94   0
       108     19.2371    747.8884 307.9052899  +6.3369188     733.5765     1628.908      2169.53     94.30155     188.0053     376.1977      2.305     3.84     1300.917     66.31096     154.0659         5     0.825     0.512  44.05   0
       109    238.3163    723.8600 307.8147583  +6.3542666     615588.2      1393498      1589396     94.45065     188.2297     376.2351      2.341     9.60     1301.287     66.31096     61916.35       207     2.503     1.357  38.26   7
       110    240.5422    720.5059 307.8139429  +6.3557295     712088.6      1767550      2160051     94.15223     188.1549      376.422      2.614    13.96     1301.027     66.31096     63788.03       351     2.871     1.887  49.39   7
       111    907.6418    740.0854 307.5351359  +6.3700841     3808.443     10974.03     14367.24     94.30155     188.0053     376.1977      2.837     8.98     1291.047     66.31096     380.1802        66     2.641     1.712  78.99   3
       112    903.4368    731.2208 307.5371852  +6.3736106     3244.979     6575.343     7223.834     93.85285     187.8556     375.8983      1.987     6.79     1290.757     66.31096     336.6046        29     1.850     1.023  85.73   3
       113    906.5055    730.4894 307.5359300  +6.3740162     2111.871     3162.125       4102.5     94.30156     188.6777     376.2725      1.745     3.36     1290.586     66.31096     285.7196        11     1.037     0.712  67.83   3
       114    705.7079    736.8372 307.6194440  +6.3646464     28490.47     99416.89       155137     94.45065     188.0801     376.2351      3.484    10.74     1293.919     66.31096     3448.011       184     3.561     2.274  31.85   0
       115    348.1543    739.3174 307.7684434  +6.3515791     5281.346      10668.4     12240.75     94.30155     188.1549     376.1977      2.145     6.74     1302.493     66.31096     547.0588        36     2.249     1.046  31.77   3
       116    350.1925    735.9195 307.7677076  +6.3530537      6694.93      17681.3     21255.28     93.85285     187.6307     376.0106      2.577     8.44     1302.315     66.31096     865.2162        54     2.387     1.331  30.66   3
       117    409.9632    737.1585 307.7427451  +6.3545568     6015.163     12740.29      15040.5     94.00266     188.1549      376.048      2.218     6.34     1300.309     66.31096     642.3203        34     2.061     0.992  36.52   3
       118    412.4236    734.0295 307.7418241  +6.3559344     7701.341     18393.46     23567.87      93.7028     188.0053     376.0106      2.563     7.51      1300.02     66.31096     946.8977        58     2.518     1.338  33.68   3
       119    643.9443    733.4465 307.6453104  +6.3639724     1816.647     3836.346     5107.333     94.30155     188.1549     376.2725      2.239     7.91     1294.792     66.31096     216.6581        22     1.659     1.105  50.10   3
       120    647.5953    730.3172 307.6438928  +6.3653898     1837.304     3147.626     3943.004     93.70281     187.7057     375.8983      1.919     5.77     1294.452     66.31096      299.201        19     1.860     0.792  73.29   3
       121    644.3535    728.6548 307.6453002  +6.3659685     2005.318     3471.525     4537.442     94.30155     188.1549     376.2351      2.018     6.51      1294.53     66.31096     234.8308        14     1.425     0.925  55.34   3
       122    948.4214    733.4823 307.5183523  +6.3741839      1054.18     2644.829     2944.886     94.00266     187.7807     376.0854      2.479     8.03     1289.779     66.31096     155.0076        17     1.547     1.166   7.83   0
       123    680.5895    720.0875 307.6304777  +6.3707318     816.8403     2568.871     3007.187     93.85285     187.8556     376.0106      2.932    10.26     1292.985     66.31096     129.8887        14     1.833     1.600 -22.13   0
       124    414.3036    717.7823 307.7415853  +6.3627197     15176.83     59133.41     80241.48     94.15223     187.9305     375.9732      3.144     8.41     1298.818     66.31096     2111.346       113     2.422     2.282  84.40   0
       125    532.0178    716.6570 307.6925414  +6.3671516     2086.634     8168.212      10490.7      93.7028     188.0801     375.8983      3.085     8.39     1296.067     66.31096     328.2566        65     2.215     2.061 -22.80   0
       126    447.6537    717.6759 307.7276834  +6.3638879     1366.268     2484.283     3310.347     94.30155     188.1549     376.2351      2.168     7.69     1297.932     66.31096      166.576        19     1.697     0.976  26.83   3
       127    451.2955    714.4290 307.7262738  +6.3653539     1530.572     2522.703      4460.52     94.45065     187.8556     376.1603      3.036     5.59     1297.569     66.31096     230.5223        16     1.725     0.748  76.21   3
       128    447.6421    713.1301 307.7278407  +6.3657682     1535.452      3724.19     7485.081     94.15222     188.1549     376.2725      4.421     7.09     1297.577     66.31096     169.9092        25     1.578     1.237  55.58   3
       129    144.6181    706.3635 307.8544128  +6.3583393      1150.39     3006.868     3733.256     93.70281     187.9305     375.9358      2.691    11.39     1298.743     66.31096     189.6559        24     2.290     1.579  80.65   3
       130    133.9762    707.8307 307.8588005  +6.3573725     2761.308     5733.011     6319.821      93.7028     188.0053     375.9732      2.277     6.96     1298.807     66.31096     284.3625        26     1.948     1.026  31.10   3
       131    136.2137    704.8266 307.8579686  +6.3586910     4441.091     11053.48     17857.24     94.00266     187.9305     376.1229      4.116    14.17     1298.557     66.31096     661.0042        92     4.868     1.652  22.45   3
       132    777.1357    713.0162 307.5904573  +6.3769024     4375.595     14164.57     16941.69      93.7028     188.0053      376.048      2.788     7.40     1291.428     66.31096     467.9777        66     2.124     1.918 -80.88   0
       133    921.4030    701.5757 307.5306832  +6.3864787     3040.673     6500.775     8162.531     93.85285     187.7807     375.9732      2.442     7.56     1289.025     66.31096     338.8994        30     1.936     1.048  75.21   3
       134    924.4706    700.9771 307.5294240  +6.3868293     1902.615     3461.537     4753.604     93.85285     188.0053     376.1603      2.024     6.31     1288.939     66.31096     256.0598        16     1.607     0.720  70.10   3
       135    677.2550    701.4766 307.6324907  +6.3783197     690.0729      1575.03     2240.411     94.30155     188.1549     376.1977      2.069     3.82     1291.997     66.31096     89.48572         5     1.493     0.280  78.20   2
       136    680.6463    699.2357 307.6311516  +6.3793608     550.3239      1239.88     1979.028     93.85285     188.1549     376.0854      2.311     3.09     1291.832     66.31096     100.9952         5     0.734     0.450 -73.77   0
       137    566.8952    697.7734 307.6786314  +6.3761386     915.4768     1914.974     2941.091     94.45065     187.8556      376.048      2.360     4.87     1294.184     66.31096     108.0852         9     1.198     0.561  45.82   2
       138    948.3332    693.0280 307.5197389  +6.3909185     965.6929     1933.127     2064.782     94.00266     188.0801     376.1603      2.067     7.23      1288.49     66.31096     133.5649        14     1.897     0.772  80.78   3
       139    945.1325    693.3361 307.5210633  +6.3906836     1242.639     2326.741     2550.676     94.30155     188.1549     376.2725      2.034     8.19     1288.503     66.31096     154.2213        23     1.852     1.012  81.57   3
       140    915.6645    695.4555 307.5332803  +6.3888183     1110.442     2055.513     3114.728     94.45065     188.0801     376.1977      2.438     6.68     1288.802     66.31096        159.5        14     1.522     0.904  37.71   3
       141    916.0710    692.3384 307.5332148  +6.3901217     1063.172     2286.037     3381.105     94.45065     188.1549     376.2725      3.629     7.83     1288.672     66.31096      151.324        14     1.976     0.869  29.86   3
       142    978.2104    692.3643 307.5073026  +6.3921949     790.9501     2210.814     2593.368     93.70281     187.9305     375.9358      2.916     7.20     1288.334     66.31096     95.88525         9     1.333     1.089  12.56   2
       143    244.8087    688.2069 307.8132493  +6.3692363     556.7817      1340.71     3298.688     93.55252     187.9305     376.0106      3.875     4.59     1298.163     66.31096     96.77539         5     1.292     0.464  61.44   0
       144    960.5938    680.4438 307.5150462  +6.3965362      1048.06     2857.776     3933.585     93.70281     187.8556     375.8235      2.724     9.39     1288.051     66.31096     124.3499        21     1.851     1.328 -74.80   0
       145    678.8106    681.9920 307.6324940  +6.3864334     649.5474     1384.492     1968.776     93.55252     187.9305     376.1229      2.799     5.46      1290.94     66.31096      116.504         7     1.160     0.725  51.11   0
       146   1002.2647    674.4653 307.4978692  +6.4004068     904.2827     1860.415     2023.241     94.30155     188.1549     376.1603      2.499     5.89     1287.866     66.31096     117.2422         9     1.257     0.778  89.84   0
       147     47.2833    663.0405 307.8964535  +6.3729706      903.021     2455.567     3793.325     94.30155     188.1549     376.1229      3.270     9.26     1294.788     66.31096     146.3251        15     1.792     1.335 -75.38   2
       148    848.2760    660.6087 307.5625441  +6.4009743     696.4853     1671.292     2004.465     93.85285     187.5557     375.9732      2.531     6.67     1287.213     66.31096     98.74146         8     1.355     0.920  18.17   0
       149    657.9299    649.4031 307.6422914  +6.3992143     2108.917     5517.345     6860.366      93.7028     187.7057     376.0106      2.585     8.90     1289.146     66.31096     215.9277        39     2.125     1.338  78.73   3
       150    661.4474    648.6670 307.6408492  +6.3996371     1751.582     3325.052     3607.416     94.30155     188.0801     376.2351      1.934     5.82     1289.129     66.31096     233.2587        19     1.830     0.762  83.15   3
       151    122.6919    645.2268 307.8656115  +6.3828912     1101.454     3701.081     4236.646     94.45065     187.8556     376.0106      2.907    11.68      1294.25     66.31096     178.0746        34     2.199     1.772  36.89   0
       152    995.9031    644.2008 307.5015313  +6.4127152     1211.769     2981.283     3471.789      93.7028     187.7057      375.786      2.449     8.66     1285.697     66.31096     130.7957        25     1.687     1.313 -52.58   0
       153    774.3258    642.6541 307.5939809  +6.4059193     6569.227     12686.32     14462.48     94.15223     188.1549     376.1603      2.077     6.14     1287.166     66.31096     730.2357        32     2.008     0.978  40.70   3
       154    776.5712    640.0242 307.5931324  +6.4070828     6949.585     18104.99     20658.94      93.7028     188.0053     376.0106      2.530     7.78     1286.963     66.31096      769.269        50     2.263     1.333  33.16   3
       155    633.6533    643.8537 307.6526002  +6.4006936     765.9748     1963.102     2993.902      94.5995     188.0053     376.1977      2.667     7.23     1288.935     66.31096     131.2963        10     1.768     0.828  37.86   0
       156    904.6583    640.9038 307.5396907  +6.4110192     1506.171      3590.52     4627.551     94.15222     188.1549     376.3846      2.693     9.06     1285.257     66.31096     171.4692        26     2.110     1.086  83.04   2
       157    908.0245    640.3177 307.5383066  +6.4113746     1214.184     2000.269     2488.174     94.00266     187.8556     376.1229      1.822     5.87     1285.175     66.31096     183.3948        12     1.379     0.702  80.47   3
       158    248.8077    637.9827 307.8132695  +6.3901502     1593.627     3288.328     4965.918     93.85285     187.8556     376.0106      2.275     7.06     1294.625     66.31096     191.7258        19     1.864     0.752  33.30   3
       159    251.2870    634.4846 307.8123533  +6.3916812     2272.148      5245.97     7775.288     94.00266     188.3792     376.2725      2.937     8.27      1294.38     66.31096     308.1852        44     2.313     1.482  42.08   2
       160    655.0633    635.0615 307.6439667  +6.4050514     2134.887     5229.219     6551.884     94.30155     188.1549     376.2351      2.561    10.17      1288.23     66.31096     229.5929        39     2.245     1.338  79.42   3
       161    658.6963    633.2169 307.6425135  +6.4059368     2062.824     3599.854     4160.729     94.15223     187.9305     376.0106      1.899     5.19     1288.083     66.31096     288.9086        20     1.708     0.834  69.29   3
       162    728.0071    622.4817 307.6139702  +6.4127088     1320.846     4396.098      6087.82     93.85285     187.7057     376.0106      3.055    11.44     1286.529     66.31096     161.8901        41     2.055     1.772 -87.45   0
       163    994.4672    618.7826 307.5029779  +6.4231836     3923.392     11362.96     12764.79     93.70281     188.0801     376.0854      2.615     6.98     1283.834     66.31096     430.9395        58     2.048     1.785  85.11   0
       164    932.6689    619.0278 307.5287403  +6.4210099     1137.715     2946.783     3331.318     94.00266     188.0801     376.0854      2.444     8.75      1283.49     66.31096     163.3064        18     1.568     1.364 -24.19   0
       165     16.3261    619.4570 307.9108288  +6.3899539     660.1586      1218.32     2843.996     94.30156     188.0801     376.1603      2.764     4.80     1294.041     66.31096      92.8468         6     0.975     0.670  67.55   0
       166     72.2869    614.4166 307.8876652  +6.3939330     7126.098     28709.12     38903.53     93.85285     187.8556     376.0854      3.122     8.50     1293.151     66.31096      1172.43        97     2.486     2.191  70.77   0
       167    531.3834    615.5134 307.6961950  +6.4089763     771.2545     1734.155     1936.429     93.85285     187.8556     376.1229      2.346     5.30     1291.259     66.31096     87.42468         8     1.290     0.614  57.98   0
       168    716.5518    607.5634 307.6192460  +6.4184960     1036.267     1871.668     2709.924     94.00266     188.0801     376.0854      2.054     7.63     1285.899     66.31096      114.281        16     1.702     0.957  42.82   3
       169    719.9929    605.1260 307.6178926  +6.4196201     1276.398     2872.992     3464.585     93.85285     187.6307      376.048      2.481     7.31     1285.662     66.31096     162.6997        22     1.863     1.101  39.19   3
       170    741.0842    603.8233 307.6091410  +6.4208680     1360.112     3596.108      4491.95     94.15222     187.8556     376.0854      2.574     9.49     1285.339     66.31096      185.041        25     2.362     1.064  37.91   3
       171    738.6802    605.8275 307.6100764  +6.4199580     1243.501     2617.689      2997.77     94.15222     187.9305     376.2351      2.007     7.28     1285.503     66.31096      134.191        16     1.837     0.808  45.35   3
       172    569.9954    604.3813 307.6804669  +6.4148822     1015.053     2690.788     5549.018     93.85285     187.7057     375.9732      4.001    10.01      1288.66     66.31096     161.9529        20     2.160     1.293  34.19   2
       173   1011.7374    599.9667 307.4964034  +6.4315474     2267.262     5033.091     5884.426     94.15222     188.2297     376.1229      2.275     8.25     1282.554     66.31096     231.0297        32     1.956     1.206  80.68  19
       174   1015.0000    599.9866 307.4950422  +6.4316485     1427.906     2168.562     2946.425      93.7028     187.7057     375.9358      1.613     5.56     1282.574     66.31096     206.2992        11     1.611     0.542  85.56  19
       175    977.9620    599.0421 307.5105193  +6.4307977     3690.189     10206.12     12399.26     94.00266     188.1549      376.048      2.648     6.38     1282.247     66.31096     430.1693        60     2.048     1.819  87.60   0
       176    234.8696    601.0324 307.8203231  +6.4049665     680.2028     1015.071     1566.059     94.15222     188.1549     376.2351      1.733     3.89      1291.91     66.31096     108.7388         5     0.853     0.508 -27.09   0
       177    135.3846    595.0088 307.8620086  +6.4040964     5972.877     14553.23     16292.88     94.00266     187.8556      376.048      2.447     8.76     1291.661     66.31096     569.4834        38     2.310     1.185  36.48   3
       178    138.2348    592.1494 307.8609163  +6.4053758      7842.04     18484.87     23229.24     94.15222     188.1549     376.0854      2.540     8.48     1291.464     66.31096     1031.984        58     2.630     1.312  36.76   3
       179    426.0000    592.1251 307.7409234  +6.4151017     829.0844     2017.875     4085.229     93.40199     187.4056     375.9358      3.767     8.66     1290.414     66.31096     130.6011        12     2.406     0.870 -83.36   2
       180    803.1968    592.2773 307.5836253  +6.4277318     598.7124     1223.729     2220.715      93.7028     187.5557     375.9732      2.629     4.28      1283.18     66.31096     125.3081         5     1.248     0.421 -61.72   0
       181    971.7780    582.4045 307.5136533  +6.4374740     2853.442     6433.702      8715.42     93.85285     187.8556     375.9358      2.578     8.52      1280.95     66.31096     313.8988        36     2.363     1.204  68.17   3
       182    974.4880    581.4977 307.5125533  +6.4379400     2494.132     5130.547     6589.751     94.30156     188.6777     376.2351      2.465     4.74     1280.891     66.31096     271.0463        20     1.504     1.089  63.16   3
       183    565.2542    579.6933 307.6832710  +6.4249367      13421.9     29597.17     34378.04     94.15223     188.0801     376.4594      2.293     7.11     1286.833     66.31096     1381.507        46     2.307     1.057  43.71   3
       184    567.8271    576.3723 307.6823094  +6.4263973     14355.87     38093.67     46626.82      93.7028     187.9305     376.0106      2.663     8.76     1286.304     66.31096     1796.492        71     2.500     1.482  38.25   3
       185   1023.6250    577.1006 307.4922086  +6.4414064     801.7952     1318.068      1692.28     82.69485      150.232     283.6001      2.147     5.69      1280.96     66.31096     148.4062         9     1.509     0.605 -82.42  24
       186    174.4300    578.1398 307.8462949  +6.4123954     842.1867     1903.402     3501.726     94.00266     188.1549     376.1603      2.634     3.40     1290.365     66.31096     121.8109         5     0.749     0.448  69.38   1
       187    175.8645    573.5984 307.8458495  +6.4143227     977.7023     2527.107     4060.704     93.55252     187.8556     375.9358      3.129     8.05     1290.054     66.31096     153.0894        14     1.523     1.188  39.60   2
       188    462.0116    563.5098 307.7268663  +6.4281545     16019.47      33148.4     37926.49     94.00266     187.7807     375.9732      2.222     7.81     1287.204     66.31096     1702.043        49     2.218     1.129  45.42   3
       189    466.1972    560.6822 307.7252157  +6.4294654     19117.35     44140.55     60618.05     93.55252     187.7057     375.8235      2.800    10.89     1286.842     66.31096       2209.5        79     2.886     1.577  38.00   3
       190    735.3630    546.0303 307.6134596  +6.4445866     1733.113     5378.499     7697.914     93.85285     187.8556     376.0106      3.125    10.20     1281.691     66.31096     215.5309        45     2.343     1.812  85.78   2
       191    789.4524    540.1857 307.5910981  +6.4488223     4408.975     16002.09     21049.95     93.55252     188.0801     375.8983      3.016     7.97     1279.243     66.31096     527.6327        85     2.326     2.162  89.90   0
       192    611.0506    539.5778 307.6655169  +6.4430753     735.5521      2259.32     3360.374      93.7028     188.2297      376.048      2.025     4.77     1281.431     66.31096     102.6007         7     2.049     0.315  62.88   2
       193    615.7802    538.3859 307.6635844  +6.4437276     839.0442     2311.229     3886.997     94.00266     187.8556     376.0854      3.081     7.37     1281.333     66.31096     120.0994        10     1.946     0.782 -89.01   2
       194   1006.6684    539.4022 307.5005373  +6.4564354     721.7045     1229.346     910.1254     93.55252     187.6307     375.9732      1.689     5.61     1277.953     66.31096     95.10913         6     1.020     0.870  35.19   0
       195    863.9011    524.8975 307.5605612  +6.4576476     1002.403     2231.474     3538.925     94.30155     188.6777     376.0106      3.083     6.27     1276.556     66.31096     146.1237        13     1.192     0.927  28.33   2
       196    823.0156    519.2156 307.5778020  +6.4586256     769.5635     2263.148     3514.903     94.00266     187.7807     376.1229      3.549     8.16     1277.346     66.31096     130.9202        12     2.080     0.894  13.83   2
       197    803.4506    512.0875 307.5861996  +6.4609177     52773.91     128452.1     160162.9     94.30155     188.0053     376.3473      2.605     8.81     1277.657     66.31096     5432.986       111     2.667     1.669  79.74   3
       198    807.1659    511.0249 307.5846856  +6.4614821     45644.29     90002.91       103000      93.7028     187.9305     375.9358      2.141     6.25     1277.487     66.31096     5288.874        60     2.122     1.135  71.93   3
       199    251.1701    518.7113 307.8162927  +6.4395750     2058.636     4121.293     4681.271     94.45065     187.8556     376.1229      2.095     7.75     1284.931     66.31096      242.243        26     2.076     0.865  45.31   3
       200    254.7881    515.4777 307.8148926  +6.4410350     2550.274     5520.407     7532.085     93.85285     187.7057      376.048      2.636    10.93      1284.58     66.31096     338.3142        47     2.927     1.473  33.29   2
       201    185.4751    513.2308 307.8438722  +6.4396227     14569.87     33933.18     39035.95     94.15223     188.2297     376.1977      2.375     7.63     1286.336     66.31096     1400.191        50     2.297     1.154  34.45   3
       202    188.0719    509.6656 307.8429092  +6.4411855     18005.08     44763.54     58460.55     94.30155     188.2297     376.2725      2.713     8.65     1286.117     66.31096     2293.123        75     2.726     1.455  35.43   3
       203    110.8173    507.3568 307.8752023  +6.4395286     1479.326     6582.114     9181.935      93.7028     188.0053     375.9358      3.263     9.72     1287.475     66.31096     279.4904        66     2.457     2.140  51.33   0
       204    840.1981    499.9728 307.5712791  +6.4671641     1518.397     3754.062     5288.151      93.7028     187.8556     375.9732      2.971    11.39      1275.79     66.31096     204.4646        32     2.533     1.426  84.47   2
       205    842.9709    498.0246 307.5701878  +6.4680632     1297.915     2157.554     3220.859      93.7028     188.0053     376.0106      2.008     5.14     1275.562     66.31096     159.6898        11     1.215     0.662  67.77   3
       206    358.3235    500.0000 307.7722367  +6.4509335     4411.595     9781.183     11991.84     93.40199     187.4056     375.9358      2.334     8.69     1281.759     66.31096     497.6914        36     2.291     1.084  34.79   3
       207    361.2621    496.4718 307.7711297  +6.4524924     4934.658     12813.02     16603.03     94.45065     188.1549     376.2725      2.764     8.55     1281.383     66.31096     587.4664        59     2.567     1.451  33.72   3
       208    793.8129    492.6489 307.5908687  +6.4686364     1983.234     5044.635      7711.77     93.55252     188.0801     375.8609      3.072    10.07     1277.087     66.31096     258.8713        48     2.580     1.602  73.44   2
       209    797.6376    492.2964 307.5892854  +6.4689107     1687.666     2965.126     3330.397     94.30155     188.0053     376.3846      1.973     4.29     1277.001     66.31096     201.0009        12     1.168     0.771  67.58   3
       210    528.7596    492.0400 307.7014272  +6.4599725     1785.186     4033.974      5447.47     94.00266     188.3044      376.048      2.639    11.52      1280.57     66.31096     227.7325        36     2.486     1.486  49.58   3
       211    526.2451    495.3060 307.7023664  +6.4585366      1237.98     2166.294     2818.928     94.15223     188.0801     376.3473      1.960     5.44     1280.821     66.31096     176.0292        10     1.671     0.499  71.44   3
       212    523.7708    493.7206 307.7034514  +6.4591091     1548.374     3297.994     4279.901     94.15223     188.1549     376.1603      2.721     8.09     1280.753     66.31096     175.4272        23     2.180     0.840  81.94   3
       213    172.6392    488.6865 307.8500504  +6.4493433     1597.033     3580.949     4932.412     94.30155     188.0801     376.1977      2.258     7.71     1285.644     66.31096      186.856        24     2.016     0.914  31.20   3
       214    174.3211    484.9833 307.8494735  +6.4509322     1983.098     5196.358     6980.462     93.85285     187.8556     376.0854      2.636     9.52     1285.441     66.31096     284.7969        39     2.402     1.267  31.24   3
       215    570.6811    484.9227 307.6841829  +6.4643288     708.6411     2119.491     3060.015      94.5995     188.4538     376.3473      2.975     5.31       1279.7     66.31096     115.6489         5     1.625     0.490  88.71   2
       216     45.6482    484.7240 307.9031400  +6.4466871     1526.699     5199.588     7367.804     94.15223     188.2297     376.1977      3.158     9.50     1287.316     66.31096      196.437        52     2.547     1.820  83.09   0
       217    267.3416    484.7898 307.8106889  +6.4541552        20765     46725.51     52031.55     93.55252     188.0053     375.8609      2.287     7.72      1282.12     66.31096     2084.338        53     2.255     1.162  35.48   3
       218    270.0851    481.3690 307.8096598  +6.4556631     25921.27     66819.84     89037.84     94.30155     187.9305      376.048      2.815     8.64     1281.702     66.31096      3295.62        86     2.807     1.510  35.80   3
       219    790.1476    474.9005 307.5929906  +6.4758564     5216.887     12443.04     15673.12     94.30155     188.1549     376.4594      2.549     8.31     1276.178     66.31096     585.3099        51     2.570     1.293  75.60   3
       220    793.5568    473.5446 307.5916141  +6.4765319     4909.997     9422.162     11861.72     94.30156     188.1549     376.1977      2.153     6.45     1276.087     66.31096     596.0524        33     2.037     1.055  71.60   3
       221    494.0732    475.2055 307.7164570  +6.4657688     11143.55     26108.56     31502.52     93.85285     187.6307     376.0854      2.444     7.04     1279.385     66.31096      1134.15        56     2.312     1.251  31.02   3
       222    496.6145    471.5599 307.7155194  +6.4673628     12057.52     31540.66     41727.69     93.85285     187.9305     375.9358      2.767     8.93     1279.111     66.31096     1271.034        76     2.820     1.438  30.28   3
       223    657.2120    467.1272 307.6486916  +6.4746035     1009.363     2224.533     4415.902      93.7028     187.7057     375.9732      3.440     6.29     1276.484     66.31096     160.8375        13     1.495     0.863  77.52   2
       224    322.3400    462.7005 307.7884953  +6.4651508     937.6678     2651.601     3416.048     94.00266     188.0801     376.3473      2.735     8.36      1279.16     66.31096     150.3671        16     2.464     0.792 -81.65   2
       225    326.6586    461.5022 307.7867346  +6.4657924     1291.916     2876.702     4297.268     94.00266     188.0801     376.3473      2.768     8.07     1279.009     66.31096     170.3368        20     2.052     0.887  75.68   2
       226    139.8612    460.9544 307.8646523  +6.4597082     5689.292     26073.29     38250.76     94.15222     188.0053     376.2725      3.353     9.32     1284.874     66.31096     981.0854       103     2.613     2.330  71.47   0
       227    106.8815    458.1001 307.8785014  +6.4597737     956.0672     2175.021     3950.207     94.30155     188.7523     376.3099      3.103     4.50     1285.898     66.31096     128.0328         8     0.873     0.659  52.82   2
       228    964.9260    454.8003 307.5207689  +6.4900390         2037     6303.215     7336.207     93.40199     187.4056     375.9358      2.709     8.52     1270.673     66.31096     258.4271        46     1.985     1.746  81.60   0
       229      3.0292    447.6012 307.9221630  +6.4606024     6406.534      14209.4     15523.51      93.7028     175.6227     313.9304      2.190     8.28     1285.986     66.31096     634.4976        30     1.953     1.070  32.89  27
       230      5.6625    444.2848 307.9211766  +6.4620636     8760.015     19863.56      25314.2     94.45065     188.2297     353.0434      2.621     8.16     1285.852     66.31096     1227.812        56     2.587     1.378  38.60  19
       231    435.2942    443.9171 307.7420197  +6.4767325     10910.62     24862.65     29129.08     94.00266     188.5285     376.3473      2.382     7.24      1277.13     66.31096      1098.06        51     2.297     1.202  36.29   3
       232    438.1836    440.7158 307.7409221  +6.4781543     11702.64     30438.56     39995.38     93.85285     187.7807     376.0854      2.780    10.07     1276.874     66.31096     1339.019        69     2.764     1.448  34.10   3
       233    643.0543    442.8377 307.6554094  +6.4841766     3312.833     7107.266     8724.794     94.30155     188.2297     376.2351      2.372     7.88     1275.059     66.31096     355.7513        37     2.307     1.082  49.81   3
       234    646.1822    440.0095 307.6541995  +6.4854519     3316.915     8524.216     11063.74     94.00266     187.8556      376.048      2.691     9.62     1274.783     66.31096     415.3816        42     2.416     1.286  41.77   3
       235    201.2874    442.0283 307.8396727  +6.4696148     5102.173     11676.21     14258.39     94.45065     187.8556      376.048      2.358     7.68     1281.412     66.31096     492.2616        34     2.363     1.012  34.42   3
       236    203.8506    438.5631 307.8387203  +6.4711351     6065.208     14624.51     20515.36     94.00266     188.0801      376.048      2.862     9.44     1281.087     66.31096     649.1196        70     2.797     1.875  33.98   3
       237    568.6368    436.3264 307.6866637  +6.4843657     881.1169     2062.146      3917.52     94.15223     188.2297     376.2351      3.902     5.68     1275.477     66.31096     137.7855         9     1.139     0.798  -8.36   2
       238    938.8327    434.9206 307.5323151  +6.4973888     1916.788      4514.65     5407.679     94.15222     188.1549     376.1977      2.478     8.49     1269.657     66.31096     275.0541        33     2.238     1.164  89.63   2
       239    942.4338    434.8700 307.5308149  +6.4975305     1312.389     2112.506     3003.688     94.15222     188.1549     376.2725      1.916     5.71     1269.562     66.31096     192.5842        13     1.349     0.774  84.22   3
       240    612.0956    435.6137 307.6685628  +6.4861236     1633.195     3412.507     4253.532     94.00266     187.8556     375.9358      2.154     7.70     1274.939     66.31096      235.707        21     1.907     0.878  34.39   3
       241    614.9953    432.7187 307.6674504  +6.4874189     1890.925     4704.715     6209.405     93.85285     187.6307     375.8983      2.683    10.36     1274.626     66.31096      234.351        44     2.552     1.452  29.40   3
       242    961.6371    427.5577 307.5230497  +6.5012000     1365.799      3143.38      4077.95     94.00266     188.1549      376.048      2.473     9.41     1268.304     66.31096     167.6993        27     2.138     1.283 -88.66   3
       243    965.3504    427.3737 307.5215072  +6.5014007     1069.904     1588.242     1796.892     93.85285     188.2297     376.0854      1.545     5.81     1268.108     66.31096     155.3237        11     1.351     0.704  70.76   3
       244    523.6678    426.4796 307.7057483  +6.4869251     1958.311     4105.111     4378.132     94.45065     188.4538     376.1977      2.109     8.81     1275.019     66.31096     225.2495        29     2.039     1.062  66.05   3
       245    527.6526    424.1346 307.7041650  +6.4880295     2123.325     4803.008     7401.815     94.30155     188.0801     376.1603      2.756    11.77     1274.829     66.31096     224.1356        42     2.686     1.436  46.47   3
       246    370.8244    428.1498 307.7694357  +6.4810814     689.6684     1351.808     2394.564     93.85285     188.1549     376.0854      2.284     4.61     1276.096     66.31096      108.335         6     1.405     0.429  25.21   0
       247    374.8345    424.4881 307.7678863  +6.4827316     746.0794     1581.821     2235.478     94.30155     188.0801     376.1977      2.213     4.92     1275.803     66.31096     95.95276         5     1.070     0.641  67.42   0
       248    884.2486    422.9301 307.5554811  +6.5005182     558.5904     936.1605     2534.817     94.30155     188.0801     376.2351      4.758     4.81     1270.423     66.31096     119.2017         5     1.360     0.482  72.32   3
       249    884.1703    419.1858 307.5556389  +6.5020647     792.9531     2126.127     4786.677     93.85285     187.8556     376.1229      3.607     4.20     1270.212     66.31096     92.63977         7     0.929     0.543  45.51   3
       250    880.5762    421.8645 307.5570484  +6.5008358     956.7839      2177.99     3105.035     93.85285     188.1549     376.0854      2.614     4.73      1270.46     66.31096     134.2992         7     1.299     0.489  45.42   0
       251    927.5528    414.8834 307.5376887  +6.5053005     598.7123     1023.745     803.4455     94.30155     188.1549     376.1977      1.801     4.63     1268.543     66.31096     97.91528         5     1.160     0.525 -33.83   0
       252    890.2356    414.5429 307.5532642  +6.5041892     673.2354     1951.561     2756.074     94.15223     188.1549     376.2351      4.040     6.38     1269.767     66.31096     112.1497         8     1.905     0.600 -14.79   0
       253    711.4562    407.3111 307.6280705  +6.5011757      573.198     831.3736     2287.524     94.30155     188.0053     376.3473      1.713     4.18     1271.506     66.31096      116.335         5     1.012     0.492 -88.98   3
       254    712.2726    412.3690 307.6275607  +6.4991105     966.3402     2614.832     3757.171     94.15223     188.1549     376.1977      3.107     7.95     1271.998     66.31096     114.5651        16     1.685     1.049  88.48   2
       255    386.2229    408.2522 307.7636818  +6.4898330     1009.491     2501.074     4795.727      93.7028     188.1549      376.048      4.698    11.22     1274.625     66.31096     142.7418        21     2.380     1.474  48.32   2
       256    610.2379    407.6844 307.6702731  +6.4976162     2718.246     5663.922      7837.27     94.30155     188.0801     376.1229      2.479     7.82     1272.388     66.31096     327.1732        32     2.230     1.035  38.59   3
       257    613.1010    404.4340 307.6691878  +6.4990574     2795.172     7747.167     10299.23     94.30155     188.0053     376.3846      2.796     9.08     1272.008     66.31096     294.7466        46     2.398     1.377  35.95   3
       258    773.3293    402.9067 307.6024121  +6.5050776     5286.232     12949.68     15714.28     94.30155     188.2297     376.1977      2.533     8.38     1270.773     66.31096     597.2805        49     2.489     1.247  74.34   3
       259    776.9354    401.3285 307.6009609  +6.5058517     4674.075     9982.763      12706.8     94.30155     188.1549     376.2725      2.415     6.31     1270.576     66.31096     504.9417        34     2.046     1.120  79.57   3
       260    297.5391    402.7729 307.8008515  +6.4891069     842.5168     1520.242     2636.393     93.85285     188.2297      376.048      3.179     4.57     1275.427     66.31096     117.1824         7     0.981     0.697  86.43   0
       261    292.2840    400.9082 307.8031058  +6.4897009     699.1884     1491.813     2517.336     94.00266     188.5285     376.3099      2.740     5.62     1275.389     66.31096     101.8184         7     1.023     0.868  86.02   0
       262    114.4720    393.8297 307.8774994  +6.4866200     1403.775     3218.694     5956.433     94.15222     188.1549     376.1603      2.959     6.23     1282.477     66.31096     189.0382        17     1.653     0.702  57.52   2
       263    110.5925    397.3952 307.8789973  +6.4850137      900.942     2574.802     3826.485     93.55252     187.8556     376.0106      2.990     4.24     1282.803     66.31096     120.1617         6     1.077     0.476  59.58   2
       264    959.3707    395.6155 307.5250612  +6.5143397     545.1069     1598.662     2141.544     93.85285     187.8556     376.1229      2.683     7.78     1265.967     66.31096     101.4568         9     1.798     0.942   8.41   0
       265   1014.0247    391.9346 307.5023885  +6.5176950     1797.951     5394.815     6701.866     93.85285     188.1549     376.0854      2.762     8.11     1263.587     66.31096     194.6066        46     1.984     1.853  56.38  16
       266    748.5673    394.2982 307.6130277  +6.5078071     846.0641     1607.791     2205.935     94.30155     188.0053     376.3473      2.367     6.08     1269.978     66.31096     112.1476         8     1.134     0.917  27.58   0
       267    346.4816    392.2820 307.7807923  +6.4950993     830.5079     1780.469     3058.823     94.30155     188.4538     376.3099      2.082     5.04     1273.843     66.31096     107.1234         8     1.052     0.682  50.03   0
       268    349.7206    387.9540 307.7795868  +6.4969992     933.4829     2631.583     4366.512     94.30155     188.1549     376.1977      3.208     9.39     1273.525     66.31096     117.5771        19     2.021     1.218  66.29   2
       269    711.6571    375.0424 307.6290665  +6.5145330     4266.637     10720.93     14521.02     94.15222     188.0801     376.2351      2.706     9.80     1268.286     66.31096     461.7544        53     2.603     1.360  78.10   3
       270    715.5126    372.9977 307.6275268  +6.5155086     4207.061     7888.896     10138.12     93.55252     187.7057     375.8609      2.137     6.73     1268.071     66.31096     463.2334        31     2.059     0.981  77.51   3
       271    814.6748    377.1955 307.5860273  +6.5171042     805.8305     1641.359     2204.981     93.85285     187.5557     376.0854      2.232     3.99     1268.192     66.31096     109.4958         7     0.868     0.595  58.71   0
       272    818.4288    375.7468 307.5845100  +6.5178297     588.7499     1168.229     1638.416     94.00266     188.3044     376.0854      2.144     4.11     1268.082     66.31096      110.421         5     0.990     0.489 -84.77   0
       273    605.0259    367.0521 307.6738079  +6.5142515     4402.177     10571.04     15568.87     93.85285     188.3044     376.0854      3.113    12.21     1268.756     66.31096      489.417        62     3.417     1.418  48.83   3
       274    608.2022    364.2744 307.6725762  +6.5155077     5008.049     11817.79     18228.74      93.7028     187.5557      376.048      3.108     8.11     1268.479     66.31096     572.0999        58     2.704     1.369  45.65   3
       275    636.8572    368.9704 307.6604674  +6.5145292     777.1902     1578.859     2193.711     93.85285     188.2297     376.0854      2.615     6.13     1268.431     66.31096     109.3358        10     1.266     0.835 -89.76   0
       276    937.3136    363.9621 307.5353177  +6.5266960     1555.088     3882.488     4808.975     94.30155     188.0801     376.1977      2.577     8.71     1264.507     66.31096     178.0953        28     2.061     1.027  81.92   2
       277    940.3763    363.1073 307.5340688  +6.5271524     1206.636     1838.714     2271.823     94.30155     187.9305     376.0106      1.753     4.23     1264.329     66.31096       170.98        11     1.156     0.709  85.33   3
       278    376.5913    362.5101 307.7692344  +6.5084326     7424.882      17782.5     21031.92     93.85285     187.7807     375.9358      2.474     7.38     1271.472     66.31096      722.707        51     2.303     1.260  37.71   3
       279    379.3980    359.0311 307.7681806  +6.5099666     7872.894     19519.48     25498.48     93.55252     187.9305     375.9732      2.740    10.04      1271.15     66.31096     944.2772        61     2.855     1.353  34.22   3
       280    126.1328    359.1149 307.8738048  +6.5013764     879.0646     1757.573     3211.865     94.45065     188.4538     376.2351      2.859     4.98     1280.133     66.31096     126.8666        10     1.216     0.612  70.81   0
       281    908.9703    353.5523 307.5474872  +6.5300519      1436.25     2699.818     3146.101     93.85285     188.2297     376.0854      2.083     6.43      1264.71     66.31096     176.6122        18     1.795     0.822  70.86   3
       282    905.7948    355.1408 307.5487587  +6.5292881     1848.694     3924.142     4899.368      93.7028     188.0053     375.9358      2.272     8.40      1264.88     66.31096     205.5516        28     2.129     0.995  72.43   3
       283    234.1751    353.2492 307.8289424  +6.5074556     3396.242     8348.445      10686.2     93.85285     188.2297     376.0854      2.638    10.98     1274.639     66.31096      356.829        43     2.517     1.335  55.91   3
       284    237.5198    350.3477 307.8276450  +6.5087690     4198.017     8835.276     11830.57     94.30156     188.1549     376.1977      2.648    10.19     1274.293     66.31096     538.5294        42     2.744     1.104  46.18   3
       285    134.1788    337.2777 307.8711842  +6.5106829     1141.508      2104.28     2535.246     93.85285     187.8556     376.1603      2.114     5.91     1279.226     66.31096     139.8488        14     1.161     0.999 -17.73   3
       286    133.9643    341.9965 307.8711148  +6.5087234     1279.315     2539.002     3283.788     93.25123     188.0053     375.9732      2.069     7.68     1279.338     66.31096      157.859        20     1.659     0.994  32.43   3
       287    137.8435    339.3430 307.8695862  +6.5099524     1498.667     2997.293     3932.452     94.15222     188.1549     376.2351      2.235     7.65     1279.111     66.31096     239.0688        20     2.219     0.739  85.37   3
       288    159.6586    337.0074 307.8605666  +6.5116564     675.0923       1920.4     3153.073     93.55252     188.0053     375.8983      2.847     6.67     1278.154     66.31096     152.0403        10     1.910     0.653  89.34   0
       289    383.6404    329.3826 307.7674067  +6.5223760     568.8207     1017.716     1812.064     93.85285     187.9305     375.9732      2.072     4.71     1268.855     66.31096     93.32239         5     1.225     0.683  44.80   0
       290     30.4180    327.3948 307.9147912  +6.5112604     915.5099     2344.039     3382.196     93.85285     187.7057     376.0106      2.814     8.12     1285.588     66.31096     133.1627        13     1.618     1.139  50.99   2
       291     32.1977    323.7970 307.9141701  +6.5128091      1024.49     2726.113     4084.081     93.55252     187.6307     375.8983      3.005     8.45     1285.497     66.31096     165.7871        16     2.433     0.821  32.31   2
       292    433.3382    324.7918 307.7468327  +6.5259515     1741.319     5101.858     7106.002     93.55252     187.9305     375.9732      3.002    11.31     1267.112     66.31096     215.1405        43     2.633     1.354  79.93   3
       293    437.2892    323.2789 307.7452356  +6.5267107      1921.35     4105.265     5936.004     94.00266     188.4538     376.3099      2.490     7.51     1266.772     66.31096     236.4133        27     2.152     0.920  82.01   3
       294    773.8533    321.4131 307.6049189  +6.5388118     3928.228     10347.11     14431.23     93.55252     188.0801     375.8983      2.844     9.30     1262.922     66.31096     463.3759        57     2.570     1.535  69.34   3
       295    777.5435    319.5584 307.6034418  +6.5397032     3443.321      6940.02     7790.334     94.15223     188.1549     376.2351      2.111     6.40     1262.824     66.31096      366.972        28     1.894     0.982  69.06   3
       296    765.9478    323.5865 307.6081437  +6.5376469     570.3395     1306.906     1951.424     93.55252     188.0801     375.8983      2.793     3.89     1263.218     66.31096      90.5824         5     0.884     0.491   2.98   1
       297   1018.7314    315.5970 307.5029720  +6.5494365     1375.779     3925.841      4326.46     93.55252     187.7057     359.5987      2.515     9.61     1258.341     66.31096     183.9148        29     1.808     1.424  61.33  16
       298    483.0959    309.8750 307.7265798  +6.5338004     847.7944     2017.356     4093.267     94.00266     188.3792     376.2351      4.073     7.59     1263.496     66.31096     109.1298        12     1.696     0.951   8.29   0
       299    843.1287    302.9844 307.5766397  +6.5487634     8785.224     17164.96     20551.76      93.7028     188.0801      376.048      2.070     5.61     1261.144     66.31096     1036.839        31     1.854     0.993  77.28   3
       300    839.3544    304.0476 307.5781785  +6.5481968        11338     28611.92     36819.95     94.30155     188.0053     376.1977      2.675     8.15     1261.243     66.31096     1182.815        70     2.675     1.462  77.20   3
       301    454.8465    310.1935 307.7383517  +6.5327164     585.2225     1341.377     2333.279      93.7028     187.9305      375.786      2.114     4.23     1264.851     66.31096     108.0969         6     1.227     0.416  30.10   0
       302    611.9346    298.9525 307.6732076  +6.5426588     700.2556     1704.036     3590.072     94.15222     188.0801     376.2351      3.507     6.54     1260.139     66.31096     102.9928         9     1.841     0.653  37.60   2
       303    613.9824    294.0000 307.6725194  +6.5447767     734.4752     1800.718     3094.579      93.7028     187.5557      375.786      1.683     3.44     1259.481     66.31096     137.8958         4     1.186     0.289   0.00   2
       304    695.8599    291.7252 307.6384439  +6.5484727     23553.13     53247.99     69476.12      94.5995     188.1549     376.1603      2.657    11.92     1259.898     66.31096     2543.788        75     2.963     1.335  70.89   3
       305    699.5304    288.9788 307.6370048  +6.5497324     21881.31     46761.56     54758.37     93.85285     188.0801     376.1229      2.336     7.74      1259.61     66.31096     2476.069        58     2.362     1.214  61.45   3
       306    560.2057    288.7624 307.6951254  +6.5451331     715.4146      1460.13     3012.019     93.25123     187.8556     375.8983      2.051     3.22     1258.753     66.31096     131.8258         5     0.979     0.373 -58.21   3
       307    557.3594    288.3113 307.6963277  +6.5452239     647.8896     1481.547     2811.241     94.30155     188.0801     376.2351      3.571     4.40     1258.678     66.31096     87.92053         5     0.836     0.657 -19.02   3
       308     95.8204    283.2119 307.8890023  +6.5317530     1277.167     2864.854       3444.5     93.85285     187.7807     376.0854      2.210     7.15     1281.018     66.31096     140.1597        18     1.716     0.834  57.75   3
       309     95.8127    287.5504 307.8888594  +6.5299578     1600.606     4345.255     5914.534     93.55252     188.0801     375.8983      2.693     9.55     1280.864     66.31096     163.9434        31     2.384     1.068  36.31   3
       310     99.4304    285.0803 307.8874338  +6.5311021     1897.504     3588.157     4748.998     94.15222     188.0801     376.1603      2.149     6.06     1280.734     66.31096     252.4764        19     1.796     0.720  72.70   3
       311    545.2482    281.8853 307.7015948  +6.5474746     1965.613     4468.027      6104.69     94.30155     188.0801     376.1977      2.519     8.41     1258.229     66.31096       222.85        30     2.179     1.070  74.19   3
       312    542.1165    285.4269 307.7027823  +6.5459038     1971.569     3657.298     4372.099     94.15222     187.8556     376.1229      1.990     7.98     1258.582     66.31096     213.8579        24     1.828     1.008  39.23   3
       313    541.2816    280.9881 307.7032793  +6.5477121     1612.575     3214.617     4514.021     93.85285     187.8556     376.0106      2.292     4.65     1258.317     66.31096     228.1349        12     1.246     0.692  83.58   3
       314    274.7577    282.2388 307.8144036  +6.5382048     610.2816     1612.323     2646.067     94.00266     188.1549      376.048      2.488     3.49     1269.915     66.31096     98.88794         5     1.099     0.320 -21.29   2
       315    269.0201    282.5266 307.8167871  +6.5378919      705.861     1408.671     2629.673     93.85285     188.0801     376.1229      2.601     3.67     1270.163     66.31096     114.9663         6     0.759     0.655  63.65   2
       316    404.5683    280.2583 307.7603271  +6.5434057     6841.481     15937.62     20352.58     94.15223     188.1549     376.1229      2.607    11.57     1265.024     66.31096     690.5485        53     2.776     1.342  60.01   3
       317    408.2351    277.3403 307.7588957  +6.5447367     7246.697     16962.66     22245.15     94.30155     188.1549     376.1603      2.612    10.75     1264.791     66.31096     769.8795        54     2.746     1.264  50.57   3
       318    493.3923    270.5667 307.7236037  +6.5504102      2516.05     5168.128     7272.493     93.70281     187.9305     375.9732      2.379     8.01      1259.23     66.31096     260.8739        27     2.069     0.988  34.77   3
       319    496.4437    267.3315 307.7224394  +6.5518515     2484.414     6678.647     9320.956     94.30155     188.0801     376.2725      2.861    10.23     1258.717     66.31096     294.5721        45     2.412     1.432  32.72   3
       320    763.1523    267.9543 307.6111705  +6.5605697     1130.378     3355.587     4798.955     94.30155     188.0053     376.1977      3.182    11.57     1258.713     66.31096     131.2825        27     2.122     1.757 -59.06   2
       321    383.7198    254.9394 307.7698731  +6.5531773     1907.656     3993.639     4474.616     94.45065     188.1549     376.1603      2.138     7.82     1264.625     66.31096     266.8148        27     2.159     0.925  46.49   3
       322    387.3976    252.4006 307.7684244  +6.5543518      2128.27     4797.808     6113.604     93.55252     187.6307     375.8235      2.392     8.13     1264.385     66.31096     220.6149        29     1.966     1.224  80.99   3
       323    383.6986    249.7711 307.7700555  +6.5553149     1557.929     2634.387     3633.632     94.30155     187.8556     376.1977      1.904     4.19     1264.433     66.31096     204.4021        13     1.155     0.844  35.23   3
       324    239.7453    255.9565 307.8298906  +6.5478954      625.737     1335.777     1640.867     94.30155     188.1549     376.1977      2.246     5.29     1271.006     66.31096     109.7362         6     1.141     0.693  31.37   0
       325    751.2914    248.9283 307.6167545  +6.5680427     16932.47     44143.72     55615.92     94.15222     188.3792     376.1977      2.709     8.76     1257.761     66.31096     1946.619        77     2.719     1.399  74.71   3
       326    755.0059    247.2524 307.6152611  +6.5688610        14315     28246.04     31583.58      93.7028     187.9305      375.786      2.118     6.23     1257.661     66.31096     1650.017        44     2.092     1.059  73.01   3
       327    423.9789    250.3422 307.7532351  +6.5564373     614.6599     1600.256     2944.285     93.85285     188.0053     375.9732      3.856     6.56     1262.406     66.31096     91.95728         6     1.532     0.788  83.01   0
       328    986.1209    246.9519 307.5188654  +6.5767442     685.9991     1386.463     2066.356     94.30155     188.2297     376.1229      2.180     3.84     1255.601     66.31096     121.1421         6     0.945     0.448  49.80   0
       329    929.2899    245.5728 307.5426178  +6.5754086     805.1535     1900.916      2368.01     94.45065     187.8556      376.048      2.406     5.52     1256.576     66.31096     116.9395         7     1.339     0.641 -50.95   0
       330    831.2538    239.4633 307.5837163  +6.5746454      527.559     1196.847     1959.572     94.30155     188.0801     376.1603      2.646     5.54     1256.939     66.31096     106.3397         5     1.314     0.659  47.28   0
       331    749.7250    233.2604 307.6179321  +6.5744724     2046.373     5425.048         8040     94.59951     188.1549     376.1603      3.310    10.37      1256.96     66.31096     235.9984        49     2.470     1.825 -89.16   3
       332    753.4614    232.5109 307.6163986  +6.5749080     1624.053     2578.879      3539.87     94.30156     188.3044     376.2725      1.920     4.84      1256.96     66.31096     204.7996        13     1.296     0.756 -84.42   3
       333    770.2411    230.3379 307.6094719  +6.5763710      865.886     1710.926     2996.718     94.30155     188.1549     376.2351      3.648     8.76      1256.81     66.31096     114.8607        13     2.341     0.914  55.44   2
       334    766.4147    233.0459 307.6109774  +6.5751221     880.2665     2120.546     3428.122     93.55252     187.9305     375.9358      3.020     6.72      1256.96     66.31096     123.1428        11     1.570     0.806  45.57   2
       335    189.6759    233.9933 307.8515131  +6.5552897     611.1491     1525.433     2954.134     93.85285     187.5557      376.048      2.385     3.34      1274.86     66.31096     88.65894         4     0.880     0.368  72.28   2
       336   1007.4933    220.9542 307.5108177  +6.5882169     1513.894     3037.654       3524.1     94.15222     188.0801     376.3473      2.230     5.22     1254.211     66.31096     195.7053        17     1.608     0.882  69.76   3
       337   1004.8032    222.8658 307.5118761  +6.5873359     2212.257     4142.513     5126.784     93.40199     187.8556     375.9358      2.101     5.76     1254.322     66.31096     264.0734        25     1.767     0.951  48.37   3
       338   1004.6558    219.3201 307.5120559  +6.5887979     1429.479     2440.897     2707.802     94.45065     188.1549     376.2351      1.852     3.53     1254.149     66.31096     219.3037         9     1.147     0.534  38.72   3
       339    245.7722    219.9906 307.8285862  +6.5629787     1381.471     3475.755     4432.337     93.85285     187.9305      376.048      2.699     8.09     1270.769     66.31096     175.0283        23     1.995     0.917  22.26   3
       340    247.4070    215.5034 307.8280552  +6.5648903     1456.433     4430.868     6537.137     94.00266     187.7057     375.9358      3.287    10.53     1271.022     66.31096     235.9545        38     2.450     1.596  25.95   2
       341    966.1913    206.6175 307.5285254  +6.5927636     646.2471     1299.466     2297.209     94.00266     187.8556     376.0106      3.179     5.21     1254.113     66.31096     89.43811         5     1.039     0.737  79.36   0
       342    558.4511    201.7289 307.6987747  +6.5810819     764.9305     1700.462     2869.671     94.15223     188.1549     376.2351      3.154     5.82     1253.326     66.31096     105.1927         8     1.255     0.761  35.52   0
       343    722.7162    198.0774 307.6303758  +6.5881206     1683.525     4473.964     5995.623     94.45065     188.5285     376.3099      2.886    10.59     1255.508     66.31096     199.7162        38     2.283     1.368  62.28   2
       344    725.5665    195.6178 307.6292691  +6.5892340       1327.4      2459.99     3471.962     93.85285     187.9305     376.0106      2.162     7.25     1255.482     66.31096     154.4457        18     1.821     0.808  48.86   3
       345    225.7690    182.8152 307.8381801  +6.5776827      682.825      1261.78     2894.492     93.85285     187.8556     376.1229      3.643     3.99     1275.545     66.31096     101.4694         6     0.813     0.561  50.15   0
       346    864.5986    182.0577 307.5717255  +6.5995156     685.6862     1438.077     2070.519     93.55252     187.7807     375.8609      2.497     3.92     1253.984     66.31096     113.3386         5     0.915     0.481  83.07   0
       347    455.6357    174.5095 307.7425755  +6.5888784      6098.25     14997.47     18690.94     94.45065     188.0801     376.2351      2.667    12.11     1255.864     66.31096     620.4475        57     2.749     1.485  59.38   3
       348    459.5235    171.4537 307.7410563  +6.5902738     6480.305     13746.71     18737.62     94.45065     188.1549     376.1977      2.507    10.31     1255.416     66.31096       750.14        48     2.643     1.260  48.44   3
       349    781.5007    172.2027 307.6067197  +6.6008017     4343.902     10596.69     14447.53     94.00266     187.8556     375.8235      2.828     8.70     1254.867     66.31096     483.7977        51     2.525     1.364  75.72   3
       350    785.2206    170.9180 307.6052109  +6.6014582     3751.369     8058.264     10508.25     94.00266     187.7807     376.1229      2.373     6.33     1254.835     66.31096     484.1685        29     2.013     0.963  84.49   3
       351    142.8626    167.7529 307.8732686  +6.5811110     719.5786     1595.676      3280.66     94.15222     188.0053     376.2351      3.115     4.62     1281.087     66.31096     117.8617         7     1.081     0.561  72.61   0
       352    579.1724    158.3179 307.6915862  +6.5997399     1375.092     3397.486     4836.691     94.15222     187.9305     376.1229      2.709    11.06     1252.446     66.31096     153.7081        35     2.470     1.381  68.52   2
       353    583.3659    157.3643 307.6898688  +6.6002757      1165.81     2574.044     3426.317     94.00266     187.8556     375.8983      2.356     7.91     1252.487     66.31096     153.4849        18     1.928     0.908  63.83   3
       354    542.3055    159.3085 307.7069319  +6.5980884     507.6971     1526.315     2502.061     94.30155     188.7523     376.1977      2.604     4.98     1252.091     66.31096     87.50183         6     1.708     0.411  59.55   0
       355    886.6767    154.8674 307.5634241  +6.6115063     4010.296     9289.843     10917.36     94.45065     188.2297     376.1603      2.423     8.05     1252.617     66.31096     487.5215        43     2.333     1.194  80.45   3
       356    890.0000    153.9722 307.5620676  +6.6119882     3181.434     6166.083      7262.44      93.7028     187.7057     375.9358      2.052     6.06     1252.526     66.31096     349.3933        28     1.933     0.933  79.86   3
       357    940.6908    155.1450 307.5408819  +6.6132040     960.4758     2429.604     3023.657     94.15222     188.0053     376.3473      2.287     6.54     1252.013     66.31096     135.6572        15     2.009     0.598  73.63   0
       358     14.5085    151.7819 307.9273449  +6.5833739     6011.942     27076.96     38653.82     94.00266     187.8556      376.048      3.289     9.27     1289.021     66.31096     1103.577        98     2.543     2.312  81.74  16
       359    973.4692    152.6085 307.5272925  +6.6153530     4013.834     8492.319     9971.311     93.70281     187.7807     376.0854      2.279     6.91     1251.495     66.31096     536.3711        39     2.285     1.158  76.49   3
       360    976.6331    151.3008 307.5260163  +6.6160001     2936.104      5014.88     5937.431     94.30155     188.0053     376.3846      1.829     4.98     1251.313     66.31096     349.3446        20     1.487     0.910  71.38   3
       361    684.8120    153.2859 307.6476869  +6.6053773     864.4135     2520.745     4002.879     93.85285     187.8556     376.0106      3.270     8.73     1253.367     66.31096     121.0079        14     2.228     0.954  64.76   0
       362    877.4553    143.1812 307.5676614  +6.6160316     632.7637     2071.268     3165.458     93.70281     188.1549     375.9732      2.997     7.15     1252.084     66.31096     100.9825        11     1.947     0.735 -84.27   0
       363    824.7411    144.4141 307.5896109  +6.6137514     860.6004     1951.795     2308.985     93.55252     188.0801     375.8609      2.339     5.34     1253.112     66.31096     118.5165         9     1.293     0.623  54.44   0
       364    736.9268    141.2669 307.6263491  +6.6121025     12709.92     31366.98     39946.02     94.45065     188.3044     376.1603      2.627     8.75     1253.427     66.31096     1409.989        65     2.687     1.327  75.98   3
       365    740.4525    139.7246 307.6249299  +6.6128591     10763.61     20792.99      23541.9     94.30155     188.2297     376.1977      2.082     6.15     1253.372     66.31096     1158.323        40     2.039     1.046  76.89   3
       366    343.8569    140.2014 307.7903547  +6.5993013     1972.557     4501.656     7952.917     93.55252     187.7807     375.8983      3.195    11.85     1267.071     66.31096     198.9805        49     2.966     1.787 -86.97   3
       367    339.7820    140.4529 307.7920460  +6.5990597     1905.517     5359.987     7954.664     93.70281     188.2297     375.9358      3.056     8.93     1267.481     66.31096     208.8439        29     1.830     1.294 -81.31   3
       368    972.0463    137.6237 307.5283864  +6.6215049      1030.16     3070.401     3920.226     93.85285     188.1549      376.048      2.990     7.98      1250.49     66.31096     135.0126        18     1.734     1.027  34.15   2
       369    508.5095    141.6144 307.7216232  +6.6042701     683.2458     1224.208     2924.343     94.00266     187.9305     376.0106      4.180     4.91     1252.849     66.31096     99.49756         6     1.000     0.682  66.38   0
       370    448.2957    137.7339 307.7468716  +6.6038457     1172.051     3999.917     5610.157     94.30155     188.3044     376.2351      2.982    11.40      1256.07     66.31096     173.4417        37     2.467     1.467  79.80   3
       371    452.5468    136.7114 307.7451326  +6.6044121     1272.448     2711.123     3875.862     94.30155     188.0053     376.3473      2.296     8.25     1255.683     66.31096     159.6418        21     2.214     0.858  86.55   3
       372    905.8774    137.3813 307.5559984  +6.6193852     2556.064     8536.812     10707.47      93.7028     187.8556     376.1603      2.832     8.15     1251.263     66.31096     365.2031        53     2.106     1.782  71.37   0
       373   1009.3977    138.4796 307.5127758  +6.6224033     771.0738     1702.904     1622.068     93.55252     187.5557     375.9358      2.453     5.97     1250.103     66.31096     104.4587         7     1.212     0.827  70.47   0
       374    106.0102    130.8820 307.8898820  +6.5951181     1396.419     3125.206     3579.916     93.85285     187.7807     376.0106      2.168     8.09     1282.904     66.31096     167.1417        22     1.783     1.026  33.90   3
       375    108.3897    127.2342 307.8890123  +6.5967077     1477.465     3977.792     5267.457     93.70281     187.8556     376.0106      2.772    10.48     1282.818     66.31096     180.6893        35     2.381     1.285  31.08   3
       376    275.3655    122.2255 307.8195295  +6.6044253     6613.071      11172.9     12932.02     93.55252     187.9305     375.9358      1.811     4.81     1275.414     66.31096     720.5133        26     1.351     1.163  72.06   3
       377    276.3466    127.3412 307.8189482  +6.6023420     9376.991     21081.34     24889.96     94.45065     188.1549     376.1977      2.355     7.04     1274.932     66.31096      948.876        51     2.207     1.268  32.42   3
       378    279.8894    124.3354 307.8175714  +6.6037052     10094.02        19848     23449.38     94.15222     188.3792     376.2351      2.162     5.70     1274.889     66.31096     1268.094        40     2.002     1.060  70.58   3
       379    251.9842    128.4813 307.8290724  +6.6010473      1702.97     4029.278     5604.114     93.85285     187.8556      376.048      2.885    11.04     1276.689     66.31096     189.0433        36     2.573     1.320  52.78   3
       380    255.4388    125.4864 307.8277320  +6.6024030     1996.829     3995.104     6192.005     94.30156     188.0801     376.1977      3.246    11.20     1276.642     66.31096      246.718        33     2.699     1.295  43.91   3
       381    156.1153    124.3150 307.8692028  +6.5995300     1227.031     2587.415     3494.936     94.00266     188.3044     376.2725      2.382     8.79     1280.739     66.31096      154.459        20     2.058     1.049  39.73   2
       382    159.5809    120.9853 307.8678692  +6.6010247     1431.755     3131.978     4359.613     94.00266     187.8556     376.0854      2.877    10.55     1280.563     66.31096     185.9795        26     2.591     1.236  33.66   2
       383    400.0559    122.6368 307.7675016  +6.6084646     13438.75     30290.22     36668.45     94.15222     188.1549     376.2351      2.455     9.89     1260.677     66.31096     1415.184        57     2.505     1.328  49.21   3
       384    403.8002    119.6946 307.7660385  +6.6098082     13951.38     30816.56     40675.83      93.7028     187.7057     375.7111      2.642    11.66      1260.18     66.31096     1557.272        67     3.013     1.365  42.92   3
       385    304.3493    120.3383 307.8075025  +6.6061850     4967.876     12262.66     16127.67     94.30155     188.0801     376.2351      2.639     9.46     1272.806     66.31096     501.9374        45     2.382     1.332  48.91   3
       386    308.1070    117.4619 307.8060317  +6.6075019     5483.738     12484.01     20707.14     94.30155     188.1549     376.2725      3.609    11.17     1272.558     66.31096     602.5552        77     3.152     1.734  32.35   3
       387    739.2398    117.4435 307.6261815  +6.6220366     10581.64     25745.97      34325.8     94.00266     188.1549      376.048      2.744     9.60      1252.12     66.31096     1175.339        74     2.774     1.693  76.10   3
       388    743.0000    115.9747 307.6246620  +6.6227707     8443.235     15102.38     16779.29      93.7028     187.7057     375.9358      1.959     5.92     1252.065     66.31096     1046.106        28     1.885     0.888  83.97   3
       389     57.0356    116.7186 307.9107877  +6.5993199     2745.577     5819.229      6948.86     94.30155     188.2297     376.1603      2.419     9.33     1286.106     66.31096     333.3591        34     2.520     1.064  52.24   3
       390     59.7826    113.8357 307.9097390  +6.6006055      2885.51     6338.103     9284.055      93.7028     187.9305     375.9358      2.669    10.98     1285.896     66.31096     371.1893        44     2.804     1.271  50.00   3
       391    999.5119     96.9506 307.5182861  +6.6392537     1068.556     2742.419     3324.406     94.30155     187.9305     376.3099      2.663     7.11     1247.522     66.31096      161.708        17     1.497     1.349 -83.54   0
       392    275.0339     93.6116 307.8206299  +6.6162520     8468.271     19337.63     24351.82      93.7028     187.9305     375.9732      2.540     9.30     1277.455     66.31096     870.8127        53     2.562     1.265  50.55   3
       393    278.7633     90.6885 307.8191724  +6.6175873     9109.424      19808.7     27259.99     94.30155     188.0801     376.1977      2.725    11.55     1277.288     66.31096     1084.465        61     2.952     1.397  43.57   3
       394    588.8848     93.6003 307.6897038  +6.6268421      677.461     1692.929      3464.51     93.40199     187.5557      375.786      3.869     8.01     1251.924     66.31096     97.77759        10     1.614     1.112  71.71   0
       395     19.9148     91.5183 307.9271212  +6.6084883     1311.643     3250.245     4087.974     94.00266     188.5285     376.2725      2.565     7.91     1289.015     66.31096     186.5647        19     1.856     1.258  48.13   3
       396     22.9963     89.1320 307.9259162  +6.6095799     1450.589     3425.865     5173.684     93.55252     187.7057     375.9358      2.734    10.35     1288.943     66.31096      179.545        27     2.532     1.180  46.03   2
       397    706.0055     85.2380 307.6411241  +6.6342433     1880.593     3452.719     4104.406     93.25123     187.8556     375.8983      1.977     5.87     1250.688     66.31096     223.8115        21     1.447     1.219  27.75   3
       398    706.5818     89.2830 307.6407482  +6.6325892     2711.451     4920.187     5896.847     93.85285     187.7807     376.1603      2.043     8.62       1250.9     66.31096     322.0034        28     2.022     1.109  36.80   3
       399    710.2048     87.3451 307.6393017  +6.6335128     2072.585     4289.892     5238.825     93.55252     187.9305     375.8235      2.233     6.41     1250.736     66.31096     255.8385        22     1.713     0.888  87.58   3
       400    118.2538     87.7456 307.8862275  +6.6133782     1371.136      3037.27     4209.512     94.59951     188.0801     376.1977      3.706     8.89     1282.084     66.31096      159.161        23     2.227     0.991  44.82   2
       401    121.0834     84.5255 307.8851556  +6.6148061     1759.055     3460.201     5048.227     94.45065     188.5285     376.2725      3.259     9.56     1281.874     66.31096     233.7584        24     2.007     1.270  47.88   2
       402    391.4246     81.3771 307.7724878  +6.6252432     1285.083     3496.877     5337.224     93.70281     188.0053     376.1603      3.181     9.91      1262.98     66.31096     161.4176        31     2.121     1.386 -69.89   2
       403    386.5859     82.0142 307.7744849  +6.6248164     865.7484     1992.058     3691.208     94.15222     187.7807     376.1229      3.034     6.03      1263.44     66.31096     132.6188        11     1.829     0.559  65.33   2
       404    352.7730     82.1385 307.7885862  +6.6236238     1078.193     2487.637     4103.338     93.85285     188.2297     376.0854      3.016     8.26     1267.739     66.31096     130.0452        21     1.819     1.049  25.54   2
       405    355.8658     78.3535 307.7874232  +6.6252941     785.5969     2116.485     3281.865     94.30155     188.0801     376.1977      2.763     6.76     1267.374     66.31096     151.9067        13     2.099     0.610  63.04   2
       406    351.7002     77.0280 307.7892054  +6.6257018     684.2546     1331.037     2665.068     94.30155     187.8556     376.0854      2.574     4.84     1267.882     66.31096     94.24902         5     0.956     0.693 -24.77   3
       407   1000.0379     75.0058 307.5187992  +6.6483506     724.4604     1717.594      2577.66     93.25123     187.8556     375.8983      3.053     4.81     1243.998     66.31096      88.6051         6     1.144     0.573   0.32   0
       408    203.3702     70.6907 307.8512955  +6.6233128     1323.348     2699.267     2769.737     94.45065     187.8556     376.1229      2.120     7.10     1279.794     66.31096     184.3612        15     1.664     0.848  58.86   3
       409    206.3259     71.6837 307.8500291  +6.6230019      1178.09     2333.884     2889.746     94.45065     188.5285     376.2725      2.279     4.61     1279.769     66.31096     178.4846        11     1.340     0.694  64.69   3
       410    208.2389     67.5482 307.8493702  +6.6247775     1719.499     4160.057     6543.069     94.00266     188.1549     376.1603      3.016    11.67     1279.722     66.31096     197.7859        37     2.709     1.401  32.05   2
       411    666.0874     68.2906 307.6583447  +6.6399120     1940.406     4645.582     6430.502     94.00266     188.6777     376.3473      2.763     9.27     1250.695     66.31096     262.8014        44     2.635     1.334  74.16   2
       412    669.5895     66.9670 307.6569280  +6.6405774     1693.651      3877.84     4505.075      93.7028     187.8556     376.0106      2.326     5.53     1250.601     66.31096     212.9484        22     1.723     0.988  71.92   3
       413    618.2621     65.3365 307.6783956  +6.6395246     2719.277     8704.557     11285.15     94.30155     188.1549     376.2351      2.999    13.06     1251.316     66.31096     305.4575        58     2.634     1.802  79.35   3
       414    621.6566     57.2690 307.6772498  +6.6429766     15765.15     37943.14     56035.11     94.45065     188.0801     376.1603      2.954    10.01       1251.1     66.31096     1620.988        85     3.184     1.410  76.66   3
       415    625.4973     55.5182 307.6757062  +6.6438302     14431.22     28997.77     32406.01     94.15223     188.6031     376.2725      2.134     6.34     1251.024     66.31096     1508.672        42     2.046     1.078  77.42   3
       416    348.0608     62.3821 307.7912157  +6.6316382     1232.509     3657.688     7141.412     93.85285     188.0801     375.9732      4.911    14.40     1268.462     66.31096     212.1719        36     2.663     2.166  81.11   2
       417    300.0963     51.6509 307.8115856  +6.6344582     1040.384     2554.404     4399.287     94.15222     188.0801      376.422      3.583     7.74     1275.455     66.31096     130.6107        15     1.600     1.048  55.05   3
       418    305.0072     50.3381 307.8095811  +6.6351673     1179.372     2699.824     4503.303     93.55252     187.9305     375.9732      3.410     9.58     1274.735     66.31096     144.0094        24     2.385     1.073  77.19   2
       419    599.7447   1019.7672 307.6541558  +6.2440255     807.1204     2518.044     2898.158     94.15223     188.0801     347.5403      2.635     9.15     1309.461     66.31096     174.3982        14     2.342     0.997   0.06  18
       420    686.2750     40.6320 307.6508490  +6.6520342     984.2348     2865.726     3990.031     94.15223     188.2297     376.1603      2.831     7.84     1249.003     66.31096     136.4497        18     1.752     0.981  73.68   2
       421    428.4449     33.5222 307.7586510  +6.6462905     1254.336     3106.229     4813.485     94.15223     188.1549     376.1977      3.245     7.44     1262.299     66.31096     139.1611        21     1.870     1.080  27.08   2
       422    431.9155     29.9272 307.7573238  +6.6478949     1158.153      2797.92     3942.269     94.45065     188.5285     376.2351      2.789     6.59     1262.187     66.31096     157.7998        13     1.720     0.709  53.60   2
       423    903.3734     24.5675 307.5608126  +6.6659756     1017.759     2682.695     4898.084     93.70281     187.8556     375.9732      3.863     8.14     1244.015     66.31096     151.0557        16     1.788     1.035  61.75   2
       424    900.6426     27.8824 307.5618411  +6.6645124     1450.588     2980.661     4656.579     94.30155     188.1549     376.1229      2.593     4.37     1244.223     66.31096     253.0913        14     1.358     0.741  51.16   3
       425    883.2589     29.5706 307.5690373  +6.6632304     691.4328     1524.402     2581.668     94.00266     188.2297     376.0854      2.578     4.48     1244.445     66.31096     134.8716         5     0.951     0.602  42.83   2
       426    394.9909     22.7878 307.7729679  +6.6496029     714.8522      1351.21     2341.356     93.85285     187.9305     376.1229      2.780     5.05     1265.464     66.31096     97.42627         7     1.112     0.649  65.92   0
       427    140.1844     22.8689 307.8792638  +6.6409601     963.4277      2337.88     4212.099      93.7028     188.0053     376.0854      3.427     7.44     1279.855     66.31096     125.6388        15     1.967     0.788  14.02   2
       428    142.4725     18.8333 307.8784451  +6.6427071      1010.89     2243.014     3632.879     94.15222     188.1549     376.1603      2.941     7.34     1279.766     66.31096     148.0585        12     1.366     1.105  74.42   2
       429    155.8658   1015.8533 307.8393176  +6.2306782     8467.965     22628.28     26538.85     94.30155     188.0801     376.1603      2.570     6.02      1307.61     66.31096       1128.2        72     2.082     1.838  66.50  16
       430    469.8772   1014.2534 307.7084769  +6.2419346     2053.271     5388.827     5982.527     94.45065     188.1549     376.1977      2.490     6.59     1310.641     66.31096     259.8586        39     1.679     1.609  87.36  16
       431    829.1999   1013.2468 307.5587212  +6.2544346     1984.077     4284.952     4370.993     93.40199     187.7057     375.6362      2.185     6.60     1308.689     66.31096     225.4324        29     1.535     1.429  82.27   0
       432    749.8086   1010.7504 307.5919007  +6.2528012     846.8148     1949.742     1924.405      93.7028     187.9305     375.8235      2.192     7.27     1308.723     66.31096     125.2574         9     1.386     1.067  77.36   0
       433    573.4389   1008.6873 307.6654925  +6.2477244     1626.031     4108.123     4933.053     94.30155     188.0801     376.1977      2.583     7.79      1309.37     66.31096     179.3446        34     1.771     1.666  82.86   0
       434    702.2521    996.8752 307.6121894  +6.2569438     2376.233     6091.212     6030.587     94.30155     188.2297     376.1977      2.350     6.37     1308.279     66.31096     273.0348        41     1.750     1.616 -63.60   0
       435    279.0341    999.4717 307.7885261  +6.2416150     943.4833     2052.685     2678.078     94.15222     188.0801     376.1977      2.221     6.48     1309.035     66.31096     111.5111        10     1.329     0.888  34.01   0
