#   1 NUMBER                 Running object number                                     
#   2 X_IMAGE                Object position along x                                    [pixel]
#   3 Y_IMAGE                Object position along y                                    [pixel]
#   4 ALPHA_J2000            Right ascension of barycenter (J2000)                      [deg]
#   5 DELTA_J2000            Declination of barycenter (J2000)                          [deg]
#   6 FLUX_APER              Flux vector within fixed circular aperture(s)              [count]
#   9 FLUXERR_APER           RMS error vector for aperture flux(es)                     [count]
#  12 FLUX_RADIUS            Fraction-of-light radii                                    [pixel]
#  13 FWHM_IMAGE             FWHM assuming a gaussian core                              [pixel]
#  14 BACKGROUND             Background at centroid position                            [count]
#  15 THRESHOLD              Detection threshold above background                       [count]
#  16 FLUX_MAX               Peak flux above background                                 [count]
#  17 ISOAREA_IMAGE          Isophotal area above Analysis threshold                    [pixel**2]
#  18 A_IMAGE                Profile RMS along major axis                               [pixel]
#  19 B_IMAGE                Profile RMS along minor axis                               [pixel]
#  20 THETA_IMAGE            Position angle (CCW/x)                                     [deg]
#  21 FLAGS                  Extraction flags                                          
         1    706.7885     21.6081 307.6452509  +6.6898135     7544.501     11335.91     12143.84     77.16467     154.5141     309.2436      1.626     3.27     806.5271     54.52005     1013.755        37     1.415     1.104 -79.25   0
         2    626.9357     20.7830 307.6784586  +6.6874777      3841.46     5560.073     5790.896      77.0413     154.6372     309.1513      1.531     3.25     806.9538     54.52005     553.4011        23     1.315     0.920 -83.85   0
         3    427.1182     17.0535 307.7616097  +6.6823102     6347.371     9752.423     10235.02     77.53358     154.6987     309.3666      1.607     3.30     810.6155     54.52005      869.664        35     1.444     1.099 -87.64   0
         4     28.1140     16.6102 307.9274059  +6.6690586     8426.206     13303.21      14334.4     77.16466     154.3909     309.1513      1.689     3.44     817.1998     54.52005     1118.837        38     1.510     1.107 -87.44   0
         5    673.8812     15.8002 307.6591196  +6.6911085     961.9158     1342.734     1362.389     76.79397      154.206     308.9974      1.457     4.05     806.7701     54.52005      129.424        11     1.075     0.873 -88.31   0
         6    503.0270     13.9856 307.7301726  +6.6861264     876.6081     1133.633     1195.986     77.16466     154.5141     309.2436      1.394     3.83     808.5716     54.52005     140.4013        11     1.051     0.757 -72.76   0
         7    323.7153     11.9951 307.8047440  +6.6809222     12995.75     20182.06     22007.33      77.0413     154.3293     308.9666      1.671     3.31     817.2077     54.52005     1742.242        49     1.563     1.166 -80.00   0
         8     97.3314     12.4542 307.8987883  +6.6731088     2495.867      3826.87     4282.331     77.53358     154.6372     309.2436      1.645     3.95      818.739     54.52005      328.942        24     1.540     0.936 -83.47   0
         9    418.7323     12.5471 307.7652459  +6.6838888     780.0952     1153.444     1149.112      77.4108     154.6372     309.2128      1.347     5.17     810.8918     54.52005     143.2529        12     1.298     0.785  79.69   0
        10     88.6453     11.2429 307.9024382  +6.6733160     1586.116      2511.23     3032.554     77.53358     154.6987     309.2436      1.748     4.41      818.447     54.52005     207.9323        20     1.347     1.016 -74.47   0
        11    792.1646     10.6359 307.6101441  +6.6972024     918.3384     1283.625     963.2163     77.28783     154.4525      309.059      1.500     3.49     804.9962     54.52005     172.0129        11     0.994     0.890  70.19   0
        12    389.9865      9.7929 307.7772827  +6.6840597     2360.989     3401.905      3506.34     77.16466     154.4525     309.1513      1.467     3.18     813.2639     54.52005     372.6291        17     1.214     0.813 -78.12   0
        13    458.3961      9.8402 307.7488567  +6.6863389     522.3645     794.3793     335.2899     76.79397     154.4525      309.059      1.317     3.38     809.4386     54.52005     84.29175         5     0.768     0.432 -68.76   0
        14    650.6820      5.5025 307.6691056  +6.6945822     11250.74     16717.62      18121.7      77.4108     155.0672     288.6249      1.633     3.29     806.4453     54.52005     1462.331        40     1.448     1.072 -80.23  16
        15    985.0154      6.7810 307.5301384  +6.7052429     698.9922     861.5103     627.5056     77.28783     154.4525     300.1278      1.601     4.24     802.8713     54.52005     114.0417         6     1.066     0.482 -82.80  16
        16    815.1801      4.7535 307.6007781  +6.7004013     1679.908     2668.594     3250.275     77.16466     154.6987      280.231      1.916     4.04     804.6264     54.52005     257.0203        16     1.275     0.861  89.73  16
        17    528.2665      5.4004 307.7199745  +6.6905180     1314.664     1766.329     1689.619     76.79398      154.206     287.4029      1.430     3.86     808.3194     54.52005     219.2707        14     1.217     0.803 -81.07  16
        18     69.2625      5.6360 307.9106809  +6.6749770     725.5727     872.3426     884.3837     77.53358     154.6987     289.9073      1.196     2.84     817.4431     54.52005     121.5244         6     0.689     0.641  82.13  16
        19    885.7575      2.8269 307.5715158  +6.7035577     1417.714     2205.971     2304.853     77.16466     142.5384     255.4798      1.616     4.35     804.4252     54.52005     219.0975        16     1.382     0.844 -78.39  24
        20    251.0560      2.5161 307.8352535  +6.6823904     6576.465     9683.803     10577.87     77.53358     138.9566      251.086      1.663     3.52      818.639     54.52005     851.4412        35     1.593     1.171 -22.00  24
        21    773.1954      2.9630 307.6182840  +6.6997351     488.0482     684.5195     1055.266     76.67001     143.6021     257.3347      1.696     3.73     804.9092     54.52005     72.22473         5     1.426     0.281 -78.45  24
        22    427.0143      2.8042 307.7621331  +6.6881893     676.7294     967.6693       1047.8     77.16466     141.9366     255.1073      1.438     5.05     810.5687     54.52005     106.8616         9     1.101     0.656 -87.56  24
        23    672.2823      1.6171 307.6602609  +6.6969103     4356.969     5701.042     6204.312     70.73334     127.0118     237.4172      1.234     2.75     806.3096     54.52005     1061.698        22     1.385     0.794  -5.69  24
        24    642.1990      1.8518 307.6727532  +6.6958050     6916.563     8441.303     9185.008      72.9836     130.0461     240.4823      1.232     2.84     806.3096     54.52005     1353.433        21     1.044     0.904   7.84  24
        25    412.0993      1.8667 307.7683620  +6.6880751     6191.243     7729.774      7937.37      73.2438     130.7027      241.272      1.291     2.89       811.39     54.52005     1150.224        22     1.122     0.928   0.13  24
        26    727.8895      1.3000 307.6371655  +6.6989044     764.0391     938.1041     1204.973     67.00424     122.7464     232.1914      1.074     2.74     805.3951     54.52005     192.4944         6     1.062     0.473  23.75  24
        27    230.0528    980.0072 307.8109961  +6.2781391     1356.697     1969.513     2425.559      77.0413     154.5141     308.9974      1.598     4.00     841.7717     54.52005     206.4196        17     1.247     0.930 -36.22   0
        28    730.5070   1023.5579 307.6017542  +6.2769516     670.9369     971.3212     987.9039     68.82496      124.516     234.7175      1.540     4.71     839.8842     54.52005     100.2186         8     1.271     0.495   1.85  24
        29    714.8887   1023.4900 307.6082409  +6.2764568     981.4251     1295.366     1542.329     69.51254      125.959     235.6478      1.338     3.13     840.3685     54.52005       228.38        11     1.192     0.675  11.21  24
        30    361.3531   1022.7266 307.7550452  +6.2649163     1799.303     2259.842     2356.765     76.54585     136.0513     247.4994      1.359     3.27     843.1924     54.52005      256.633        14     1.061     0.847 -56.80  24
        31    195.0324    979.9728 307.8255366  +6.2769751     778.6777      1287.08     1423.781      77.0413     154.4525     309.1205      1.675     6.17     840.9695     54.52005     103.0572        10     1.154     0.929 -77.52   0
        32     55.5009    978.2897 307.8835215  +6.2729718     2794.254     4404.086     4364.517     77.53358     155.1285     309.2744      1.679     3.32     838.9814     54.52005     392.3804        28     1.538     1.041 -61.41   0
        33    949.1884    976.4888 307.5125360  +6.3036963     6240.477     10634.58     11252.91     77.28783     154.3909     309.1821      1.836     3.74     834.9122     54.52005     758.3788        39     1.530     1.267 -89.99   0
        34    922.8729    968.2369 307.5237387  +6.3062240     2140.478     3407.354     3487.248      77.4108     154.6987     309.3666      1.694     4.13     835.6584     54.52005     277.3654        22     1.378     1.022 -88.95   0
        35    631.5679    970.2169 307.6446232  +6.2956602     689.4185     1007.742     863.6799     77.16467     154.4525     309.1821      1.374     4.47     840.6308     54.52005     101.7829         7     1.097     0.519 -43.75   0
        36    643.6758    964.1926 307.6397983  +6.2985530      4524.41     6984.157     7053.607     77.16467      154.206     309.1205      1.665     3.49     840.3514     54.52005     585.7712        30     1.395     1.102 -87.21   0
        37    255.7693    964.1823 307.8008528  +6.2855372     4408.508     6817.261     7256.332     77.16466     154.5141     309.2128      1.613     3.57     841.4492     54.52005     568.5342        33     1.544     1.082 -87.22   0
        38    782.4882    964.5817 307.5821500  +6.3030397     1401.202     2201.956     2622.084     77.28783     154.4525     309.2128      1.803     4.46     837.8762     54.52005     174.1634        18     1.371     0.928 -54.79   0
        39    466.0767    962.5287 307.7135924  +6.2932849     1244.398     1676.979     1421.803     77.77855     154.9444     309.3051      1.565     3.54     841.8425     54.52005     183.9888        12     0.992     0.888 -42.24   0
        40     24.6747    961.5920 307.8968833  +6.2788264     2099.514     3236.479     3105.064     77.16467     154.2677     309.1513      1.608     3.78      838.465     54.52005     272.4055        21     1.281     1.028  83.32   0
        41    875.4875    960.5919 307.5436697  +6.3077969     766.6174     1318.185     1347.058     77.16467     154.3909     309.0898      1.714     5.63     836.6321     54.52005      118.379        12     1.335     0.872 -56.43   0
        42    568.3739    956.4008 307.6713253  +6.2992462      1802.25      2674.85     2881.997     77.16467     154.3909     309.1205      1.668     3.86     841.1669     54.52005      219.613        19     1.326     0.903 -85.11   0
        43    291.7868    957.4572 307.7861257  +6.2895246     912.1803     1311.064     1570.851     76.91773     154.5757     309.0282      1.528     3.22     841.5742     54.52005     154.6034         7     0.847     0.600 -77.08   0
        44    999.6719    956.3119 307.4922499  +6.3137123     823.3842     1473.542     1981.916     77.65616     154.9444     309.3051      1.874     5.25     832.1369     54.52005     109.9625         9     1.190     0.654  89.98   2
        45   1000.6393    952.0756 307.4919900  +6.3154936     410.6646     844.1553     1598.249      77.4108     154.6987     309.3358      3.259     3.09     831.9817     54.52005     80.34369         5     0.808     0.668 -49.85   2
        46    946.6583    957.2076 307.5142320  +6.3115722     627.4077     923.3376     796.4009     76.91773     154.5757      309.059      1.351     2.19     834.3998     54.52005     116.2049         5     0.708     0.442 -71.97   0
        47    607.5508    953.2241 307.6551658  +6.3018710     1076.992     1545.066     1137.372     77.16467     154.7601     309.2128      1.530     4.28     840.8798     54.52005     162.7367        10     1.101     0.690 -89.33   0
        48     57.1826    953.7440 307.8836524  +6.2831618      718.746     1223.774     1314.307      77.0413     154.6372      309.059      1.633     4.30     838.8304     54.52005     97.45728         7     1.069     0.492  66.84   0
        49    287.4045    950.6588 307.7881743  +6.2921839     1431.553     2263.683     2458.969     76.91773     154.5757     309.0898      1.735     4.25     841.4235     54.52005      212.725        17     1.279     0.938 -71.83   0
        50    754.3382    946.4457 307.5944464  +6.3095853     944.4453     1423.466      1569.83      77.4108     154.5757     309.3666      1.601     3.44     838.1281     54.52005     161.5182         9     0.954     0.670 -48.04   0
        51    891.8584    943.3499 307.5374499  +6.3154625     6852.639     10968.54     11264.54     77.53358     154.6987     309.3051      1.703     3.61     835.7526     54.52005     836.1512        37     1.479     1.192 -77.18   0
        52    427.7734    940.4692 307.7302378  +6.3011064     2112.173     3428.289     3371.137     77.16467     154.5757     309.2436      1.700     3.52     841.2281     54.52005     311.5819        20     1.315     0.891 -69.16   0
        53    329.3946    938.8375 307.7711389  +6.2984756     9494.276      14909.2      15439.4     76.67001     154.4525      309.059      1.668     3.37     841.2137     54.52005     1285.594        45     1.531     1.153 -81.29   0
        54    249.4688    937.7523 307.8043596  +6.2962367     7182.604     10827.66     11503.24     77.53358     154.6372     309.3051      1.659     3.33     840.6307     54.52005     895.2217        34     1.440     1.050 -80.52   0
        55    167.8895    935.8921 307.8382926  +6.2942599      672.946     1102.796     698.5823     77.53358     155.1898     309.3666      1.673     3.92     839.9695     54.52005     114.7749         7     1.093     0.577 -81.78   0
        56    577.5585    932.4184 307.6683178  +6.3094553     1172.285     1608.465     1188.962      77.0413     154.5141      309.059      1.482     4.49     840.9199     54.52005     160.8531        14     1.344     0.757 -88.59   0
        57    762.1973    931.8752 307.5916719  +6.3158638     689.8293     856.6955     1227.713      77.0413      154.206     309.2128      1.483     4.19     837.6201     54.52005     103.6592         8     1.044     0.538 -38.53   0
        58    907.5471    928.3663 307.5314375  +6.3221729     951.2859     1587.753     1897.714      77.4108     154.6987     309.2436      2.074     4.51     834.8762     54.52005     145.3774        12     1.117     0.894 -80.40   0
        59    863.9554    928.0816 307.5495473  +6.3208335     731.8898     1303.322     1210.399     77.53358     154.6987     309.2744      1.876     5.36     836.2111     54.52005     105.6566        10     1.188     0.683 -46.52   0
        60    211.5166    927.7631 307.8204536  +6.2990840     542.6762     583.9783     445.7835     77.53358     154.6372     309.2436      1.283     3.46      839.974     54.52005     95.14496         5     0.757     0.457  70.48   0
        61    406.3617    925.7847 307.7396222  +6.3064500     571.9695     784.3801     862.4201     77.28783     154.5141      309.059      1.381     2.94     840.8707     54.52005     130.8687         5     0.725     0.664  11.38   0
        62    743.8502    921.4217 307.5996406  +6.3195656     1699.528     2717.162     3218.173      77.0413     154.7601     309.1821      1.784     3.86     837.8872     54.52005     218.2617        17     1.186     0.943 -85.28   0
        63    567.6041    922.0972 307.6727977  +6.3133827     676.1691     864.5844     720.8979     77.28783     154.3909     308.9974      1.371     3.42     840.6581     54.52005     119.8609         5     0.841     0.403 -67.92   0
        64    619.4437    918.1594 307.6514057  +6.3167460     582.1332     868.7593      242.745     77.28783     154.6987     309.1821      1.502     5.26     840.0945     54.52005     119.5414         5     1.031     0.758  79.33   0
        65    608.2558    918.1551 307.6560512  +6.3163729     780.6747     1213.203     916.6509     77.53358     154.6987     309.3051      1.572     4.28     840.3917     54.52005     142.8542         7     1.281     0.407  82.51   0
        66    529.0648    917.4077 307.6889572  +6.3140264     1068.344     1617.911     1565.689      77.0413     154.4525     309.1821      1.688     4.82     840.5132     54.52005     140.9812        14     1.287     0.730 -85.13   0
        67    975.0735    917.2629 307.5037706  +6.3290128     1263.555      1913.46     2955.744     77.77855     154.6987     309.3051      1.734     4.14     832.1581     54.52005     160.3433        16     1.233     0.922 -88.38   0
        68    662.4241    914.7345 307.6336746  +6.3196000     2500.095     3819.383     4363.208     77.16467     154.6987     309.2128      1.572     3.79     838.7414     54.52005     335.0944        19     1.245     0.951  86.33   0
        69    952.8085    913.0407 307.5131571  +6.3300123     551.0841     1032.335     1188.579     76.91773     154.5141     309.0282      1.555     3.99     832.9574     54.52005      78.2312         6     0.923     0.495 -54.39   0
        70    823.2940    911.5234 307.5669858  +6.3263101     903.5195       1726.9     1703.241     77.28783      154.883     309.3051      1.976     6.78     835.9545     54.52005     115.8242        12     1.323     0.975  87.50   0
        71     59.1420    910.7119 307.8842924  +6.3009930     2735.452     4484.804     4610.328     77.53358     154.6987     309.4281      1.728     4.06     837.9999     54.52005       422.88        25     1.468     0.961 -75.73   0
        72    940.7283    910.4295 307.5182605  +6.3306869     766.5805     1289.975     890.9695      77.4108     154.6987     309.2744      1.810     4.03     833.3732     54.52005     124.8826         6     1.046     0.444 -88.31   0
        73    202.7313    909.8351 307.8247058  +6.3061898     2277.124     3543.498      3784.55      77.4108     154.7601     309.3973      1.663     3.62     839.8368     54.52005      297.498        18     1.215     0.915  85.90   0
        74     76.6020    910.0887 307.8770644  +6.3018385     1826.479     2968.571     3273.593     76.91773     154.3293      309.059      1.720     3.86     838.1786     54.52005     247.1135        20     1.361     0.913 -63.44   0
        75    657.1360    903.9207 307.6362334  +6.3238874     6948.464     10707.66     11254.69     77.77855     154.7601     309.2744      1.643     3.44     838.5654     54.52005     978.7021        41     1.517     1.183 -81.69   0
        76    341.6390    905.9534 307.7671628  +6.3124631      913.809     1562.964     2183.345      77.4108     154.6987     309.1513      1.821     5.29     840.7661     54.52005     120.2191        11     1.233     0.699 -66.31   0
        77    236.6889    906.5169 307.8107188  +6.3087021     835.5924      1366.65     1078.849     77.28783      154.883     309.3358      1.608     4.55     840.1453     54.52005     106.5674         8     1.111     0.530 -70.83   0
        78    794.5295    904.4682 307.5791661  +6.3282607     821.2132      951.915      1278.92     77.53358     154.8216     309.2744      1.341     4.31     836.0793     54.52005      120.877         7     0.896     0.822 -84.00   0
        79     17.0674    902.2830 307.9020456  +6.3030547     1121.752      1771.13     2145.134     77.65616     154.9444     309.3358      1.728     4.53      837.017     54.52005     161.7421        14     1.212     0.913 -52.37   0
        80    894.8716    900.1906 307.5376445  +6.3333819     2737.985     4291.721     4301.806      77.0413     154.3293     309.1205      1.649     3.76     834.5882     54.52005      384.896        22     1.328     0.937 -81.41   0
        81     30.1770    900.7845 307.8966534  +6.3041152     1020.319     1565.784     1775.855     77.28783     154.5141     309.2128      1.586     3.88     837.1692     54.52005     138.7516        12     1.119     0.744 -87.69   0
        82    769.9602    900.4080 307.5895041  +6.3291150     481.2151     554.5475    -82.50426     76.91773     154.4525     309.0282      1.418     4.80     836.6266     54.52005     72.05072         5     1.006     0.649  88.43   0
        83    340.1423    897.0510 307.7680841  +6.3160881     16485.16     24815.98      26592.3     77.53358     154.6987     309.3051      1.594     3.43     840.6876     54.52005     2326.698        46     1.463     1.166 -77.51   0
        84    926.8797    899.2095 307.5243866  +6.3348565     555.8572     572.4169     896.9567     77.16466     154.3293     309.1513      1.683     4.39      833.674     54.52005      102.108         5     1.347     0.406   0.88   0
        85     74.5727    898.3129 307.8783046  +6.3066316     1413.862     2142.611     2300.735     77.65616     154.4525     309.1821      1.655     4.43     837.7991     54.52005     179.1818        18     1.478     0.781 -77.92   0
        86    211.0286    896.6065 307.8217070  +6.3119302     1232.031     1877.785     1507.786      77.0413     154.5141     309.1205      1.572     4.98     839.8228     54.52005     178.0486        16     1.327     0.935 -84.31   0
        87    390.8879    896.4546 307.7470343  +6.3180391     603.0601     744.2898     323.6167     77.53358     154.5757     309.4588      1.445     4.21     840.0112     54.52005        105.2         7     0.907     0.578  83.92   0
        88    417.8695    887.9089 307.7361190  +6.3224733     1046.975     1423.947     1340.447     77.53358     154.8216     309.3051      1.524     5.08     839.2537     54.52005     155.7361        14     1.308     0.728 -86.35   0
        89    103.6071    887.7396 307.8666069  +6.3119747     1574.255     2620.858     2876.425     76.91773     154.5141      309.059      1.831     4.19     838.1146     54.52005       223.51        20     1.396     0.958  87.60   0
        90    671.0583    885.3025 307.6310777  +6.3320403     767.0167     1757.683     1769.128     77.28783     154.6372     309.4588      2.738     6.74     837.6439     54.52005     123.6923        14     2.370     0.538 -66.50   0
        91    498.8166    884.4643 307.7026245  +6.3266123     632.5114     989.8456     1195.939      77.0413     154.6372     309.1821      1.756     4.20     839.0659     54.52005     102.4026         6     0.947     0.560 -63.67   0
        92    885.2738    881.8339 307.5422449  +6.3406399     1958.606     2994.876     2904.587      77.4108     154.6372     309.3051      1.625     3.77     834.4031     54.52005     255.5255        19     1.262     0.952 -68.78   0
        93    856.0651    881.3790 307.5543887  +6.3398513     1718.541     2679.403      2754.14     77.16466     154.6987     309.1821      1.643     3.98      834.986     54.52005     221.0103        18     1.259     0.969 -89.01   0
        94    819.3687    881.0125 307.5696386  +6.3387755     2959.264     4675.919     4957.509      77.0413     154.5141     309.2436      1.709     3.75     835.3661     54.52005     356.7616        24     1.298     1.077 -85.38   0
        95     86.9505    881.0604 307.8737481  +6.3141710      2397.96     3500.209      4172.19     77.53358     154.6372     309.3666      1.571     3.33     837.5941     54.52005     367.1788        18     1.215     0.885 -74.23   0
        96    449.3394    879.5369 307.7233340  +6.3269861     637.7167     932.5686     1320.518     77.53358     154.6987     309.3358      1.681     4.01     838.9037     54.52005     111.5259         7     0.994     0.665  82.00   0
        97    334.6077    879.2682 307.7709812  +6.3232436      672.988      1070.03     1287.646      77.0413     154.4525     309.2128      1.343     4.14     840.5499     54.52005     93.10919         7     1.034     0.474  82.69   0
        98    555.2288    872.2899 307.6796103  +6.3335307     340748.4     511803.3     541432.8     77.65616     154.4525     309.2128      1.652     3.39     838.5834     54.52005     46561.25       189     1.717     1.384 -83.21   0
        99    643.1069    875.2465 307.6430216  +6.3352556     1318.762     1819.265     1707.414      77.4108     154.6372     309.4281      1.461     4.37     838.0687     54.52005     187.4494        12     1.191     0.757  83.91   0
       100    342.6748    873.2172 307.7678354  +6.3260128     12853.65     19376.12     20730.59      77.0413     154.4525     309.1821      1.618     3.35     840.4429     54.52005     1651.003        44     1.460     1.164 -84.77   0
       101    661.1473    869.6801 307.6357176  +6.3381581     3566.818     5448.325     5849.008     77.53358     154.6987     309.3051      1.605     3.47     837.4725     54.52005     523.1623        27     1.421     0.961 -84.88   0
       102    893.5339    868.4408 307.5392637  +6.3464454      5176.77     8129.849     8672.438     77.53358     154.6372     309.3973      1.732     3.54     833.8228     54.52005     597.9772        33     1.441     1.129 -81.81   0
       103    888.5103    868.3770 307.5413519  +6.3463038     641.2634     1028.477     685.5017     77.53358     154.5141     309.1821      1.460     4.52     833.9446     54.52005     112.2733         5     1.202     0.483  83.25   0
       104    732.5989    865.3974 307.6061923  +6.3423189     790.2335     1177.342     851.7811     76.91773     154.2677      309.059      1.622     5.24      836.399     54.52005     127.4512         9     1.224     0.635  88.24   0
       105    635.8073    863.5997 307.6464438  +6.3398195     3286.276     4903.371     5326.211     76.91773     154.3909     309.1205      1.544     3.60     837.8961     54.52005     468.2607        23     1.329     0.928 -76.59   0
       106    824.1719    862.8065 307.5682545  +6.3464526     1647.469     2674.199     2737.363      77.0413     154.5757     309.1205      1.707     4.01     834.9676     54.52005     230.5765        18     1.228     1.050  78.19   0
       107    950.9323    862.2310 307.5156373  +6.3509270     744.3787     1223.054     1393.781      77.4108     154.6987     309.2744      1.987     5.15      832.006     54.52005     83.97388        10     0.987     0.759 -58.46   0
       108    626.1602    861.9644 307.6505045  +6.3401713     1027.161     1337.384     1589.151     77.28783     154.5757     309.1205      1.301     3.31     838.0626     54.52005     164.2129         8     0.963     0.610  77.95   3
       109    628.8664    858.0948 307.6495108  +6.3418596     2264.139     3562.742     3848.709     77.53358     154.8216     309.3051      1.737     4.06     837.8484     54.52005     294.0968        23     1.393     0.961 -79.43   2
       110    912.4222    856.3837 307.5318244  +6.3520545     3094.146     4924.081     5304.052     77.28783     154.5141     309.2436      1.731     3.78     833.0618     54.52005      388.487        24     1.383     0.999 -80.79   0
       111    399.5101    874.7777 307.7441841  +6.3272779     7790.096     11854.18     12731.88     77.53358     154.5141     309.1821      1.634     3.29     839.1555     54.52005     1038.244        39     1.506     1.130 -68.91   0
       112    322.6998    856.8533 307.7766806  +6.3320973     917.8836     1470.923     1019.221      77.4108     154.6987     309.5203      1.666     3.40     840.2785     54.52005     171.5154         8     0.979     0.737  78.11   0
       113    370.4839    852.0162 307.7570027  +6.3356999     2847.352     4088.419     4293.779     77.16466     154.3909     309.2128      1.532     3.32     839.4069     54.52005     380.1375        18     1.133     0.939 -75.02   0
       114    506.7987    841.9989 307.7007383  +6.3444119     3138.148     4513.592     4179.322     76.91773     154.2677     308.9974      1.496     3.25     837.5982     54.52005     424.3112        20     1.152     0.985 -78.48   0
       115    851.4701    840.9680 307.5576512  +6.3563816     1064.711     1523.763     2150.534      77.4108     154.6987     309.3358      1.960     4.98     834.1712     54.52005     158.3428        14     1.273     0.882 -64.56   0
       116    571.9271    839.6384 307.6737742  +6.3475708     913.8715      1281.78     1553.746      77.4108     154.6372     309.3666      1.711     3.81      837.588     54.52005     132.2677         9     0.994     0.698 -87.27   0
       117    553.6943    838.0728 307.6813977  +6.3476058     6089.668     9031.428     9966.082      77.4108     154.7601     309.3358      1.601     3.33     837.5273     54.52005     781.6274        29     1.350     1.034 -68.21   0
       118    560.4467    837.6278 307.6786088  +6.3480160     1447.978     2126.418     2570.652     77.16467     154.7601     309.2128      1.700     4.45     837.5264     54.52005     172.3914        15     1.214     0.867 -77.88   0
       119    471.4483    837.0157 307.7155846  +6.3452830     1643.156     2466.255     2039.739      77.0413     154.6987     309.0898      1.526     4.12     837.5014     54.52005     206.5798        17     1.321     0.819 -73.50   0
       120    889.3101    836.4370 307.5420899  +6.3595173     1318.385     1921.355     1840.052     77.65616     154.6372     309.3358      1.614     4.23     833.1097     54.52005     173.1342        15     1.248     0.820 -87.32   0
       121    265.3627    837.6935 307.8011337  +6.3380796     660.8759     962.9436      320.782     77.65616     154.5757     309.3973      1.407     4.78     839.5869     54.52005      87.3028         8     0.967     0.671 -71.97   0
       122    113.0780    836.4726 307.8644056  +6.3334585     1368.375     1959.107     1757.108     77.77855     154.9444     309.3051      1.542     5.07     836.9122     54.52005       195.59        13     1.187     0.769  88.92   0
       123    689.4480    834.7662 307.6251384  +6.3535203     730.1431     1054.829     1021.131     77.28783     154.6987     309.2436      1.502     5.26     836.0966     54.52005     117.8527         8     0.993     0.786 -72.58   0
       124    524.3281    831.9827 307.6937964  +6.3491352      19950.2     30588.99     32037.33      77.0413     154.6372     309.2128      1.631     3.39     837.3447     54.52005     2760.843        56     1.535     1.189 -80.19   0
       125    938.0350    830.3351 307.5220611  +6.3636646     3717.099     5902.054     5944.515      77.4108     154.6987     309.3358      1.686     3.47     831.5941     54.52005      474.092        34     1.549     1.124  86.30   0
       126    365.5435    833.4425 307.7596796  +6.3432020     709.3472     1036.654     991.4505      77.4108     154.6372     309.3051      1.782     3.72     838.9889     54.52005     108.7645         6     0.960     0.414  71.33   0
       127     58.4071    828.2646 307.8873825  +6.3350053     741.1535     1067.348     910.5699      77.0413     154.4525     309.1205      1.490     4.11     835.7579     54.52005     117.8063         7     0.996     0.483 -84.13   0
       128     34.8921    822.4900 307.8973412  +6.3365967     1498.788     2397.505     2297.981     77.53358     155.1898     309.3666      1.609     3.30     835.4321     54.52005     225.3751        17     1.218     0.867 -75.01   0
       129    317.0244    820.6768 307.7802561  +6.3468417     3387.139     5121.333     4464.142     77.16466     154.5757     309.2744      1.601     3.45     839.2409     54.52005     489.0262        27     1.288     1.109 -79.45   0
       130     16.8734    818.8571 307.9049455  +6.3374891     2207.968     3361.608     3255.067     77.53358     154.6372     309.2744      1.615     4.25     835.2625     54.52005     304.2839        21     1.436     0.921 -83.14   0
       131    782.5067    816.5891 307.5871058  +6.3641400     55146.36     83582.59      88205.5     77.28783     154.3909     309.0898      1.673     3.38     835.2885     54.52005     7038.168        76     1.553     1.265 -85.88   0
       132    721.0894    818.3622 307.6125500  +6.3613523     655.6536     1011.873     1729.539     77.53358     154.6372     309.3358      1.734     5.85     835.5519     54.52005     137.9772         9     1.663     0.652  81.08   0
       133    239.3038    792.9086 307.8134641  +6.3556922     773624.1      1806857      2020491     77.53358     155.1898     309.2744      2.320     5.41     837.5771     54.52005     63634.56       673     2.901     2.106 -87.12   4
       134    710.7705    811.1775 307.6170761  +6.3639731     21185.94     32841.19     35791.12     76.91773     154.5141     309.1513      1.664     3.41     835.4294     54.52005     2814.668        54     1.568     1.194 -80.35   3
       135    704.4689    807.6613 307.6198109  +6.3652138     89894.54     134311.9     141973.8     77.65617     154.6987     309.3358      1.652     3.34     835.3751     54.52005     11667.67        88     1.605     1.249 -78.54   3
       136    349.3191    808.4815 307.7672573  +6.3529619     21162.06     31777.83      33643.8     77.53358     154.9444     309.3973      1.640     3.40     838.5428     54.52005     2747.237        55     1.541     1.166 -82.97   0
       137    411.2104    806.3385 307.7416299  +6.3559257     22703.28     34276.19     36058.17     76.91773     154.5141     309.0898      1.618     3.36     837.5251     54.52005     3160.188        51     1.500     1.164 -81.63   0
       138    398.5269    808.7311 307.7468161  +6.3545120     1484.365     2069.251     1610.326     77.65616     154.8216     309.3051      1.503     3.89     837.7725     54.52005     240.4668        14     1.175     0.781 -87.15   0
       139    638.0258    808.0353 307.6473890  +6.3628337     851.5636      1204.94     1451.271      77.0413     154.5141     309.0898      1.500     3.78     835.9272     54.52005     149.9706         9     0.884     0.775  25.23   0
       140    948.4606    805.3545 307.5185683  +6.3743264     1973.264     2983.749     3441.159      77.4108     154.6372     309.3666      1.633     3.01     830.6456     54.52005     289.8837        18     1.181     0.890 -89.19   0
       141    904.6967    803.2670 307.5368118  +6.3737260     6589.093     10379.85     10795.97     77.53358     154.7601     309.3358      1.704     3.44     831.7736     54.52005     805.0175        35     1.408     1.180 -82.25   0
       142    425.8828    815.3000 307.7352358  +6.3527187     838.0974     1325.415     865.0385     77.53358     155.1898     309.3973      1.679     5.40      837.454     54.52005     133.6313         9     1.348     0.718 -53.33   0
       143    877.5267    804.4572 307.5480546  +6.3723265     761.5396     1189.692     1317.368     77.53358     154.6987     309.2744      1.695     3.06     832.5963     54.52005     143.3844         6     0.848     0.499 -89.02   0
       144    645.2298    802.2003 307.6445935  +6.3654841      6526.35     9801.549     10656.83     76.91773     154.5141     309.1205      1.598     3.39     835.6295     54.52005     893.4685        31     1.376     1.051 -75.72   0
       145    135.5469    801.7905 307.8562470  +6.3485333     533.4555     874.6591     788.4122     76.91773     154.5757     309.0282      1.244     2.32     836.4084     54.52005     115.4814         5     0.687     0.482  75.28   0
       146    433.8503    800.1227 307.7324382  +6.3592521     1627.033     2281.611      2564.49     77.53358     154.7601     309.2744      1.534     3.84     837.0753     54.52005     210.7132        16     1.191     0.887 -81.89   0
       147    159.2698    799.7495 307.8464657  +6.3501746     672.7057     935.2533     1037.668      77.4108     154.6372     309.3358      1.384     4.48     836.9302     54.52005     110.0789         6     0.906     0.629  71.55   0
       148    598.3732    794.1479 307.6643214  +6.3672382     871.1182     1414.271     1846.252     77.16466     154.8216     309.2436      1.995     4.96      835.924     54.52005     126.9858        10     1.173     0.625 -86.54   0
       149    872.9521    794.2130 307.5502976  +6.3764030     799.2264     1384.337     1608.251     76.91773     154.5757     309.0282      1.845     2.99      832.466     54.52005     133.9202         8     0.815     0.677  43.80   0
       150    680.2711    792.4236 307.6303708  +6.3706943     2555.915     3730.971     3781.908     77.16467     154.5757     309.2436      1.523     3.59     835.0468     54.52005     389.1575        18     1.334     0.801 -74.97   0
       151    149.3243    793.1292 307.8508187  +6.3525729      1024.81     1488.223     1260.401     77.77855     154.8216     309.3051      1.389     5.45      836.437     54.52005     128.2554        11     1.272     0.658 -62.07   0
       152    124.6302    792.8361 307.8610822  +6.3518624     1164.087     1664.255     1518.122     77.16466     154.4525     309.1513      1.559     4.85     835.8868     54.52005     173.8454        13     1.275     0.819 -77.55   0
       153    414.1504    789.0053 307.7409927  +6.3631804      54223.4     82951.78     88247.62     76.91773     154.5141     308.9359      1.600     3.37     837.0393     54.52005     7592.773        87     1.566     1.316 -80.44   0
       154    531.8854    788.0214 307.6921366  +6.3675381     7118.141     10705.53     10831.76     77.28783     154.4525     309.2436      1.567     3.31     836.0784     54.52005     954.8894        32     1.405     1.050 -86.61   0
       155    448.6542    786.5786 307.7267468  +6.3653408     4463.821     6849.103     8325.055      77.0413     154.6987     309.1205      1.680     3.26     836.4971     54.52005      550.907        31     1.401     1.076 -80.18   2
       156    445.3483    780.1917 307.7283345  +6.3678666     2488.296     3813.769     4422.719      77.0413     154.5757     309.0282      1.694     3.75       836.36     54.52005     348.7697        20     1.298     0.926  86.91   2
       157    777.1337    784.6640 307.5904079  +6.3771407     11624.59     17623.79     18418.32     77.53358     154.6987     309.3051      1.637     3.45     834.4407     54.52005     1575.412        43     1.477     1.144 -84.04   0
       158      6.7209    780.4637 307.9104586  +6.3529969     1167.476     1433.984     1611.891     77.77855     154.7601     299.7473      1.449     5.22     834.3734     54.52005     157.4302        11     1.087     0.709 -73.81  16
       159    798.8820    779.0600 307.5815645  +6.3801820     1309.056     1887.642      2075.13     77.65616     154.6987     309.3358      1.575     3.61     834.0298     54.52005     206.2488        14     1.105     0.871 -58.60   0
       160    134.8146    776.6248 307.8574007  +6.3588979     11729.27     17854.79     19525.74     77.28783     154.5141     309.2436      1.638     3.32     835.6425     54.52005     1653.617        46     1.478     1.200 -72.05   0
       161    966.7795    778.5530 307.5118585  +6.3860036      642.692      908.302     1720.976     77.16467     154.6987     309.1513      1.508     3.69     829.5598     54.52005     84.39062         5     0.982     0.400 -82.91   0
       162    143.0941    776.8130 307.8539564  +6.3590990     3072.053     5009.118     5135.355     77.28783     154.4525     309.1513      1.694     3.71     835.7827     54.52005     436.2657        25     1.461     0.979 -63.49   0
       163    922.5768    773.3384 307.5303894  +6.3866798      6373.66     9906.316     10281.21     77.16467     154.6372     309.2128      1.679     3.52     830.4873     54.52005     768.5116        37     1.467     1.151 -79.26   0
       164    126.9880    774.0259 307.8607383  +6.3597073     2908.353     4725.419     5391.222     77.16467     154.5141     309.2436      1.741     3.54     835.4217     54.52005      413.013        28     1.396     1.138 -85.07   1
       165    971.9967    773.3886 307.5098648  +6.3883100     1440.108     2296.485      3295.09     77.16466     154.3909     309.1821      1.761     3.65      829.299     54.52005     236.6163        16     1.200     0.916  76.93   0
       166    907.7613    811.7795 307.5352540  +6.3703140      8403.46     12959.24     13528.08     77.16466     154.5141      309.059      1.650     3.41     831.9356     54.52005     1069.129        39     1.466     1.129 -84.95   0
       167    677.8974    771.0051 307.6320757  +6.3794575     1674.962     2674.257     2641.906     77.28783     154.3909     309.0282      1.662     4.39     834.6411     54.52005     229.4514        19     1.388     1.001 -72.35   0
       168    565.0217    770.1963 307.6789759  +6.3760085     2226.327     3345.123     3297.441     77.16466     154.3909     309.0898      1.616     3.97     835.3115     54.52005     291.2631        23     1.392     1.003 -73.22   0
       169    412.8909    769.5583 307.7421704  +6.3711667      1211.89     1991.701     2226.662     77.53358     154.6987     309.3666      1.836     4.15     836.4737     54.52005     160.3868        15     1.128     1.002  67.39   0
       170    127.2420    767.3981 307.8608566  +6.3624521     2060.434     3011.022     3380.091     76.91773     154.3909     309.0282      1.535     3.57     835.2334     54.52005     296.1481        18     1.257     0.862 -83.19   1
       171    946.3207    764.7983 307.5208151  +6.3909989      2906.54     4527.937     4678.155     76.91773     154.1443     309.0898      1.647     3.57      829.726     54.52005     395.5198        26     1.372     1.099 -77.82   0
       172    916.9451    765.1679 307.5330018  +6.3898649     2927.851     4785.231     5557.269      77.4108     154.6987     309.2436      1.748     3.58     830.4486     54.52005       377.11        29     1.480     1.184  89.14   0
       173    977.2125    764.6539 307.5079912  +6.3920904     1911.132     2883.064     3572.303     76.91773     154.6372     309.0282      1.712     3.31     828.9925     54.52005      298.068        16     1.151     0.865  86.81   0
       174    669.2502    764.2538 307.6358933  +6.3819552     1510.975     2164.259     2264.215     77.65616     154.6987     309.3358      1.538     3.52     834.5804     54.52005     203.3267        17     1.199     0.894 -85.94   0
       175    816.2576    762.8115 307.5748939  +6.3874715     1109.303     1534.693     1373.723     76.91773     154.6372     309.0282      1.477     4.39     832.8415     54.52005     169.0883        11     1.146     0.714 -85.62   0
       176    892.3572    760.6268 307.5433648  +6.3909180     744.4976     1102.159     1793.407     77.16467     154.6987     309.1821      2.019     5.20     831.0064     54.52005     104.3013         7     0.914     0.838  52.49   0
       177    241.8194    759.4213 307.8135489  +6.3696017     2008.322     3043.476     3981.468     77.28783     154.6372     309.2436      1.828     3.89     836.5298     54.52005      255.312        20     1.314     0.936 -74.04   0
       178    678.3986    756.8397 307.6323432  +6.3853226     568.5391     1080.561      1577.32     76.67001     154.4525     308.9974      2.112     3.43     834.3663     54.52005     87.14856         5     0.752     0.452 -71.82   0
       179    934.5750    754.9827 307.5260217  +6.3946590     997.9053     1605.535     1540.124     77.28783     154.5141     309.2436      1.765     4.20     829.7437     54.52005     172.8951        11     1.251     0.616 -81.93   0
       180    262.2606    754.5154 307.8052263  +6.3723146     759.7868     1282.833     1439.143     77.65616     154.7601     309.3666      1.756     3.84     836.5217     54.52005     125.0477         8     0.919     0.713 -59.62   0
       181    157.2075    754.3394 307.8488547  +6.3688522     939.9199     1242.724     988.5187     76.91773     154.5141     309.0898      1.505     5.25     835.1763     54.52005     140.4705        11     1.180     0.661 -57.95   0
       182    961.3240    752.7120 307.5149893  +6.3964900     2420.814     3807.835     3764.295     77.53358     155.0058     309.3973      1.676     3.60     829.0862     54.52005     307.5564        20     1.327     0.895 -71.66   0
       183    908.6061    753.5635 307.5368536  +6.3943772     1218.787     1825.028     2263.967     76.67001     154.4525     309.1205      1.578     3.44     830.3759     54.52005     174.6029        11     1.007     0.773  77.89   0
       184    680.7758    751.8739 307.6315228  +6.3874523     1042.239     1763.873     2240.237     77.16466     154.5141     309.2436      1.941     4.67     834.2255     54.52005     145.7537        10     1.120     0.613 -71.42   0
       185   1003.2775    745.9586 307.4977927  +6.4006792     1657.155     2663.495     2387.942      77.4108     154.6987     309.3666      1.652     4.45      827.942     54.52005     236.6129        20     1.413     0.971  67.73   0
       186    471.7807    747.6292 307.7184542  +6.3821972     641.7042     915.9449     742.7568     77.16467     154.5141     309.2436      1.406     4.49     835.1707     54.52005     101.3177         5     1.182     0.485  58.17   0
       187    804.2431    744.6305 307.5804929  +6.3945758     1066.932     1705.632     1767.605     77.16467     154.6372     309.1513      1.835     4.87     832.1646     54.52005     171.1655        11     1.168     0.649 -83.46   0
       188    628.9612    745.9948 307.6532374  +6.3881436     522.9639     596.4733     786.5752     76.67001     154.4525      309.059      1.167     3.16     834.3141     54.52005     101.3439         5     0.950     0.380 -28.63   0
       189    890.6448    741.8128 307.5447063  +6.3986283     1367.473     2152.567     2562.285      77.0413     154.5141      309.059      1.718     4.33     830.5095     54.52005     176.0948        14     1.258     0.772  84.32   0
       190    864.7991    736.9178 307.5556037  +6.3997852     903.0317     1303.625      1215.48     76.79397     154.2677     309.0282      1.693     5.53     831.0052     54.52005      133.094        11     1.481     0.582 -81.02   0
       191    847.3470    733.2081 307.5629757  +6.4007333     1494.482     2086.183     1732.474      77.0413     154.5757     309.0282      1.517     3.50     831.1544     54.52005     221.8852        18     1.221     0.923 -74.83   0
       192    110.6194    731.4775 307.8689718  +6.3767215     897.4941     1842.251     2093.984     77.16467     154.4525     309.2744      2.353     7.30     834.2662     54.52005     143.6316        18     1.910     0.813  89.33   0
       193     46.5392    731.9424 307.8955648  +6.3743704     2564.476     3926.762     3829.488     77.65616     154.6372     309.3358      1.619     3.42     833.1832     54.52005     349.5865        20     1.226     0.952 -85.11   0
       194    564.4914    726.9833 307.6806489  +6.3938313     660.9305     892.9282     759.7198     77.28783     154.4525     309.2128      1.383     3.73     833.7697     54.52005     92.93201         6     0.802     0.499 -86.91   0
       195    659.2697    720.5792 307.6415048  +6.3996520     6295.965     9264.418     10000.76     77.16467     154.5757     309.2436      1.600     3.23     833.3802     54.52005     861.9689        34     1.479     1.012 -79.35   0
       196    606.0962    719.8358 307.6636116  +6.3981770     1371.688     2175.973     2399.928     77.65616     154.5757     309.4588      1.923     3.47      833.455     54.52005     192.7928        17     1.216     0.882 -83.87   0
       197    527.7529    719.8736 307.6961445  +6.3955343     718.6274     1166.116      1108.51      77.4108     154.7601     309.3051      1.914     4.44     833.7335     54.52005     97.70892         7     1.074     0.523 -21.29   0
       198    516.5065    720.0701 307.7008082  +6.3950759     757.9459     960.8903     975.3243     77.53358     154.7601     309.3051      1.404     3.23     833.8659     54.52005     120.0762         8     0.866     0.666  31.13   0
       199    122.2479    716.3299 307.8646547  +6.3833667     3807.266     5729.464     6154.286     77.53358     154.6372     309.3358      1.622     3.44     834.0551     54.52005     538.0292        24     1.352     0.948 -71.13   0
       200    996.1776    715.6162 307.5017570  +6.4129694     2486.742     4065.004     3992.206     77.28783     154.5141     309.2436      1.714     4.49     827.5138     54.52005     324.1173        24     1.313     1.157  74.81   0
       201    776.0937    712.6904 307.5932544  +6.4068206     20707.53      30754.8     32213.99     77.53358     155.1898     309.3358      1.573     3.34     831.7683     54.52005      2873.12        53     1.531     1.150 -81.40   0
       202    633.0399    716.1230 307.6525472  +6.4006129     2120.053     3263.354     3306.638      77.4108     154.6987     309.3358      1.631     4.54     833.2382     54.52005     244.1106        19     1.248     1.072  77.10   0
       203    308.5044    716.4194 307.7873076  +6.3895973     749.8745     1192.761     1128.109      77.4108     154.5141     309.1205      1.796     5.14     834.7984     54.52005      129.806        11     1.093     0.902 -70.30   0
       204    244.7677    716.2513 307.8137806  +6.3875233     693.5246     1206.924     1189.545      77.4108     154.7601     309.2436      1.741     4.05     834.9405     54.52005      113.029         7     0.864     0.611  61.37   0
       205    906.1495    712.4432 307.5392515  +6.4112720     3845.995     5831.906     5859.012     77.65616     154.6987     309.3358      1.634     3.52     829.4659     54.52005     531.6896        29     1.368     1.116 -87.09   0
       206    503.9797    712.5237 307.7062641  +6.3977711     926.9169     1512.103     1530.159     77.16466     154.4525     309.2436      1.739     6.30     833.7964     54.52005     128.9558        13     1.385     0.806  89.63   0
       207    475.3539    713.0269 307.7181347  +6.3966027     1390.823     2044.394     1759.627      77.0413     154.7601     309.2128      1.512     3.58     834.1364     54.52005     195.3034        14     1.067     0.923 -87.75   0
       208    320.9200    712.6611 307.7822786  +6.3915663     619.1791     956.5768     729.1319     77.65616     154.6987     309.3051      1.819     4.68     834.6725     54.52005     97.32031         6     1.169     0.531 -68.91   0
       209    277.5972    711.8748 307.8002954  +6.3904343     617.3887     787.1567      631.086      77.0413      154.206     309.1821      1.330     4.67     834.6536     54.52005     94.01807         8     1.059     0.584  70.97   0
       210    249.5728    706.2576 307.8121222  +6.3918107     6205.972     9621.856     9834.535     77.16467     154.7601     309.2128      1.666     3.37     834.5012     54.52005     798.6606        33     1.437     1.078 -83.20   0
       211    656.6060    705.5046 307.6431173  +6.4057864     7312.426     10831.02     11443.36     77.28783     154.3909     309.1205      1.626     3.21     832.7443     54.52005     955.4696        36     1.391     1.116 -78.53   0
       212    638.9661    706.5933 307.6504064  +6.4047459     967.6856     1393.516     1670.929     76.91773     154.5141     309.0898      1.592     4.14      832.858     54.52005     142.3566        10     1.081     0.673 -50.43   0
       213    351.6398    705.5010 307.7697630  +6.3955548     806.7462     923.2631     972.0764     77.53358     154.5757     309.5203      1.310     4.39     834.4518     54.52005     114.5305         9     1.002     0.666  84.56   0
       214    916.5410    698.3202 307.5354092  +6.4174501      1283.92      1862.81     2214.862     77.65617     154.6987     309.2744      1.551     3.41     828.8674     54.52005      201.089        12     1.123     0.721 -87.96   0
       215    728.4042    693.8774 307.6136907  +6.4129914     3689.599     5764.439     6484.961     77.16466      154.206     309.1205      1.703     3.64     831.8107     54.52005     505.9083        25     1.462     0.914 -89.71   0
       216    683.8083    694.1072 307.6322033  +6.4114031     1124.937     1939.701     2269.605     77.16466     154.3909     309.1205      1.960     4.71     832.0759     54.52005     162.4271        16     1.367     0.902 -58.88   0
       217    994.6731    690.5900 307.5032196  +6.4232515      8834.26     13472.15        14046      77.0413     154.3293     309.1821      1.657     3.40     827.0768     54.52005     1051.675        37     1.481     1.079 -80.59   0
       218    933.1422    690.8931 307.5287635  +6.4210711     2436.716     3663.872      3926.49      77.4108     154.6372     309.4281      1.552     3.28     828.3037     54.52005     361.5637        21     1.254     1.062 -84.28   0
       219    735.5620    691.7434 307.6107898  +6.4141121     466.7921     773.4779     1507.883     77.53358     154.7601     309.3051      2.031     3.47     831.7091     54.52005     83.58002         5     0.781     0.446  70.15   0
       220     13.9829    690.1835 307.9104949  +6.3905124     1902.164     3138.135     3969.888     77.28783     154.3909     309.2436      1.818     4.78     832.6812     54.52005       251.49        19     1.557     0.805 -84.17   2
       221     10.1936    689.4814 307.9120922  +6.3906744     583.8887     901.1857     1286.964     77.16467     154.2677     309.1205      1.719     4.20     832.6426     54.52005     86.19531         5     1.227     0.410  14.05   3
       222    982.7692    690.3943 307.5081699  +6.4229347     518.4044     985.3299     1128.711     76.91773     154.5757     309.0898      2.140     3.48      827.295     54.52005     81.64478         5     0.756     0.463 -15.32   0
       223    547.3817    688.7526 307.6890396  +6.4090410     653.9911     1179.039     904.5908      77.0413     154.6987     309.1205      1.788     6.11     832.3444     54.52005     84.10205        10     1.369     0.766 -78.74   0
       224     72.0388    685.2033 307.8865554  +6.3945253     25543.59     39457.37     41747.14     76.67001     154.5141      309.059      1.643     3.45     833.2723     54.52005      3607.76        59     1.529     1.256 -80.20   0
       225    533.3168    686.2484 307.6949648  +6.4096031     2169.336     3292.869     3123.154     77.53358     154.6987     309.3358      1.607     3.78     832.4339     54.52005     305.0844        19     1.313     0.909 -62.78   0
       226    430.8590    687.7673 307.7374626  +6.4055373     693.1854     1002.344     696.9195      77.4108     154.7601     309.2744      1.434     2.86     833.4968     54.52005     118.6174         8     0.808     0.662 -49.20   0
       227    502.1290    683.5762 307.7080065  +6.4096599     1355.425     2259.188     2457.625     77.16466     154.5757     309.2436      1.741     4.52     832.8948     54.52005     186.2814        16     1.304     0.884 -75.44   0
       228    923.1827    682.3237 307.5331868  +6.4242763     1064.406      1552.97     1092.579      77.0413     154.4525     309.2436      1.549     3.90     828.3425     54.52005     153.1085        12     1.040     0.833 -76.77   0
       229    542.2714    679.8929 307.6914598  +6.4125273     945.8467     1416.442     1408.692      77.4108     154.7601     309.3358      1.505     3.76      832.055     54.52005     187.2428        10     1.177     0.736 -88.45   0
       230    718.0109    677.6568 307.6185515  +6.4193402     3513.783     5264.137     5204.048     76.91773     154.6372     308.9974      1.567     3.33     831.3619     54.52005      525.453        26     1.289     1.045 -73.85   0
       231    740.0880    675.9232 307.6094412  +6.4207950     4034.166     5981.787      5870.78     77.53358     155.0058     309.3666      1.541     3.34     831.2662     54.52005     567.0154        25     1.348     1.002 -73.01   0
       232    571.5706    673.7419 307.6794990  +6.4160494     3294.624     4937.997      5282.94     77.16467     154.7601     309.1821      1.610     3.42     831.7719     54.52005     431.8873        25     1.377     0.982 -85.90   0
       233    407.6161    674.0353 307.7475773  +6.4104259     1366.901     2006.606      2300.74     77.16466     154.4525     309.1205      1.622     4.23     833.0374     54.52005     180.8771        14     1.194     0.815 -81.55   0
       234   1012.8839    671.9687 307.4962799  +6.4315475     4970.996     7708.992      8157.11     77.53358     154.5141     309.1821      1.635     3.55     826.4089     54.52005     653.8473        32     1.448     1.088 -86.70   0
       235    315.5191    672.4315 307.7858773  +6.4079933     1616.711     2340.493     2099.576      77.4108     154.6987     309.2744      1.578     3.42     832.9791     54.52005     220.0057        17     1.177     0.899 -75.86   0
       236    232.0547    673.1454 307.8205138  +6.4048914     1638.604     2260.071     1892.999     77.77855     154.6987     309.3051      1.511     4.02     833.2701     54.52005     221.0573        16     1.254     0.864 -86.44   0
       237    978.3946    670.8530 307.5106410  +6.4308565     7921.384     12355.95     12542.32     76.91773     154.4525     308.9666      1.658     3.42     827.0308     54.52005     1072.772        36     1.435     1.119 -78.88   0
       238    698.1995    669.7872 307.6270434  +6.4219257     1128.048     1500.293     1548.014     77.16466     154.3909     309.1205      1.466     4.48     831.1471     54.52005     168.5964        10     1.047     0.713 -82.61   0
       239    423.6152    665.2554 307.7412287  +6.4145880     2849.696     4327.997     4329.097     76.91773     154.6372     309.0282      1.642     3.89     832.6703     54.52005     348.6792        23     1.407     0.923 -82.79   0
       240     89.5756    667.7487 307.8798628  +6.4023221      657.844     1040.101     1230.538     77.16467     154.6987     309.2128      1.611     3.38     833.1984     54.52005     130.9682         7     0.971     0.473  80.37   0
       241    136.7498    664.1497 307.8603945  +6.4053970     24250.59     36795.23     38434.55     77.53358     154.5757     309.2436      1.615     3.28     833.1605     54.52005      3270.05        53     1.512     1.173 -84.04   0
       242    805.0746    664.7030 307.5828285  +6.4276022     1190.486     1840.758     1996.096     77.16466      154.883     309.3358      1.620     4.06     830.5986     54.52005     171.2543        12     1.107     0.718 -81.55   0
       243    356.3979    658.9679 307.7693549  +6.4149256     589.1834     1042.732     1056.697     76.79397     154.5141     309.1205      1.809     4.29     832.8023     54.52005     99.14502         5     1.095     0.479 -84.11   0
       244    973.2787    653.8535 307.5133350  +6.4377041     6717.695     11127.77     12519.59     77.65616     154.6987     309.3358      1.812     3.70     826.8398     54.52005     882.4225        41     1.518     1.262  70.01   0
       245    566.7523    649.0124 307.6823314  +6.4260974     48337.28     72883.25     76716.08     76.91773     154.5757     308.9974      1.594     3.26     831.2334     54.52005      6597.09        69     1.525     1.218 -82.13   0
       246    931.0842    650.8215 307.5309606  +6.4375463      670.813     889.1849     1296.073     77.28783     154.3909     309.1821      1.599     4.04        827.3     54.52005      102.624         5     0.899     0.520 -56.65   0
       247   1023.8625    649.7213 307.4924649  +6.4410991     549.4919      908.677     1401.752     65.13264     120.0036     229.4303      2.015     3.69     826.1698     54.52005     112.3735         5     1.253     0.312 -83.10  24
       248    525.7814    649.2149 307.6993398  +6.4246396     668.7126     998.4464     949.7562     77.28783     154.3909     309.2128      1.655     4.65      831.456     54.52005     87.24512         8     0.967     0.635  85.05   0
       249    210.4454    650.2095 307.8302613  +6.4136331     651.5306     1006.121     1011.607      77.0413     154.5757     308.9974      1.330     3.47     832.7501     54.52005     119.9557         5     0.757     0.459  71.45   0
       250    496.8771    646.4774 307.7114357  +6.4247999     661.8413      987.916     1002.414     77.77855     154.9444     309.3666      1.531     4.34     831.6991     54.52005     102.1063         7     0.932     0.577  83.41   0
       251    174.3208    645.7074 307.8454150  +6.4142758     2723.069     4066.813     4092.733     77.28783      154.883     309.3666      1.642     3.66     832.7621     54.52005     340.5498        23     1.345     0.966 -69.98   0
       252     17.5130    652.9341 307.9102882  +6.4060091     1280.142     1919.504     2149.981     77.53358      154.883     309.3358      1.722     4.52     832.7009     54.52005     154.9393        17     1.236     1.006 -81.38   0
       253     67.0755    639.8673 307.8901483  +6.4130743     1442.235     2216.566     2716.842     77.65616     154.8216     309.3051      1.658     4.00     832.6854     54.52005     189.3721        16     1.270     0.840 -82.96   0
       254    464.0327    632.8167 307.7255357  +6.4293373     62924.48     94608.56     99579.38     77.16466     154.4525     309.1821      1.593     3.31      831.436     54.52005     8852.314        84     1.561     1.266 -77.00   0
       255      7.5653    634.3783 307.9150465  +6.4133341     1792.703     2766.474     3018.581      77.0413     154.5141     305.4058      1.724     3.75     832.6236     54.52005     233.2333        17     1.149     0.954 -75.08  16
       256    650.0510    630.3710 307.6483636  +6.4365859     841.3209     1397.812     1176.941     77.16466     154.8216     309.2128      1.796     5.19     830.6262     54.52005     107.4905         9     1.072     0.709 -82.39   0
       257    138.6107    627.8601 307.8608471  +6.4204414      1598.54     2442.228     2021.765     76.91773     154.5757     309.0282      1.603     3.59       832.46     54.52005     208.3754        16     1.154     0.862 -80.06   0
       258    417.8183    625.6263 307.7449705  +6.4307540      926.598     1386.545     1579.657     77.16466     154.5141     309.2128      1.581     5.34      831.395     54.52005     134.7557        11     1.173     0.686 -76.65   0
       259    933.4292    625.0862 307.5308489  +6.4482497     551.9462     630.1459     266.3647     77.65616     154.3909     309.1821      1.228     4.08     826.5463     54.52005      91.9046         5     0.781     0.609  12.11   0
       260    610.1245    624.4388 307.6651449  +6.4376969     822.9221     1369.152     920.2888      77.4108     154.6987     309.3666      1.680     3.26     830.7255     54.52005     165.5979         9     1.077     0.801  89.77   0
       261     10.2326    624.1765 307.9142838  +6.4176357     645.0205     1260.157     1626.552      77.0413     154.5757     309.1205      1.954     4.18     832.5956     54.52005     130.4703         9     1.233     0.591 -87.17   0
       262    491.6072    624.1460 307.7143757  +6.4338425     541.1866     702.2888     1187.187      77.0413     154.4525     308.9974      1.574     4.51     830.9592     54.52005     73.44366         6     0.977     0.591  21.12   0
       263    309.4774    622.0141 307.7900858  +6.4286046     2225.546     3459.053     3721.197     77.16466     154.3909     309.1205      1.675     3.66     831.7178     54.52005     283.4036        20     1.269     0.941 -82.04   0
       264     16.9959    621.6318 307.9115612  +6.4189143     601.8569     926.2148     1515.612     76.91773     154.5757     309.0898      1.651     4.38     832.5722     54.52005     82.84064         6     1.154     0.473 -70.48   0
       265    461.6630    620.6871 307.7269281  +6.4342654     812.2037      1480.38     1862.179     77.53358      154.883     309.3358      2.141     4.51     830.9962     54.52005     108.1562         9     1.103     0.615  77.27   0
       266    736.0989    616.4037 307.6130957  +6.4452344     5456.685     7936.782     7960.164     77.28783     154.4525     308.9974      1.569     3.38     829.9519     54.52005     770.3411        28     1.401     0.946 -79.97   0
       267   1007.0284    612.0977 307.5007160  +6.4560704      980.907     1546.446     1574.563     77.65616     154.4525     309.3051      1.590     4.58     826.1174     54.52005     165.2943        12     1.217     0.922  75.18   0
       268    789.5949    611.5929 307.5910391  +6.4490111     14114.25     20876.53     22381.26     76.91773     154.4525     309.1513      1.621     3.25     829.2361     54.52005     1825.113        45     1.513     1.085 -80.89   0
       269    613.4683    609.5807 307.6642555  +6.4439431     3092.294     4765.044     4781.927     77.16467     154.5757     309.2436      1.638     3.53     830.4268     54.52005     397.2633        27     1.441     1.046 -69.85   0
       270    531.9290    610.6400 307.6980842  +6.4407714     1103.591     2201.367     2701.581      77.4108     154.6987     309.3666      2.347     8.21     830.4426     54.52005     175.7797        19     2.221     0.874 -73.70   0
       271     34.7723    610.7391 307.9045473  +6.4240105      841.012     1133.617      1545.69     77.16467     154.7601     309.2128      1.633     4.52     832.4449     54.52005     128.5854         8     1.007     0.576 -75.19   0
       272    930.4296    606.1518 307.5327291  +6.4559667       1224.8     1901.533     2314.787     77.16466     154.7601     309.2128      1.620     4.86     826.0382     54.52005     162.1831        14     1.375     0.725 -61.33   0
       273    372.1042    603.3311 307.7647066  +6.4384228     892.2874     1619.001     1928.974      77.4108     154.8216     309.3358      1.840     5.50     830.6788     54.52005      119.351        10     1.229     0.694  85.32   0
       274    225.9535    603.1517 307.8254088  +6.4335823     1278.025     2036.215     2176.865     77.53358     154.5757     309.3358      1.661     3.57     831.3958     54.52005     190.0313        14     1.067     0.910 -84.39   0
       275    865.6299    594.8912 307.5600198  +6.4584498     2724.204     4116.404     4257.327     77.65616     154.4525     309.2744      1.583     3.21     827.2134     54.52005       399.92        22     1.324     0.955  83.73   0
       276    824.4509    592.4200 307.5772057  +6.4580928      2557.61      3833.65     4230.291      77.0413     154.7601     309.1205      1.708     3.54     827.8698     54.52005     333.4545        21     1.267     0.962 -86.29   0
       277    795.4165    588.3520 307.5894010  +6.4588010     2672.598     4150.839     5505.011      77.0413     154.6987     309.0898      1.842     3.43     828.2016     54.52005     378.5883        23     1.301     0.997 -85.85   0
       278    738.3950    589.0527 307.6130603  +6.4566033     676.4668       1184.1     2146.747     76.91773     154.4525     308.9359      2.790     5.15     829.1231     54.52005     99.00775         8     1.180     0.636  78.91   0
       279    805.0291    583.5004 307.5855714  +6.4611256       161286     237031.7     250741.1     77.53358     154.4525     309.3358      1.603     3.36     827.8682     54.52005     22527.18       126     1.642     1.307 -82.28   0
       280    612.6404    586.2476 307.6653836  +6.4535485     529.0768     501.4694     143.4226      77.4108     154.6987     309.1513      1.171     3.79     829.7521     54.52005      88.5459         5     1.012     0.408 -74.20   0
       281    186.6282    581.7672 307.8424621  +6.4410871     58009.86     89696.78     96657.11      77.0413     154.4525     309.0898      1.685     3.35     831.2823     54.52005     7331.347       103     1.736     1.375 -73.05   0
       282    252.4622    587.3091 307.8149343  +6.4410147     7901.056     12194.67     12713.73     77.53358     154.8216     309.3666      1.669     3.45     830.8817     54.52005     1000.432        35     1.459     1.086 -82.07   0
       283    110.6486    578.0495 307.8741416  +6.4400631     6044.502     9428.826     10086.56     77.53358     154.5757     309.2436      1.657     3.33     831.6794     54.52005     769.1635        34     1.439     1.108 -80.82   0
       284    975.8394    575.3695 307.5148999  +6.4701924      1395.57      1873.96     1654.877     77.16466     154.4525     309.1513      1.482     3.38     824.7835     54.52005     216.9881        15     1.166     0.828  87.43   0
       285    224.8550    574.1461 307.8268437  +6.4455200     661.9391      1258.73     1505.284     77.77855     154.6372     309.3051      2.725     6.40     830.4301     54.52005     81.34717        11     1.669     0.688 -66.68   0
       286    996.5147    574.8541 307.5063297  +6.4710957     718.1722      990.923     1360.193     77.53358     154.6372     309.4588      1.313     3.74     824.4901     54.52005     130.8088         6     0.806     0.497 -85.52   0
       287    841.5790    570.8120 307.5708165  +6.4675868     4419.893     6640.775     6923.966     77.16467     154.3909     309.2128      1.566     3.25     826.7745     54.52005     596.4382        28     1.359     1.048 -83.68   0
       288    360.0432    568.9277 307.7708748  +6.4522207     17213.27     26075.22     27459.74      77.4108     154.7601     309.3358      1.583     3.29     829.7163     54.52005     2500.655        47     1.475     1.143 -79.24   0
       289    753.3831    569.4477 307.6074933  +6.4651990     485.8095     858.8237      751.757      77.0413     154.6372     309.0898      2.337     4.28     828.1844     54.52005     67.79596         5     0.982     0.532 -43.50   0
       290    450.0808    568.7459 307.7334868  +6.4553203     761.6194     955.6517     1090.095     77.53358     154.6987     309.3666      1.263     3.38     829.6938     54.52005     128.3853         7     0.837     0.660 -53.95   0
       291    161.8345    567.7546 307.8532319  +6.4460372     1839.106     2708.219     3590.878     77.16466     154.5757     309.1821      1.586     3.57     831.4611     54.52005      254.063        17     1.225     0.889 -88.09   0
       292    237.3334    565.4445 307.8219549  +6.4495323     1036.295     1454.701     1689.027     77.53358     154.6372     309.3358      1.555     5.14     830.1348     54.52005     145.8215        14     1.284     0.927 -59.41   0
       293    795.4861    564.0754 307.5901866  +6.4688261     5951.049     8719.337     9177.158     77.65616     155.0058     309.3666      1.541     3.13     827.1852     54.52005     781.3918        32     1.336     1.095 -81.67   0
       294    526.4117    563.8386 307.7019500  +6.4599082     6344.403     9647.269     10255.76      77.0413     154.5141     309.0282      1.626     3.27     829.2496     54.52005     857.4379        33     1.389     1.072 -74.98   0
       295     99.3260    565.2295 307.8792769  +6.4449741     876.1426     1437.209     1232.379      77.4108     154.6987     309.2744      1.534     2.94     831.5129     54.52005     168.4762         7     0.942     0.465 -85.80   0
       296    384.6361    560.5030 307.7609448  +6.4565252     1428.201     2190.033     2306.552     77.53358     154.5757     309.4588      1.682     4.00     829.5643     54.52005     172.5101        15     1.147     0.946 -22.83   0
       297    173.3670    556.9977 307.8488056  +6.4508664     6586.286     10383.16     11226.61     76.79397     154.5141     309.0898      1.672     3.39     831.0483     54.52005     876.3862        38     1.427     1.182 -82.53   0
       298    571.2170    556.8868 307.6835750  +6.4642812     2328.008     3677.545      3377.86     77.16466     154.4525     309.2128      1.654     4.05     828.9871     54.52005      295.314        24     1.287     1.173 -49.74   0
       299    268.6455    553.3948 307.8093572  +6.4555603     86533.43     132555.8     139775.9     76.91773     154.3909     308.9974      1.659     3.27     829.7374     54.52005     11529.11        95     1.607     1.307 -80.41   0
       300     45.1086    555.6133 307.9021181  +6.4471167       4996.7      7903.16     8081.868     77.28783     154.4525     309.0898      1.674     3.29     832.2434     54.52005     686.8577        32     1.407     1.168  77.02   0
       301    812.0735    556.4203 307.5835540  +6.4725415     1440.277     2062.735     2411.945     77.16466     154.6372     309.2436      1.590     3.55     826.5872     54.52005     196.4396        15     1.076     0.939 -65.13   0
       302    557.9758    550.7387 307.6892812  +6.4663754     907.4512     1113.012      1237.85     77.16466     154.6372     309.2128      1.298     3.05     828.8232     54.52005     143.7926         9     0.923     0.653 -59.81   0
       303    791.8021    545.9338 307.5923255  +6.4761927     16340.31     24146.56     25904.42     76.91773     154.3293     309.0898      1.550     3.19     826.4907     54.52005      2316.87        47     1.454     1.141 -83.54   0
       304    252.4711    548.3907 307.8162434  +6.4570821      1607.56     2121.707      902.811      77.0413     154.3293     309.1513      1.496     3.72     829.5665     54.52005     229.3712        14     1.114     0.884  77.21   0
       305    967.9703    547.2125 307.5191113  +6.4815545     1546.721     2419.407     2555.212      77.0413     154.4525     309.2128      1.553     3.79     823.9053     54.52005     265.4966        14     1.271     0.709 -68.65   0
       306    495.3972    544.2671 307.7154898  +6.4669475     39597.08     65616.91     70875.83     76.91773     154.3909     309.1205      1.800     3.51     828.8909     54.52005     5014.119        84     1.617     1.475 -79.40   0
       307    645.9434    542.9020 307.6530085  +6.4725600     1055.112     1620.274     2366.502      77.4108     154.6987     309.5203      1.787     5.78     827.9072     54.52005     135.1652        14     1.384     0.882 -81.54   0
       308    717.8698    538.5446 307.6232809  +6.4767685     1262.175     2066.775      1596.38     77.53358     154.5757     309.2436      1.787     6.46     827.4788     54.52005     217.8392        16     1.938     0.767  74.02   0
       309    207.6948    540.6801 307.8350997  +6.4587585     1905.966     2871.429     3604.007     77.28783     154.9444     309.3666      1.602     3.74      829.824     54.52005     262.6334        20     1.322     0.929 -62.41   0
       310     43.5107    541.3787 307.9032629  +6.4529393     1155.909     1649.617     1179.029     77.53358     154.5141     309.2128      1.473     3.67     832.1727     54.52005      186.408        11     1.206     0.671  81.68   0
       311    655.2932    539.2701 307.6492472  +6.4743727     2967.177     4644.292     5025.499     77.53358     154.8216     309.3051      1.690     3.51     827.6434     54.52005     413.9497        24     1.378     0.931 -86.54   0
       312    665.6932    539.1243 307.6449326  +6.4747814     1323.687     2030.938     2345.676      77.4108     154.8216     309.3051      1.548     3.78     827.4583     54.52005      168.185        15     1.227     0.794 -48.65   0
       313     74.3859    536.8782 307.8905925  +6.4558380     630.8116     837.0193     1413.505     77.16466     154.4525     309.1205      1.492     4.18     831.5688     54.52005     109.8654         7     1.043     0.479  84.46   0
       314    392.9197    534.9034 307.7583669  +6.4673722     1863.477     3047.267     3563.289     77.28783     155.0058     309.3666      1.835     3.74     828.7033     54.52005     239.4692        18     1.249     0.900 -83.25   0
       315    324.6148    533.1169 307.7867958  +6.4658140     3791.473     5954.682     6075.322     77.16466     154.4525     309.1821      1.672     3.37     828.6523     54.52005     526.5344        26     1.398     0.989 -86.97   0
       316    139.7410    531.7722 307.8636225  +6.4601480     25599.77     39017.36     40963.38     77.16467     154.7601     309.1821      1.616     3.22     830.8964     54.52005     3414.642        56     1.493     1.210 -80.68   0
       317    504.4776    532.4154 307.7121172  +6.4721452     2216.783     3177.699     3198.271     77.16467     154.3909     309.1513      1.527     3.04      828.314     54.52005     318.4067        18     1.184     0.854 -78.56   0
       318    867.8670    531.7029 307.5612093  +6.4846123     1460.258     1963.538     1930.368     77.53358     154.7601     309.3358      1.420     3.58     825.3206     54.52005     225.4888        14     1.170     0.786  86.32   0
       319    104.8586    530.1218 307.8781652  +6.4596542     2725.447     4130.294      4450.17     77.65616     154.6987     309.2436      1.630     3.36     831.0349     54.52005       402.13        23     1.378     0.965 -75.96   0
       320    410.3953    531.3151 307.7512296  +6.4694406     496.1434      540.556     636.1607      77.0413     154.3293     308.9666      1.227     3.52     828.5647     54.52005     96.39648         5     1.038     0.344 -69.23   0
       321    341.4583    528.4354 307.7799581  +6.4683130     1011.036     1634.928     1953.557      77.4108     154.6987     309.2744      1.816     5.36     828.3366     54.52005      144.361        13     1.246     0.845  78.07   0
       322    965.3198    526.4341 307.5209082  +6.4900444     5219.119      7407.12     7863.047      77.4108     154.7601     309.3358      1.573     3.21     823.3801     54.52005       706.83        29     1.309     1.077 -75.10   0
       323    538.7338    518.7574 307.6983488  +6.4789334     1380.453      1950.52      1987.87     77.53358     154.6372     309.3666      1.542     4.18     827.6276     54.52005     169.5537        16     1.291     0.845 -75.38   0
       324      4.0017    516.0994 307.9205258  +6.4620432     24945.35      38279.9     39778.84      77.0413     152.5938     271.1922      1.622     3.28     832.4457     54.52005     3574.369        59     1.545     1.207 -81.66  24
       325    436.7539    512.9385 307.7409009  +6.4779126     42379.18        64486      67499.3      77.4108     154.5757     309.3358      1.611     3.24     827.6584     54.52005     5763.033        66     1.525     1.221 -82.73   0
       326    644.8042    512.6752 307.6544975  +6.4850010     12286.21     18079.27      18921.2     77.16467      154.206     309.2128      1.579     3.24     827.0738     54.52005     1697.468        36     1.359     1.087 -81.08   0
       327    978.9863    511.3905 307.5157356  +6.4967118     1181.624     1928.648     2344.633     77.28783     154.4525     309.2436      1.914     6.15     822.6591     54.52005     155.1992        15     1.532     0.712  79.96   0
       328    284.6995    513.1293 307.8040476  +6.4727236     911.4357     1355.429     1450.705     77.28783     154.8216     309.3358      1.447     3.45     827.9095     54.52005     136.2271         9     0.971     0.646 -59.76   0
       329    201.9162    510.4862 307.8385188  +6.4710292      18785.5     30184.47     31811.02     77.28783      154.883     309.3358      1.721     3.47     829.2762     54.52005      2433.73        54     1.563     1.264  81.91   0
       330    167.7060    511.5475 307.8526911  +6.4694393     1651.871     2443.948     1620.631      77.4108     154.5757      309.551      1.621     3.61     830.0993     54.52005     245.8805        17     1.285     0.839 -71.95   0
       331    907.2958    510.8711 307.5455306  +6.4945309     795.7271      1114.66     1242.088      77.4108     154.7601     309.3051      1.505     3.37     824.1735     54.52005     118.9333         7     0.852     0.585  65.79   0
       332    819.0186    510.2706 307.5822176  +6.4918270     960.4396      1466.07     1297.224     77.16466     154.5757     309.2436      1.632     2.96     825.4821     54.52005     136.8217        10     0.883     0.742 -87.32   0
       333    566.6132    509.3813 307.6870847  +6.4837394     2808.319     4081.086     3523.654     77.28783     154.3909     309.2128      1.542     3.30      827.203     54.52005      395.061        20     1.282     0.866 -71.18   0
       334    940.4572    506.6426 307.5318983  +6.4973849     4828.697     7259.416     7064.787      77.4108     154.6372     309.3051      1.608     3.31      823.368     54.52005      663.465        28     1.415     0.982  88.44   0
       335    613.5526    505.0221 307.6677350  +6.4871131      6467.41     9714.059     10139.25     77.16466     154.6987     309.1821      1.600     3.24      827.014     54.52005     826.5377        33     1.418     1.056 -83.13   0
       336    101.3997    505.0933 307.8804473  +6.4698703     1147.249       1594.7     1344.352      77.0413     154.2677     308.9666      1.569     4.38     830.7584     54.52005      155.726        13     1.139     0.933  78.29   0
       337    512.6960    503.6498 307.7096717  +6.4842968     474.5958     1077.984     1118.431      77.4108     154.6372     309.4588      1.904     3.79     827.0637     54.52005     76.45978         5     1.421     0.290 -55.44   2
       338    963.0082    498.8130 307.5227936  +6.5013708     3327.709     4874.231     4767.667     77.16466     154.5141     309.2128      1.513     3.23     822.6616     54.52005     520.2869        22     1.205     1.013 -72.95   0
       339    525.7691    496.2051 307.7044923  +6.4878090     7210.286     11172.97     11690.45     76.91773     154.5757     309.0898      1.631     3.31      826.701     54.52005      1001.25        31     1.373     1.073 -79.22   0
       340    371.7997    496.3267 307.7684384  +6.4825887     2580.225     3713.019     3910.877     76.79398     154.0826     309.1205      1.550     3.38     826.8854     54.52005      320.796        19     1.226     0.885 -67.65   0
       341    741.2392    496.4132 307.6149890  +6.4949450     564.1719     817.0801     953.7271      77.0413     154.5141     309.0898      1.721     5.40     826.3155     54.52005      77.1178         6     1.525     0.540  73.05   0
       342    401.0217    497.3140 307.7562681  +6.4831629     725.8104     1082.281      1429.94     77.53358     154.4525     309.1821      1.541     3.29     826.9341     54.52005      101.582         7     0.733     0.670  11.50   0
       343     94.4870    496.0286 307.8836246  +6.4733796      531.557     793.5847     774.4328     77.65616     154.4525     309.1821      1.528     4.21     830.7504     54.52005     103.8849         6     1.011     0.500  89.58   0
       344    993.1913    494.4753 307.5104018  +6.5041698     584.6735     708.1254     476.7732     77.16467      154.206     309.1205      1.423     4.77     821.9503     54.52005     92.91217         6     1.021     0.630 -86.91   0
       345    882.2203    492.1332 307.5565742  +6.5014288      3258.39     5126.825     5987.591     77.16466     154.6987     309.2128      1.722     3.38     824.2803     54.52005     462.7457        25     1.283     1.088 -83.16   0
       346    535.3158    492.8102 307.7006413  +6.4895309     714.9169     900.3898     1210.199     77.16467     154.4525     309.1513      1.381     4.09     826.5654     54.52005     130.5031         6     1.087     0.440  81.26   0
       347    889.6806    486.5556 307.5536624  +6.5039809     2267.323     3344.067     3662.731     77.53358     154.6987     309.2744      1.611     3.44     823.9642     54.52005     312.7885        19     1.246     0.918 -81.98   0
       348    929.0722    485.7805 307.5373263  +6.5056176     1353.726     2046.294     2373.794     77.16466     154.5757     309.2436      1.618     5.06     822.8994     54.52005     175.4816        12     1.176     0.724 -76.80   0
       349    108.5472    485.5101 307.8781404  +6.4781957     894.5446     1394.843     1665.157     77.53358     154.5141     309.4281      1.654     5.53     830.4028     54.52005     107.8361        10     1.123     0.779 -89.80   0
       350    713.5474    482.4737 307.6269592  +6.4997727     2976.716     4515.834     4919.027     77.53358     154.7601     309.3358      1.673     3.40     826.0901     54.52005     397.3556        24     1.352     0.939 -88.43   0
       351     75.4611    481.3431 307.8920227  +6.4788010     1995.641     3006.818     3357.144     77.65617     154.6372     309.3358      1.708     4.06     830.8395     54.52005     235.5648        19     1.311     0.943 -76.40   0
       352    424.6936    480.8341 307.7469912  +6.4907617       1096.8      1667.42     2379.592     77.65616     154.5757     309.3973      1.789     4.28     826.1492     54.52005     141.8862        12     1.157     0.832  71.57   0
       353    384.5101    480.4757 307.7636934  +6.4895597     3778.476     5454.263     5557.605     77.53358     154.9444     309.3358      1.594     3.51     826.1574     54.52005     468.1298        26     1.353     0.993 -76.28   0
       354    612.2996    477.2460 307.6691892  +6.4985384     10058.07     14988.02     16336.92     77.53358     154.5757     309.5203      1.636     3.24      825.823     54.52005     1414.484        44     1.471     1.166 -85.74   0
       355    774.9429    473.8637 307.6017466  +6.5053829     16434.21     24252.19     25682.38     77.65616     154.6372     309.3358      1.555     3.29     825.1229     54.52005     2430.189        48     1.464     1.119 -77.92   2
       356    779.0533    469.0555 307.6002007  +6.5075055     1466.104     2222.784     2552.581     77.65616     154.6987     309.2744      1.513     4.46     824.8084     54.52005     211.3297        13     1.295     0.657 -83.37   3
       357    294.5856    473.9831 307.8012617  +6.4892172     2682.407      4000.67     3896.816     77.28783     154.3909     309.2436      1.585     3.60      826.011     54.52005      325.649        22     1.319     0.945 -82.61   0
       358    418.3268    473.5310 307.7498817  +6.4935629     770.2884     1129.013     849.8032     77.65616     154.8216     309.3051      1.608     2.93     825.8862     54.52005     134.2892         6     0.846     0.469 -88.91   0
       359    804.0510    470.8910 307.5897558  +6.5075843     1374.708     1938.033     2101.863     77.53358     154.5141     309.4896      1.560     4.46     824.6653     54.52005     186.2979        16     1.304     0.880 -66.89   0
       360    377.6123    470.7074 307.7668875  +6.4933607     1599.945     2397.883     2819.265     77.28783     154.4525     309.1205      1.700     3.53     825.8104     54.52005     219.3246        13     1.170     0.705 -53.58   0
       361    960.2296    468.8276 307.5249524  +6.5136577     1984.763     3099.873     3420.903      77.0413     154.4525     309.1205      1.673     3.34     821.8528     54.52005     316.5693        16     1.137     0.893 -85.87   0
       362    708.3055    467.4501 307.6296410  +6.5057997      500.189     650.5188     922.8858      77.4108     154.5757     309.4588      1.593     5.60     825.3776     54.52005     99.88177         6     1.150     0.768 -38.64   0
       363    750.5132    464.7089 307.6122013  +6.5083447     2313.834     3375.218     3358.496     77.28783     155.1285     309.4281      1.544     3.78     824.8455     54.52005     307.8741        19     1.309     0.914 -82.14   0
       364    366.3098    466.5893 307.7717207  +6.4946810     698.6902     1037.737     1157.013     77.28783     154.3909     309.0898      1.617     5.60     825.6632     54.52005     92.71277         9     1.018     0.868 -11.24   0
       365    112.2724    465.5318 307.8772682  +6.4865690     4390.779     6540.688      6932.87     77.65616     154.8216     309.3051      1.635     3.33     829.8433     54.52005     569.3903        27     1.307     1.043 -78.49   0
       366   1014.1638    463.5553 307.5027258  +6.5176357      3988.66     7048.066     7352.492     77.28783     154.6372     309.1821      1.878     3.93     820.6669     54.52005     424.4688        32     1.463     1.203  64.31   0
       367    270.4166    462.5995 307.8116841  +6.4931038     1478.005     2418.349     3003.141     77.16467     154.2677     308.9974      1.746     4.30     826.1368     54.52005     189.3159        18     1.376     0.892 -62.25   0
       368    348.3644    460.4124 307.7793825  +6.4966279     3096.811      4859.88     5011.803      77.0413     154.5141     309.0898      1.716     3.44     825.4104     54.52005     396.7454        23     1.270     1.021 -87.06   0
       369    704.3916    458.1968 307.6315775  +6.5094888     1593.327     2649.161     2950.162     76.91773     154.3909     309.1513      1.865     4.39     824.9714     54.52005     202.5294        16     1.162     0.930 -89.80   0
       370    977.9551    457.0625 307.5179836  +6.5191071      595.258     897.9177     1443.808     77.53358     154.6372     309.3358      1.482     3.60     821.1405     54.52005     93.58826         5     0.965     0.386 -61.14   0
       371    236.0099    456.1411 307.8261925  +6.4946124     978.8727     1509.448     1651.676     76.91773     154.5757     309.0282      1.608     3.30     826.6185     54.52005     164.9503        10     0.946     0.716  85.89   0
       372    407.4700    455.8541 307.7549865  +6.5004960     644.3052     847.2891     1201.165      77.4108     154.6372     309.2436      1.652     4.08      825.199     54.52005     103.4434         7     1.006     0.474  79.82   0
       373    545.6614    450.9516 307.6977524  +6.5071592     1018.509      1403.11     1550.295     77.53358     154.6372     309.3666      1.547     3.36     824.4102     54.52005     160.9323         9     1.022     0.581 -76.22   0
       374    816.2023    447.5209 307.5854926  +6.5176393     2037.933     2969.194     3084.881     76.91773      154.206     309.0898      1.553     4.14     823.4543     54.52005     273.7056        18     1.394     0.810 -74.92   0
       375    467.9721    449.0797 307.7300846  +6.5053247     1341.893     1906.886     2148.482      77.4108     154.6372     309.3051      1.534     3.72     824.4296     54.52005     174.6883        13     1.042     0.843 -70.92   0
       376    830.4979    448.4608 307.5795230  +6.5177295     1594.815     2002.549     1850.309     77.28783     154.6987     309.3973      1.396     3.29     823.3746     54.52005     214.6316        13     0.997     0.824 -68.80   0
       377    713.4432    445.5412 307.6282428  +6.5150169     15314.02     22227.84     23287.07      77.4108     154.6987     309.3973      1.612     3.26     824.2178     54.52005      1982.78        47     1.460     1.157 -78.64   0
       378    615.7933    447.5219 307.6687373  +6.5109271     639.7506     1064.022     1012.068     77.16467      154.206     309.0898      1.730     4.77     824.0472     54.52005     92.72595         6     0.930     0.695  82.28   0
       379   1003.5389    442.4109 307.5078472  +6.5260106      538.851     550.1633     170.0441     76.91773     154.5757     309.0282      1.251     4.13     820.0964     54.52005     97.39838         5     0.989     0.493 -85.07   0
       380    634.6002    441.4944 307.6611281  +6.5140460     2612.653     3866.773     4582.224      77.0413     154.3293     308.9051      1.633     3.87     823.9905     54.52005     350.8259        20     1.338     0.850 -86.87   0
       381    707.1626    440.5697 307.6310186  +6.5168590     574.5414      935.058     1133.234     77.16466     154.4525     309.1821      1.890     3.53     824.0717     54.52005     89.92896         5     0.796     0.451 -18.11   0
       382    609.6383    438.4571 307.6715987  +6.5144632     5558.033      8600.37     9499.193     77.53358     154.7601     309.3051      1.710     3.46     823.3024     54.52005     659.6352        26     1.336     1.016 -80.70   3
       383    605.9126    435.9911 307.6732291  +6.5153563     14292.19     22036.81     24005.34     77.16467     154.3909     309.0898      1.607     3.27      823.172     54.52005     2041.444        43     1.480     1.126 -77.07   3
       384    938.6199    435.5324 307.5350443  +6.5266819     3880.624     5741.572     5778.312     77.16467     154.6987     309.2436      1.580     3.29     821.3701     54.52005     574.2737        23     1.278     0.975 -85.73   0
       385    377.8503    431.3149 307.7681160  +6.5096316     28753.05     43814.42     45888.86     77.53358     154.6372     309.3666      1.634     3.36     824.2333     54.52005     3930.658        58     1.513     1.216 -76.20   0
       386    414.3338    432.8528 307.7529104  +6.5102225     567.8266     797.8345     682.3962     77.53358     154.6372     309.2436      1.362     4.67     824.3019     54.52005     76.24091         6     0.997     0.620  22.95   0
       387    894.2965    430.8921 307.5536112  +6.5271163     1546.308     2490.037     3246.331     77.53358     155.1898     309.2744      1.911     4.10     822.0228     54.52005     206.2048        15     1.149     0.915 -71.52   2
       388    123.8796    430.7273 307.8736231  +6.5013285     2350.356     3538.493     4295.994     77.77855     154.9444     309.3051      1.633     3.44     828.5765     54.52005     311.5454        16     1.178     0.839 -76.03   0
       389    907.5338    425.7813 307.5482839  +6.5296688     5027.084     7276.588     7657.403     77.16467     154.6987     309.2128      1.527     3.07     821.6505     54.52005     690.6323        27     1.337     0.950 -81.88   0
       390    588.8688    427.7917 307.6805844  +6.5181699      650.554     853.0236     1034.415      77.0413     154.4525     309.2128      1.331     3.65     822.7933     54.52005     98.41681         8     0.843     0.661 -46.83   0
       391     57.5692    425.9800 307.9013250  +6.5010535     1451.113     2206.539     2502.083      77.0413     154.5141     309.1821      1.806     4.01     829.9942     54.52005     204.6019        16     1.129     1.016 -46.55   0
       392    963.5434    424.2895 307.5250680  +6.5321563     656.6813     1038.811     868.9509      77.4108     154.6372     309.4281      1.870     5.25     820.4444     54.52005     114.8741         8     1.161     0.670  72.22   0
       393    235.3954    421.8309 307.8276056  +6.5087563     13922.81     21452.05      22643.3      77.0413     154.5757     309.0898      1.632     3.26      824.976     54.52005     1836.421        42     1.467     1.140 -79.58   0
       394   1007.6260    415.2495 307.5070591  +6.5373608     549.2905     646.8918      413.217     77.16467     154.7601     309.2128      1.150     4.31     819.0286     54.52005     104.5722         7     1.080     0.670 -84.15   0
       395    958.6915    414.5285 307.5274105  +6.5360241     970.8577     1552.586     1740.477      77.4108      154.883     309.3051      1.672     4.72     820.2614     54.52005     151.4384         9     1.274     0.500 -72.68   0
       396    730.3477    415.6731 307.6222241  +6.5279141     735.7927     1051.776     816.4089      77.4108     154.7601     309.3358      1.655     4.73     822.1658     54.52005     103.5509         8     1.023     0.621  78.77   0
       397     70.7914    415.8329 307.8961763  +6.5056883     721.9542     1233.979     1641.938      77.0413     154.5141     309.1513      1.945     4.82     829.4319     54.52005     112.6865         8     1.020     0.891 -68.65   0
       398    698.2947    414.6749 307.6355720  +6.5272527     734.2681     1225.596      1223.04     77.28783      154.883     309.3051      1.805     4.10     823.0422     54.52005     103.1046         6     1.053     0.455  88.33   0
       399    348.3660    411.6642 307.7810250  +6.5167532     1179.085     1984.812     1635.081      77.4108     154.6987     309.3051      1.750     4.07     823.5013     54.52005     151.5775        12     1.223     0.696 -69.27   0
       400    135.6636    410.4198 307.8694147  +6.5101091     5017.217     7531.562     7987.985     77.16467     154.6987     309.1513      1.648     3.30     827.7084     54.52005     664.6368        34     1.503     1.097 -88.16   0
       401    181.1885    411.2958 307.8504762  +6.5112808     701.8033     1107.811      1309.45     77.28783     154.3909     309.1205      1.706     5.58     826.4011     54.52005     115.4753         8     1.247     0.703 -37.46   0
       402    433.1104    409.6227 307.7458936  +6.5204436     711.2031     821.4154      851.194     77.53358     154.5141     309.1821      1.263     4.18     823.0261     54.52005      129.834         6     0.787     0.635  66.15   0
       403    240.4170    408.9107 307.8259558  +6.5142592     1287.062     2139.169     2210.882     77.28783     154.4525     309.2128      1.804     5.05     824.5092     54.52005     189.9974        16     1.475     0.785  80.70   0
       404    157.7563    406.0401 307.8603864  +6.5126614     2395.987     4033.371     4070.603     77.28783     154.6987     309.1821      1.830     4.63     827.0891     54.52005     300.5096        24     1.593     0.916 -81.42   0
       405    821.5449    407.0013 307.5846329  +6.5345467     620.0663     691.0302     495.3824     76.91773     154.4525     308.9359      1.429     3.79     821.7563     54.52005     94.64886         6     0.831     0.495 -85.62   0
       406    553.2522    405.7321 307.6961207  +6.5260827     909.0487     1267.324     1497.122      77.4108     154.6372     309.2436      1.378     3.54     821.8944     54.52005     160.6907        10     1.056     0.654 -80.08   0
       407    269.0258    401.4056 307.8143260  +6.5183202     770.5698     1285.916      1071.13      77.0413     154.5141     309.1513      1.571     4.41     824.0494     54.52005     130.6292        11     1.144     0.704 -88.31   0
       408    969.6186    400.6240 307.5233373  +6.5421297     951.5264       1522.5     1690.289     77.28783     154.5757     309.2436      2.016     4.30     819.2769     54.52005     138.4608        10     1.162     0.607 -85.92   0
       409    381.0666    401.1400 307.7677969  +6.5221972     2042.267     3222.729     3484.535     77.65616     154.6372     309.3051      1.659     3.42      822.897     54.52005     275.1405        19     1.211     0.976 -82.93   0
       410    434.9485    394.6953 307.7456329  +6.5266681     7252.574     10945.63     11410.57      77.4108     154.6372      309.551      1.607     3.46      822.196     54.52005     1002.405        35     1.467     1.069 -77.12   0
       411    314.8032    398.1598 307.7954212  +6.5212000     482.6673     763.0795     1217.081     76.79397     154.4525     309.0282      1.587     3.41     823.3794     54.52005     79.50665         5     0.993     0.338  45.81   0
       412     31.3669    395.2911 307.9132456  +6.5128394     3087.056     5453.724     6162.741     77.65616     154.5757     309.3358      1.957     4.58     829.9001     54.52005     378.7067        34     1.702     1.176 -62.70   0
       413    767.4990    393.8671 307.6075240  +6.5381606     2009.398     3090.854     3385.869     77.53358     154.8216     309.2744      1.593     3.66     821.5869     54.52005     314.3046        21     1.336     0.971 -87.15   0
       414    775.5670    392.0993 307.6042319  +6.5391605      12972.8     19047.57     19891.54     77.53358     154.5757     309.4588      1.556     3.26     821.5756     54.52005     1644.082        38     1.389     1.082 -81.89   0
       415    339.1206    390.3836 307.7855826  +6.5252279     985.1046     1392.926     1239.896     77.16466     154.4525     309.1821      1.469     4.06     822.6741     54.52005     148.5447        11     1.077     0.690 -53.88   0
       416   1019.5286    387.3161 307.5030502  +6.5492908      3784.29     5585.317     6003.202     77.65616     155.0058     288.3281      1.583     3.34     817.3359     54.52005     514.9022        26     1.388     0.979 -78.66  16
       417    950.4448    384.1504 307.5318541  +6.5482904     571.4102     818.9203     1437.873     77.53358     154.5757     309.3051      1.687     3.45     818.9099     54.52005     90.57788         5     0.766     0.449  69.92   0
       418    183.8542    383.0113 307.8503240  +6.5230474     758.0763     1285.183     1058.079     76.91773     154.6372     308.9974      1.823     4.77     825.4991     54.52005      92.3493         8     0.865     0.744 -73.04   0
       419    389.9234    381.0283 307.7647958  +6.5307978     513.5346     1048.096     1673.429      77.4108     154.6987     309.2744      2.568     3.84     821.8896     54.52005     104.9476         5     0.849     0.498 -23.99   0
       420    483.2452    378.3585 307.7261216  +6.5350343      3029.43     4653.524     4859.603      77.4108     154.6987     309.1513      1.643     3.59     820.3867     54.52005     392.8995        23     1.293     1.037 -82.78   0
       421    455.3351    378.7856 307.7377006  +6.5339209     2229.705     3425.966     3788.527      77.0413     154.5757     309.2436      1.634     3.47     820.9548     54.52005      333.753        21     1.354     0.908  87.64   0
       422    911.6910    378.2381 307.5481508  +6.5494362     832.7832      945.973     1498.696     77.65616     154.6372     309.3358      1.403     4.00       819.51     54.52005     133.3114         9     1.174     0.535 -43.67   0
       423    840.9811    375.0331 307.5776316  +6.5483951     32925.57     50532.06     53443.21      77.0413     154.5141     309.1205      1.610     3.44     820.8329     54.52005     4832.456        64     1.642     1.137 -81.97   0
       424    986.7463    374.7305 307.5170897  +6.5533921     519.1352     684.3387      818.324      77.4108     154.6372     309.2128      1.308     4.23     817.5469     54.52005     111.7837         6     0.769     0.662 -57.17   0
       425    530.2944    374.2903 307.7067149  +6.5382930     547.2283     721.4982     880.1071     77.53358     155.1898     309.3051      1.796     4.53     820.1658     54.52005     102.1494         5     1.170     0.498 -33.64   0
       426    425.9891    372.7560 307.7500935  +6.5354246     453.8838     579.3928     194.3534      77.0413     154.5757     309.0282      1.432     3.85      821.212     54.52005     72.47876         5     0.838     0.506  51.60   0
       427     58.6961    371.2626 307.9027067  +6.5236806     660.1363     1060.488     931.4532      77.4108     154.8216     309.3666      1.518     4.13     828.5688     54.52005      98.2735         6     1.088     0.447  83.66   0
       428    332.9527    370.5676 307.7888127  +6.5332014     825.1426     1292.643      861.856     77.28783     154.6987     309.2436      1.755     4.87     822.0233     54.52005     104.9766        10     1.089     0.765 -51.91   0
       429    612.9041    367.4555 307.6726293  +6.5438856     2757.837     3988.068     4163.177      77.4108     154.6372     309.4896      1.547     3.40     820.6451     54.52005     377.8435        18     1.299     0.800 -87.56   0
       430     21.0153    367.6451 307.9184800  +6.5239033      1123.14     1804.676     2013.569      77.0413     154.5141     309.0898      1.768     4.27     829.2892     54.52005     143.8716        11     1.043     0.723 -77.23   0
       431    144.0283    366.0529 307.8674390  +6.5287071     589.3954     1112.527      1007.68     77.28783     154.8216     309.2128      1.908     5.40     826.2526     54.52005     81.62543         8     1.204     0.683  81.41   0
       432    697.4189    361.0092 307.6377386  +6.5493792      79785.6     118879.7     125255.6     77.28783     154.3909     309.1513      1.582     3.19     820.9844     54.52005     11141.52        92     1.563     1.276 -81.84   0
       433     76.6722    360.3592 307.8956087  +6.5287878      1426.58      2007.89     2303.561      77.4108     154.6987     309.3666      1.512     3.84     827.9175     54.52005     221.9467        15     1.276     0.765  89.91   0
       434    938.6454    358.1751 307.5376262  +6.5586201     840.1595     1277.337     1409.291      77.0413     154.6987     309.1821      1.557     5.11     817.8522     54.52005     170.4305        10     1.260     0.724  80.66   0
       435    559.7637    357.9720 307.6950226  +6.5460187     2597.478     4063.515      4343.53     77.16466     154.4525     309.1205      1.624     3.65     819.5348     54.52005       339.51        20     1.339     0.881  89.58   0
       436     97.1762    356.5081 307.8872223  +6.5310688     6199.249     9615.561     10122.82     77.53358     154.5141     309.1513      1.675     3.47     827.4546     54.52005     834.5999        35     1.463     1.149  88.06   0
       437    387.2047    357.6625 307.7667125  +6.5403528      401.144     647.0706     1097.548     76.79398     154.5141     309.0898      1.105     3.45     820.7598     54.52005     82.32745         5     0.783     0.440 -15.53   0
       438    543.0842    353.8823 307.7020888  +6.5471475     7219.815      10754.7     11437.33     77.28783     154.9444     309.3666      1.577     3.34     819.0617     54.52005     1006.029        32     1.382     1.047 -78.23   0
       439    272.1439    351.4454 307.8147164  +6.5390506     2808.323     4379.897     3846.382     77.53358     154.6987     309.3051      1.692     3.52     822.8002     54.52005     371.6939        28     1.430     1.159  89.48   0
       440    406.0842    349.0880 307.7591590  +6.5445271     25355.82     39285.91     41737.75     77.28783      154.883     309.3666      1.620     3.32     820.2391     54.52005      3522.67        59     1.547     1.232 -80.56   0
       441    513.7681    347.8780 307.7144686  +6.5486426     1336.795      2156.53      2077.53      77.4108     154.6987     309.2744      1.715     4.19     818.7321     54.52005     169.5458        15     1.259     0.851 -88.86   0
       442    584.6301    348.2370 307.6850206  +6.5508718     574.8732     728.3745     629.6821     77.16467     154.4525     309.1513      1.449     3.48     819.4431     54.52005     96.16217         5     0.746     0.469 -78.56   0
       443    386.0142    346.9473 307.7675681  +6.5447365     1165.859     1880.635     3104.404     76.91773     154.6372      309.059      1.794     3.24     820.2799     54.52005     181.8561        13     1.155     0.677 -74.44   0
       444    485.2207    344.4105 307.7264438  +6.5491159     1240.832     1571.381      1762.01     77.16467     154.3909     309.1513      1.474     3.80     818.5126     54.52005     212.2437        13     1.169     0.811  83.38   0
       445    382.8661    342.2408 307.7690344  +6.5465737     824.1367     1373.174     2007.225     77.53358     154.6372     309.3973      1.897     4.80     820.1033     54.52005     104.9511         9     0.969     0.675  74.08   0
       446    800.5342    341.2837 307.5955660  +6.5609754      870.848     1128.521     1033.626     77.65616     154.9444     309.3666      1.289     4.24     820.4659     54.52005      136.812         9     0.966     0.731  88.23   0
       447    636.8736    341.1612 307.6635564  +6.5555447     599.7697     599.8993     857.6705      77.4108     154.6987     309.3666      1.289     4.91     819.6284     54.52005     90.21564         6     1.011     0.674 -88.72   0
       448    495.1327    339.4538 307.7224933  +6.5514950     8595.506     13083.97     13760.19     77.53358     154.6372     309.2128      1.654     3.49     818.2382     54.52005     1120.696        37     1.492     1.087 -81.94   0
       449    764.3100    338.2754 307.6107150  +6.5610050     3128.716     4663.614     4917.775     77.53358     154.9444     309.3666      1.608     3.04      820.111     54.52005     438.8774        25     1.272     1.022 -76.48   0
       450    919.8019    338.1623 307.5461249  +6.5662528     907.5907      1437.51     1194.077     76.67001     154.5141     309.1205      1.636     3.66     817.5753     54.52005     129.4391        10     1.019     0.687 -76.81   0
       451    855.6178    362.5516 307.5719701  +6.5540377      1096.96     1723.155     1961.382      77.0413     154.7601     309.0898      1.813     3.57     820.2471     54.52005     169.9497        12     1.228     0.656 -68.27   0
       452    321.6571    336.3333 307.7946591  +6.5469549     1130.123     1831.455     1402.909     77.65616     154.6372     309.2744      1.652     4.15     821.0445     54.52005     140.4415        14     1.097     0.930  20.50   0
       453    157.4023    329.6129 307.8631147  +6.5442012     1228.746     1746.227     1422.391     77.16467     154.3909     309.1513      1.533     4.50     825.2427     54.52005     177.0556        15     1.361     0.736 -68.30   0
       454    433.8789    330.0860 307.7482535  +6.5533056     562.8571     1023.912      396.123      77.4108     155.0058     309.3973      1.656     4.98     818.9044     54.52005      91.5993         6     1.033     0.680  14.55   0
       455    257.5640    329.8717 307.8215005  +6.5474665     608.0674     1100.709     586.0947      77.4108     154.6987     309.3666      1.562     4.79     822.4703     54.52005     102.5184         6     1.266     0.513 -48.32   0
       456    385.0667    323.6088 307.7687482  +6.5543397     7405.009     11325.29     12044.56      77.0413     154.4525     309.1821      1.629     3.47      819.379     54.52005     997.0764        36     1.474     1.086 -75.39   0
       457    240.7694    324.2383 307.8286669  +6.5492270     2106.434     3274.311     3689.902     77.16467     154.4525     309.1513      1.661     3.76     822.7159     54.52005     300.5095        19     1.314     0.909 -76.90   0
       458    738.5617    323.5413 307.6219060  +6.5662259     1020.113     1493.838     1743.439     77.53358     154.7601     309.3666      1.647     4.09     819.3156     54.52005     144.2711        12     1.247     0.821 -71.66   0
       459    752.9017    319.5605 307.6160826  +6.5683495     54725.11     80442.35     84693.28     77.53358     154.5757     309.5203      1.586     3.20     819.1776     54.52005     7583.343        74     1.552     1.202 -83.95   0
       460    424.5657    319.0576 307.7524937  +6.5575458     2255.104     3599.916     3987.217      77.4108     154.6987     309.2744      1.790     3.89      818.621     54.52005     291.3408        20     1.345     0.912 -69.34   0
       461    987.7313    316.5098 307.5186309  +6.5774617     1631.068     2406.354     2039.251     77.65616     154.8216     309.3051      1.641     3.73     815.1243     54.52005     241.1999        16     1.202     0.897 -76.08   0
       462    928.5832    315.9762 307.5432207  +6.5757059     2310.244      3416.56     3790.092     77.28783     154.5757     309.2128      1.606     4.63     816.5067     54.52005     299.3174        20     1.373     0.971 -61.52   0
       463    570.9763    316.2949 307.6917669  +6.5636010     1314.451     2016.021     1891.032     77.65616     154.4525     309.1821      1.607     4.05     817.2238     54.52005      167.715        13     1.155     0.772 -77.98   0
       464    461.6400    315.3431 307.7372180  +6.5603244     1041.513     1694.764     2829.509     77.53358     154.7601     309.3358      2.919     5.33     817.4354     54.52005     136.6251        14     1.250     0.908  73.64   0
       465    832.2742    309.0766 307.5834614  +6.5753341     1104.276     1714.276     1446.338     77.77855     154.9444     309.3358      1.521     3.69     818.5661     54.52005     182.1764        14     1.273     0.760 -77.48   0
       466    411.1353    314.7207 307.7582188  +6.5588850     1784.125     2730.046     2395.001     77.77855     154.7601     309.2744      1.610     3.98     818.7233     54.52005     237.8007        18     1.252     0.951 -69.35   0
       467    441.7050    305.7795 307.7458212  +6.5636032     1062.857     1749.651     1963.922      77.4108     154.5141     309.1205      1.829     4.40     817.5389     54.52005     140.7365        13     1.222     0.863 -69.38   0
       468    187.6362    305.7477 307.8513620  +6.5550718     2373.425     3823.761     4632.144      77.4108     154.6987     309.3358      1.822     3.69     824.0716     54.52005     300.5045        22     1.292     1.011 -64.34   0
       469    751.3318    304.1394 307.6172526  +6.5746635      6193.37     9280.038     9955.459     77.65616     154.6372     309.3051      1.598     3.37     818.3953     54.52005     823.6444        34     1.454     1.046 -71.81   0
       470    767.7391    302.0830 307.6105057  +6.5760618     2766.143     3980.362     4095.017     77.65616     154.6987     309.3358      1.547     3.61     818.3331     54.52005     356.8018        22     1.387     0.902 -81.46   0
       471    223.0726    303.8319 307.8367067  +6.5570558      785.937     1154.288      1412.59      77.4108     154.6987     309.3358      1.449     3.90     822.9002     54.52005     117.6161         6     0.747     0.584 -43.42   0
       472     83.7119    303.2830 307.8946139  +6.5525879      1118.84     1720.061     1397.246     77.28783      154.883     309.3358      1.562     3.84     826.1664     54.52005     161.5867        12     1.070     0.833  85.59   0
       473    357.3994    296.6009 307.7811515  +6.5645597      1690.57     3300.667     3706.932     76.91773     154.2677     308.9974      2.043     5.91     818.7206     54.52005     199.3388        25     1.594     1.100  -2.39   0
       474     70.9461    297.0890 307.9001260  +6.5547146      1208.26     1959.809     2363.517     77.53358     154.5757     309.4281      1.689     4.26     826.3954     54.52005     178.9514        15     1.318     0.820 -88.83   0
       475   1006.0395    292.9724 307.5118136  +6.5877907     5793.175     8634.402     9232.918     77.16467     154.5141     309.1821      1.541     3.28     813.8301     54.52005     825.9759        29     1.367     1.002 -82.28   0
       476    483.9217    292.8792 307.7287185  +6.5703467     2024.056     3072.656     2722.574     77.77855     154.9444     309.4281      1.589     3.92     815.7134     54.52005      280.947        18     1.308     0.859  87.25   0
       477    246.6711    288.4182 307.8274243  +6.5642134     5851.721     9004.688     10831.79      77.0413     154.5757     309.2436      1.683     3.35      821.839     54.52005     755.6124        35     1.427     1.130 -77.05   0
       478    914.3912    287.9206 307.5500570  +6.5868144     611.2245     860.0096     1086.992     77.16466     154.3293     309.1513      1.482     2.90     816.0107     54.52005     114.2608         6     0.793     0.488  88.54   0
       479    766.1439    282.1704 307.6118370  +6.5842293     815.8706     1224.266     1177.724     77.28783     154.7601     309.2128      1.576     4.69     817.4032     54.52005     125.9035         8     0.909     0.685 -82.61   0
       480    223.1561    280.4447 307.8374615  +6.5667136     560.8148      1023.81     1251.364     77.53358     154.6987     309.2744      2.134     4.77     822.5582     54.52005     69.82513         7     1.004     0.643 -49.71   0
       481    967.7200    278.4900 307.5282182  +6.5924900     1100.652     1432.663     1783.021     77.28783      154.883     309.3973      1.449     3.93     814.2104     54.52005     164.9551        11     1.180     0.646 -84.01   0
       482    380.8351    278.9173 307.7720122  +6.5726479     1677.894      2659.88       3272.5     77.53358     154.6372     309.2744      1.876     4.60     817.8299     54.52005     253.6116        16     1.373     0.854  80.79   0
       483    302.9282    274.8935 307.8045112  +6.5716897     1096.662     1696.418     1495.706      77.4108     154.7601     309.3666      1.560     3.58     819.6645     54.52005     155.0342        12     1.082     0.732  86.65   0
       484    150.5601    274.8502 307.8678067  +6.5665786      1670.19     2396.596      2837.36      77.4108     154.6987     309.2436      1.555     3.65     824.5015     54.52005     235.2172        17     1.240     0.901 -64.87   0
       485    560.2784    270.6680 307.6977460  +6.5820790     2178.305     3185.205     2957.609     77.65616     154.8216     309.3051      1.587     3.55     815.0883     54.52005     295.2834        20     1.235     0.994 -81.51   0
       486    903.8024    269.8566 307.5550617  +6.5939182     1658.405     2833.855     2876.405     76.91773     154.3909     309.0282      1.725     4.10     815.6931     54.52005     244.0951        19     1.264     1.063  67.62   0
       487    664.6448    268.1995 307.6544722  +6.5865975     2135.713     3295.703     2918.487     76.91773     154.3909     308.9051      1.606     3.54     815.9404     54.52005     319.9228        21     1.411     0.879  89.49   0
       488    723.8438    268.2800 307.6298764  +6.5885476     5074.213     7461.882      7906.61     77.53358     154.6987     309.2744      1.586     3.46     816.6335     54.52005     666.6038        26     1.341     1.000 -81.17   0
       489    190.7661    266.8414 307.8513756  +6.5712390     526.0688     875.7993      738.972     77.28783     154.6987     309.1513      1.821     4.42     823.2405     54.52005     89.41974         5     1.247     0.445 -62.32   0
       490    919.8032    260.4916 307.5487283  +6.5983194     1200.784     1640.727     1764.907     77.16467     154.3909      309.059      1.470     3.61     814.8605     54.52005     163.4905        13     1.242     0.681 -87.32   0
       491    379.4050    261.9688 307.7731776  +6.5795969     637.7957     884.5086     939.3445     76.91773     154.5757     309.0898      1.576     3.93     817.4813     54.52005     87.58557         5     0.902     0.491 -89.19   0
       492    223.2873    253.2936 307.8383236  +6.5779270     2376.751     3323.267     3767.744     77.53358     155.1285     309.3666      1.539     3.34     822.0912     54.52005     329.6317        19     1.200     0.921 -71.13   0
       493    865.9857    252.5749 307.5713520  +6.5997885     1712.507     2279.729     2451.332     77.28783     154.5141     309.2436      1.493     3.56     816.1415     54.52005     245.0232        14     1.103     0.825  86.81   0
       494    756.3856    251.9038 307.6169073  +6.5963982     1569.481     2200.817      2144.25     77.28783     154.4525     309.0898      1.491     3.80     816.1732     54.52005     230.8504        16     1.307     0.789 -72.20   0
       495    783.1895    242.5936 307.6060844  +6.6011392     13105.13     20050.51      21760.6      77.0413     154.5141     309.2128      1.676     3.37     815.9257     54.52005     1858.952        54     1.549     1.314 -78.48   0
       496    318.4453    244.5152 307.7990898  +6.5847528     641.9752     1101.536     737.9205     77.53358     154.6372     309.3051      1.810     6.15     818.6827     54.52005     77.72485         9     1.369     0.776 -78.37   0
       497    462.9427    237.9271 307.7392841  +6.5923288     1384.275      2311.89     2326.212     77.53358     154.6987     309.2744      1.676     4.03     814.7682     54.52005     172.2769        14     1.271     0.752 -87.50   0
       498    722.0724    237.8108 307.6316358  +6.6010674     666.0467     1104.256     1037.913      77.0413     154.3293     309.1513      1.721     4.46     815.3852     54.52005      114.585         6     1.026     0.552 -81.09   0
       499    145.6411    236.4773 307.8711464  +6.5822544     2314.293     3845.435     4634.596      77.4108     154.6987     309.3666      1.917     3.91     823.5563     54.52005     295.9285        25     1.405     1.090 -84.10   0
       500    120.0207    235.3994 307.8818258  +6.5818361     1113.821     1775.508     1704.393     77.16466     154.3909     309.0282      1.726     4.79     824.3938     54.52005      153.992        11     1.130     0.713 -87.13   0
       501    457.2127    243.3800 307.7414808  +6.5898852     22734.31     35123.55     36977.98     77.28783     154.3909     309.2128      1.660     3.37     815.0372     54.52005     3046.183        53     1.520     1.197 -79.99   0
       502    919.7058    232.7482 307.5496989  +6.6097701     1541.634     2318.587     2282.616      77.4108     154.6372      309.551      1.560     4.13      813.947     54.52005     220.0831        13     1.225     0.723 -73.15   0
       503    172.3748    233.8140 307.8601309  +6.5842544     614.7774     1027.006     1214.827     77.28783     154.5141     309.2436      1.826     3.96     822.7795     54.52005      101.834         6     0.726     0.661   0.90   0
       504    581.2730    229.0684 307.6904237  +6.5999574     4807.029     7342.878     7550.116     77.65616     154.8216     309.3051      1.608     3.46     813.9078     54.52005      647.686        30     1.467     1.025 -85.38   0
       505    301.6663    230.0338 307.8065486  +6.5901669     1185.781     1907.539     1462.035      77.4108     154.7601     309.3051      1.739     4.12     818.7773     54.52005     192.9154        14     1.257     0.857  75.28   0
       506    888.3290    225.8355 307.5629663  +6.6115751     11243.83     16823.95      17279.5      77.4108     154.6987     309.3358      1.590     3.34     814.4681     54.52005     1617.054        40     1.457     1.085 -81.58   0
       507    543.8691    229.0528 307.7059633  +6.5987090     2181.257     3257.453     2788.626      77.4108     154.5757     309.2436      1.580     3.53     814.1536     54.52005     275.6617        23     1.199     1.123 -69.21   0
       508    385.6388    228.3229 307.7717220  +6.5936967     1473.703     2378.435     2303.127      77.4108     154.7601     309.3051      1.703     3.99     816.4872     54.52005     179.3318        15     1.229     0.781 -68.70   0
       509    942.3071    226.3664 307.5405230  +6.6131602     2665.809     3973.412     3992.253     77.65616     154.5757     309.3666      1.620     3.57     813.1226     54.52005     406.3321        21     1.376     0.850 -87.60   0
       510    974.9480    223.5935 307.5270549  +6.6153956      9860.57     14570.99     15780.18      77.0413     154.5141     308.9666      1.586     3.19     812.0919     54.52005     1421.794        37     1.386     1.097 -86.06   0
       511    686.3485    223.5287 307.6469570  +6.6057670     2879.582      4220.57     4493.288      77.4108     154.6987     309.3358      1.646     3.27       814.54     54.52005     403.5516        23     1.345     0.909  83.50   0
       512    563.1531    225.5596 307.6980695  +6.6007982     866.0977     1122.513     571.0248      77.4108     154.6987     309.1205      1.557     4.16     813.9551     54.52005     132.6044        11     1.112     0.741 -88.96   0
       513    316.1505    225.0539 307.8006996  +6.5927100     820.6501     1679.431     2021.735     77.53358     154.6987     309.3358      2.154     5.92     818.3508     54.52005     143.6074        11     1.510     0.654  83.23   0
       514    207.3013    226.0961 307.8458826  +6.5886168     692.1647     882.1168     602.7512     77.53358     155.1898     309.1513      1.248     4.27     821.9106     54.52005      103.445         7     0.880     0.590 -62.64   0
       515    260.8180    223.5072 307.8237381  +6.5914870     1145.406     1726.941     1686.704      77.4108     154.4525     309.1821      1.479     4.49     820.1021     54.52005     200.2607        13     1.412     0.672 -70.89   0
       516     14.4652    222.2337 307.9261192  +6.5837121     25664.19     39550.96     41900.53      77.4108     154.6987     309.2744      1.670     3.35      827.612     54.52005      3200.41        60     1.542     1.249 -79.54   0
       517    494.9032    218.5689 307.7266585  +6.6013938     2000.549     3237.996     2883.719     77.65616     154.5141     309.3973      1.743     3.81     813.7699     54.52005     278.5835        23     1.359     1.042 -72.06   0
       518    826.9166    215.1788 307.5888381  +6.6139207     2009.651     2960.387     2979.466     77.28783     154.3909     309.1821      1.581     3.58     814.6786     54.52005     274.6743        18     1.248     0.869 -76.05   0
       519    738.4592    211.7158 307.6257045  +6.6123895     40647.13     60480.23     63526.09     77.53358     154.7601     309.3973      1.618     3.32     814.4439     54.52005     5234.071        70     1.547     1.228 -81.61   0
       520    879.1608    214.2336 307.5671645  +6.6160584     2030.885     3065.189       3309.9     77.28783     154.5141     309.1205      1.580     4.14     814.0842     54.52005     302.0574        19     1.416     0.875 -83.55   0
       521    506.8394    214.3869 307.7218405  +6.6035209      2545.42     3803.306     3854.998      77.0413     154.5141     309.0898      1.588     3.38     813.5247     54.52005      373.564        21     1.276     0.914 -74.95   0
       522    341.5787    211.0020 307.7906099  +6.5993663      5879.63     11831.19     13666.29     77.16466     154.3909     309.0282      2.180     6.05     817.4717     54.52005     709.7808        50     2.163     1.133 -75.02   0
       523    972.2787    210.5474 307.5286011  +6.6206926     2919.175     4408.224     5293.826     77.53358     154.6987     309.3051      1.616     3.63     811.5892     54.52005     397.1273        21     1.294     0.913 -85.92   0
       524    906.4011    208.8395 307.5560281  +6.6191961     7488.563     10831.19     11050.75     76.67001     154.4525     308.9974      1.542     3.29      813.103     54.52005     1035.916        27     1.281     1.008 -85.45   0
       525   1010.6583    209.1250 307.5127034  +6.6225617     1728.107     2335.283     2384.586     77.65616     154.6987     309.2744      1.449     3.77     810.6062     54.52005     232.6136        15     1.273     0.747 -70.35   0
       526    449.9246    207.8455 307.7457055  +6.6043104     5110.028     7863.291     7837.998      77.4108     154.7601     309.3358      1.602     3.38     814.1097     54.52005     724.7919        31     1.398     1.081 -78.03   0
       527    223.9824    204.7117 307.8396750  +6.5980066     641.2757     1108.553     1443.105     77.28783     154.4525     309.1821      1.881     3.74     821.4385     54.52005     94.15094         5     0.814     0.493 -49.28   0
       528    107.2594    199.0945 307.8883540  +6.5963937     4839.685     7384.677     7594.136      77.4108     154.6987     309.3973      1.622     3.17     824.4103     54.52005     704.4185        30     1.348     1.094 -88.89   0
       529    926.6713    198.8250 307.5479424  +6.6240082     872.9338     1176.999     1240.424     77.16466     154.5757     309.2436      1.341     4.67     811.9272     54.52005      138.992         9     1.155     0.567 -73.15   0
       530    277.5838    195.8298 307.8177072  +6.6034773     33907.11     52474.68     54982.62     77.16466     154.4525     309.2436      1.664     3.36     819.0877     54.52005     4191.386        65     1.550     1.256 -83.03   0
       531    252.9382    196.7925 307.8279132  +6.6022505      6518.42     9967.642     10879.89     76.91773     154.5141     309.1205      1.619     3.38      820.168     54.52005     883.3372        31     1.437     1.016 -79.57   0
       532    706.5575    195.4766 307.6395038  +6.6180252     795.7859     1068.193     1353.425      77.4108     154.6987     309.3358      1.553     3.83     813.6248     54.52005     144.8601         7     1.012     0.573 -67.55   0
       533    401.6571    191.3309 307.7663142  +6.6095067     50031.27     76579.22     80845.09     77.65616     154.6372     309.2744      1.671     3.33     815.1784     54.52005      6543.89        76     1.589     1.269 -80.90   0
       534    157.6678    192.6084 307.8676324  +6.6007700     4097.851     6558.792     6472.128      77.0413     154.4525     309.2128      1.687     3.43     822.2584     54.52005     532.0575        26     1.408     0.997 -83.20   0
       535    419.1135    191.7929 307.7590465  +6.6099026      1404.18     2217.731     2274.395      77.0413     154.3909      309.059      1.655     3.60     814.6407     54.52005     207.3412        15     1.230     0.774 -74.03   0
       536    305.6654    189.0124 307.8062711  +6.6072365     18021.62     28390.85     30606.83      77.0413     154.5141     309.2128      1.679     3.33     818.0513     54.52005      2338.34        53     1.543     1.224 -82.43   2
       537    313.2391    188.6781 307.8031360  +6.6076293     2150.885     3733.266     5287.403      77.4108     154.7601     309.3051      2.241     5.56     817.8544     54.52005      301.522        26     1.877     0.991 -69.03   2
       538    740.9323    187.6251 307.6254863  +6.6224180     33145.59     49745.46     52761.26     77.16466     154.5757     309.2128      1.597     3.43     813.4576     54.52005     4638.821        57     1.494     1.171 -82.03   0
       539    789.1160    188.0333 307.6054540  +6.6238627     1157.756     1710.607     1581.387     77.53358     154.5141     309.2744      1.729     4.58     813.3884     54.52005     170.6067        13     1.255     0.679 -76.73   0
       540     28.3711    188.2742 307.9214914  +6.5982005     742.1263     1031.167     1286.455      77.4108     154.6987     309.2744      1.368     4.49       827.33     54.52005     100.5321         9     0.906     0.789  56.72   0
       541     57.7901    184.7579 307.9093892  +6.6006444     9240.858     14172.69     14548.58     76.91773     154.5141      309.059      1.646     3.39     826.1689     54.52005     1187.494        40     1.459     1.135 -84.84   0
       542     91.6073    182.7699 307.8954080  +6.6026053     1475.459      2137.04      1753.06      77.0413     154.5141     309.0898      1.576     3.89     824.8171     54.52005     204.8209        16     1.153     1.004 -79.44   0
       543    999.5821    182.0388 307.5182127  +6.6333744      1193.47     1716.852     1718.438     77.16466     154.5757     309.0898      1.534     4.03     809.9196     54.52005     214.9097        13     1.301     0.739 -85.39   0
       544    689.0488    189.6998 307.6469721  +6.6198236     997.3754     1462.311     1784.474     77.53358     154.6372     309.4588      1.559     5.05     813.3761     54.52005     142.3951        11     1.172     0.708 -77.78   0
       545   1000.5494    168.7320 307.5182566  +6.6389004     2076.117     3569.326     3961.284      77.4108     154.5757     309.2436      2.034     8.18     809.4599     54.52005     326.5992        28     2.364     0.905  77.60   0
       546    574.9430    172.1305 307.6949691  +6.6232515     874.3152     1403.469     1193.748     77.65616     154.6372     309.2744      1.675     4.51     811.5264     54.52005     129.6753        12     1.143     0.787 -89.42   0
       547    583.4011    165.9117 307.6916644  +6.6261026     961.0682     1314.672     1240.098     76.79397     154.2677      309.059      1.476     5.93     811.2896     54.52005     126.5218        13     1.265     0.781 -88.28   0
       548    591.5903    164.2142 307.6883192  +6.6270781     1968.751     3039.817     3194.642     77.28783     154.4525     309.2436      1.680     4.20     811.2365     54.52005     259.5251        20     1.301     1.063 -64.63   0
       549    276.4881    162.0981 307.8193007  +6.6173660     30633.16     47505.01     50584.18     77.53358     155.1285     309.3358      1.646     3.34     818.7854     54.52005     3840.519        62     1.552     1.232 -80.07   0
       550    335.7166    164.0546 307.7946284  +6.6185507     1095.418     1648.394     2022.661     77.53358     154.6987     309.4281      1.644     4.23     816.7358     54.52005     158.2672        10     1.210     0.577 -80.39   0
       551     21.7549    160.7719 307.9251703  +6.6093310     4536.572     6879.572     7498.598      77.0413     154.7601     309.2128      1.656     3.57     827.7126     54.52005     625.6639        33     1.654     1.010 -76.03   0
       552    708.1581    158.7559 307.6400727  +6.6332388     8138.325     12184.43     12087.14     77.28783     154.6987     309.1513      1.586     3.30     812.2701     54.52005     1174.757        34     1.419     1.058 -81.77   0
       553    185.8357    159.7652 307.8570400  +6.6152774     865.6311     1336.009     1053.363     77.28783     154.4525      309.059      1.638     4.45     821.3629     54.52005     119.2007         9     1.011     0.715 -54.13   0
       554    262.2202    156.8249 307.8254061  +6.6190629     887.1214      1365.83      1155.34     77.16466     154.5141     309.2436      1.567     3.94      819.384     54.52005     131.4938        10     1.060     0.798  65.11   0
       555    118.9076    155.7772 307.8849791  +6.6146688      4756.19     7452.973     7556.051     77.53358     154.5141     309.1513      1.660     3.38     823.1779     54.52005     658.6862        28     1.402     1.021 -75.47   0
       556    581.1420    154.1754 307.6929978  +6.6308721     745.5761     1218.858     1187.167     77.16466     154.6987     309.1821      1.771     5.57     810.9019     54.52005     119.5536         8     1.071     0.817 -40.30   0
       557    458.0608    152.8276 307.7441787  +6.6272973     1226.241     1727.536     1705.885     77.16466     154.7601     309.2128      1.510     4.69     811.8754     54.52005     151.6255        14     1.163     1.040 -66.82   0
       558    389.6231    151.7399 307.7726482  +6.6254469     3826.947     6575.902     6531.675     77.16467     154.6372     309.2128      1.833     3.91     814.7028     54.52005     506.4883        36     1.664     1.171 -78.02   0
       559    646.7822    152.9211 307.6657687  +6.6335910     889.6006     1325.919     834.0474     77.16466     154.3909     309.2436      1.601     3.09       811.59     54.52005     142.4534         8     0.816     0.674 -43.83   0
       560    354.1678    150.6948 307.7874135  +6.6246865     3156.389     4841.358      4994.38     77.65616     154.5757     309.3973      1.641     3.55      816.139     54.52005     435.5024        23     1.337     0.976 -79.68   0
       561    108.2315    150.6239 307.8895885  +6.6164364     1627.091     2726.951     3071.136     76.91773     154.5757     309.1205      1.778     4.49     823.3981     54.52005      216.257        18     1.485     0.778 -83.39   0
       562    566.5497    150.6541 307.6991789  +6.6318363     663.4298     1129.118      1359.92     77.65617     154.6987     309.3358      1.823     2.71     810.7821     54.52005      124.233         7     0.944     0.654 -72.47   0
       563    670.3474    148.4839 307.6561272  +6.6362127     796.4644     1365.324     1434.012     77.53358     154.6987     309.3973      1.897     5.97     811.7443     54.52005     108.8859        10     1.413     0.710  34.36   0
       564    744.1365    147.8183 307.6254922  +6.6389595     532.8617     753.4795     801.0303     77.16466     154.6372     309.1821      1.376     5.75     811.6665     54.52005      92.3324         7     1.257     0.740  22.51   0
       565   1000.8080    144.9831 307.5189449  +6.6487138     1459.599     2184.546     2179.657     77.16466     154.4525     309.1513      1.639     4.05     808.6034     54.52005     207.3032        17     1.312     0.844  81.20   0
       566    727.3065    145.0305 307.6325782  +6.6395467     616.9541     890.4414      765.111     77.65616     154.4525     309.2744      1.604     4.99     811.5914     54.52005     85.13837         8     1.334     0.529 -58.12   0
       567    815.9136    138.3915 307.5959868  +6.6452540     1098.477     1774.763      1818.33     77.16466     154.3909     309.1513      1.582     5.83     810.5527     54.52005     172.2726        14     1.517     0.738  72.51   0
       568    667.6772    138.5134 307.6575718  +6.6402395     6325.361     9177.032     9704.036     77.53358     155.0058     309.3973      1.574     3.20     811.3293     54.52005     828.0875        32     1.384     1.037 -78.90   0
       569    205.9699    139.5490 307.8493582  +6.6243013     5501.764     8232.306     8561.225     77.28783     154.8216     309.2128      1.583     3.36     820.8143     54.52005     737.9559        29     1.358     1.054 -78.00   0
       570     88.5978    139.4384 307.8981232  +6.6203923     2176.588     3390.783     3664.165     76.67001     154.4525     309.0898      1.653     3.56     823.7104     54.52005     277.5983        24     1.294     1.069 -70.36   0
       571    619.8707    135.7976 307.6775254  +6.6397580     9544.789     14794.05     16377.05      77.0413     154.3293     309.1513      1.631     3.39     810.6613     54.52005     1317.409        43     1.500     1.159 -84.76   3
       572    623.4056    127.2766 307.6763434  +6.6433944     53806.05     80787.07     85971.09     77.16467      154.206     309.1513      1.638     3.29     810.4263     54.52005     7050.401        78     1.590     1.232 -82.19   2
       573    557.7940    135.1278 307.7033391  +6.6379524     628.4598     859.0454     1095.184     77.16466     154.2677     309.2128      1.562     3.68     810.3896     54.52005     102.3321         5     1.144     0.341  78.53   0
       574    254.5646    135.9322 307.8292918  +6.6274304     825.9288     1307.998     1424.182      77.4108     154.7601     309.3973      1.675     4.41     819.5103     54.52005     113.5178         8     0.875     0.687  43.87   0
       575    346.9301    131.5434 307.7910662  +6.6323495     3723.075     6142.535     6786.961     77.65616     154.6987     309.2744      1.847     3.55     816.4417     54.52005     486.1545        33     1.573     1.147 -74.65   0
       576     18.8932    134.1146 307.9272610  +6.6202392     951.4081     1700.818     1454.661      77.4108     155.1285     309.3973      1.874     4.84     828.0517     54.52005     168.8543        13     1.478     0.783 -72.61   0
       577    528.7391    130.7087 307.7155593  +6.6388018     1784.376     2672.153     2947.442      77.4108     154.7601     309.3973      1.690     3.73     810.3784     54.52005     222.1318        19     1.272     0.901 -78.99   0
       578    993.4026    130.3060 307.5225135  +6.6545260     939.7671     1137.261     1413.062     77.16467     154.3909     309.0282      1.271     3.06     808.1041     54.52005     164.1279        11     0.978     0.774  71.15   0
       579    579.8586    124.8566 307.6945175  +6.6429331     437.0329     394.7178     612.8214     77.65616     154.6987     309.3358      1.340     3.89     810.2024     54.52005     68.59106         5     1.356     0.319  57.90   0
       580    302.6212    120.9844 307.8098309  +6.6352184     3524.813     5670.106     6246.816     77.28783     154.4525     309.2128      1.698     3.75     817.7637     54.52005     425.6176        25     1.454     0.938 -73.24   0
       581    702.6229    115.4861 307.6438265  +6.6509171     956.7918     1301.485     925.7238     77.53358     154.5141     309.1821      1.405     3.47     810.2249     54.52005      130.738         9     0.992     0.618 -82.40   0
       582    673.9301    114.6042 307.6557776  +6.6503198     1430.364      2142.11     1715.569     76.91773     154.3293     309.1513      1.570     3.47      810.324     54.52005     201.2275        13     1.117     0.739 -83.82   0
       583      1.8674    103.8007 307.9353599  +6.6321789       423068     671594.5     724277.8     72.85316     130.4112     240.7985      1.721     6.80     829.7759     54.52005     63560.98       274     2.429     1.371 -82.98  28
       584    687.8847    111.2514 307.6500924  +6.6521716     3095.779      4720.48     4771.826     77.53358     154.6372     309.3973      1.603     3.52     810.0946     54.52005      416.098        23     1.350     0.989 -73.55   0
       585    429.5416    102.2747 307.7577307  +6.6472094     4315.878     6451.625     6640.337     77.53358     154.6987     309.2744      1.600     3.14     811.0591     54.52005     575.5308        28     1.343     1.034 -86.72   0
       586    902.0474     97.7616 307.5615623  +6.6649090     3957.069     5841.366     5946.427      77.4108     154.6987     309.1513      1.511     3.24     807.5542     54.52005     575.8135        27     1.346     1.011 -67.99   0
       587    884.2095     98.6356 307.5689447  +6.6639518     2253.578     3238.438      3511.23      77.0413     154.4525     309.0898      1.522     3.26     807.7333     54.52005      335.436        19     1.339     0.812 -81.56   0
       588    582.4586     97.9877 307.6943413  +6.6541128     871.7623     1289.375      1571.68     76.91773     154.6372     309.0282      1.773     5.89     809.5546     54.52005     117.8397        12     1.254     0.778  80.92   0
       589    594.1625     96.1698 307.6895397  +6.6552559     1914.494     2828.523     2380.352     77.16466     154.4525     309.1821      1.511     3.75     809.5013     54.52005     260.9592        17     1.289     0.809  85.32   0
       590    240.1704     95.6604 307.8366315  +6.6435713      801.525     1229.749     1915.392     77.28783     154.6987     309.2744      2.006     4.68     819.5978     54.52005     105.0856         9     0.894     0.776 -87.33   0
       591    392.9106     93.9376 307.7732309  +6.6494203     1914.868     2802.247     2666.724     77.53358     154.8216     309.3666      1.493     3.41     813.0084     54.52005     262.5259        16     1.192     0.830 -89.65   0
       592    140.8356     90.8360 307.8780640  +6.6422173     3263.526     4999.212     5102.013     77.28783     154.4525      309.059      1.599     3.50     820.0425     54.52005     401.0889        22     1.287     0.970 -88.41   0
       593     22.7896     88.6866 307.9271792  +6.6391243     12426.55     19186.18     21337.33     77.16467     154.4525     309.1513      1.682     3.39     826.8708     54.52005     1609.559        46     1.510     1.166 -76.46   0
       594    289.1102     89.3656 307.8165111  +6.6478171     1433.621      2407.85     2851.219     77.65616     154.6372     309.3051      1.955     4.21     818.1641     54.52005     188.7716        17     1.262     0.925 -74.09   0
       595    943.7000     87.8482 307.5445880  +6.6703941     661.9805     750.6428     548.4374     77.53358     154.5757     309.5203      1.458     4.93     806.9187     54.52005     117.8248         7     1.326     0.528  69.88   0
       596    757.7872     88.0263 307.6218290  +6.6641014     716.6919     1095.133     1736.674     77.16466     154.5141     309.2436      1.575     5.11     808.5242     54.52005     113.7932         9     1.060     0.816 -48.58   0
       597    562.9179     88.4034 307.7027827  +6.6574141     622.1238     1042.177     1198.985     76.91773     154.3293     309.0282      1.936     4.28     809.3555     54.52005     99.70203         6     0.917     0.570  86.31   0
       598    549.8593     88.3991 307.7082085  +6.6569776     738.2378     969.7824       1149.7     76.79398     154.4525     308.9974      1.429     4.93     809.3923     54.52005     108.5164         8     1.070     0.789 -46.36   0
       599    824.5239     83.4664 307.5942531  +6.6682178     6413.544     9439.087     10162.62     77.65617     154.7601     309.2744      1.604     3.21     807.5051     54.52005     816.1537        32     1.445     1.011 -82.01   0
       600    891.7109     84.5756 307.5662995  +6.6700072     699.5546     1004.803     653.7808     77.65616     154.5141     309.1821      1.473     3.41     807.1678     54.52005      116.657         7     0.834     0.648  76.26   0
       601    769.6355     83.7779 307.6170487  +6.6662520     3174.722     4606.216     5066.005      77.0413     154.4525      309.059      1.509     3.24     808.1764     54.52005       419.03        23     1.218     1.064 -70.77   0
       602    414.6901     84.5071 307.7644999  +6.6540455     1092.938     1533.777     1594.636     77.53358     155.1898     309.3358      1.520     3.29     811.1345     54.52005     162.8712        12     1.008     0.784 -60.00   0
       603    756.0518     82.7934 307.6227258  +6.6662037     699.0658     1213.873      1811.47      77.0413     154.5141     308.9666      1.981     4.78     808.3529     54.52005     100.9241         9     1.090     0.605   0.26   0
       604    531.9959     81.8762 307.7158501  +6.6590711     1043.021     1651.437     1695.844     77.16466      154.206     309.1513      1.681     5.81     809.4861     54.52005     130.7021        13     1.388     0.685 -69.55   0
       605    424.0506     80.2679 307.7607537  +6.6561101     986.3347     1700.323     1655.472      77.4108     154.5757     309.2436      1.817     5.32     810.8675     54.52005     135.0895        13     1.261     0.866  76.95   0
       606     63.1188     80.4704 307.9107024  +6.6438766       3310.2     5003.312     4482.424     77.77855     155.0058     309.3358      1.614     3.45     822.9124     54.52005     464.9502        26     1.389     0.990 -78.48   0
       607     47.6631     81.5598 307.9170866  +6.6429055     932.7695     1425.109     1264.579     77.53358     154.6372     309.3358      1.720     4.84     824.1362     54.52005     117.6451         9     1.054     0.629 -83.72   0
       608    651.9530     80.4381 307.6660575  +6.6636884     586.4406     874.1525     982.4195      77.4108     154.6372     309.1513      1.659     5.23     808.9541     54.52005     78.63483         7     1.022     0.757 -73.49   0
       609    586.7621     77.4042 307.6932459  +6.6627549     1432.428     2054.803     1660.535     76.67001     154.4525      309.059      1.546     4.44     808.9907     54.52005     195.7226        13     1.135     0.778 -78.02   0
       610      5.5023     76.0391 307.9347892  +6.6437622     2549.507     3977.366     4810.122     77.53358     154.5757     288.6578      1.780     3.34     826.1649     54.52005     356.9821        23     1.352     0.974 -86.99  16
       611    764.2798     71.2226 307.6196957  +6.6712561     2029.377     3151.219     3108.509     77.16467     154.3909     309.2744      1.679     3.81     807.7471     54.52005     290.3157        20     1.334     0.966 -79.45   0
       612    405.0469     71.2627 307.7689529  +6.6591891     1082.434     1678.499     1451.986      77.4108     154.5757     309.3666      1.538     5.35     811.9863     54.52005     152.1262        11     1.244     0.649 -86.82   0
       613     78.2888     71.7835 307.9046937  +6.6479742     918.4801     1412.981     1312.374     77.28783     154.4525     309.1821      1.596     3.54     821.4459     54.52005      140.257        10     0.943     0.791  51.16   0
       614    101.9964     69.9885 307.8949048  +6.6495146      827.839     1125.875     1100.868     77.16467     154.3909     309.1821      1.450     4.58     820.2549     54.52005     130.7198        10     1.082     0.708 -79.88   0
       615     90.7977     64.9299 307.8997285  +6.6512254     9581.401     15047.33     16079.39      77.0413     154.3293     309.1205      1.645     3.20      820.458     54.52005     1360.852        40     1.487     1.153 -80.56   0
       616    419.9801     64.9212 307.7629622  +6.6623090     2533.381     3824.432     4426.979     77.16467     154.3909     309.2744      1.585     3.37     810.9077     54.52005     345.1125        24     1.355     0.990 -82.28   0
       617    241.2852     64.1223 307.8372331  +6.6566287      722.435     1028.047     1104.101     77.53358     155.0058     309.3973      1.611     4.13     819.2917     54.52005     111.7048         6     0.922     0.581  29.85   0
       618    633.6020     57.0005 307.6744705  +6.6727492     18581.35     27915.83     29677.34     76.91773     154.2677     308.9974      1.572     3.25     808.1743     54.52005     2420.828        44     1.448     1.111 -82.88   0
       619    257.3770     58.9476 307.8307221  +6.6593066     1370.941     2314.365     3175.248      77.0413     154.6987     309.1205      1.878     4.15      818.887     54.52005     170.6981        14     1.253     0.793 -78.71   0
       620    688.8386     57.6053 307.6514993  +6.6743509     632.7587     848.1327     1004.544     76.67001     154.4525      309.059      1.653     3.53      808.059     54.52005     99.16864         5     0.996     0.361 -85.75   0
       621    662.9623     58.3549 307.6622257  +6.6731743     597.0072     801.8669     525.8527     77.28783     154.6372     309.2128      1.414     4.41     808.2083     54.52005      83.9856         6     0.892     0.619 -37.81   0
       622    533.3788     53.1133 307.7162438  +6.6709919     5125.383     7775.222     8301.646     77.53358     154.4525     309.1821      1.644     3.31     809.0327     54.52005     719.8669        29     1.395     1.072 -85.20   0
       623    251.6399     53.3122 307.8332960  +6.6614400     2013.385     3224.074     4532.469     77.53358     154.6372     309.3358      1.940     3.66       818.96     54.52005     256.6791        21     1.258     1.038 -73.43   0
       624    438.8990     48.6581 307.7556497  +6.6696586     22856.96     34878.96     36485.59     77.28783     154.6987     309.4588      1.632     3.39     810.4324     54.52005     3097.582        55     1.560     1.167 -81.07   0
       625    259.5247     49.0238 307.8301648  +6.6634758      9146.81     14205.73     15750.65     77.16466     154.5757     309.2436      1.674     3.33      818.767     54.52005     1193.076        40     1.463     1.128 -78.84   0
       626      1.3368     51.0533 307.9373653  +6.6539363     885.4274     1006.419     1194.993     67.42876     122.9013     232.7642      1.145     3.51     822.2684     54.52005     190.3331         8     1.090     0.469 -86.58  24
       627    619.8962     47.4922 307.6804851  +6.6762150     3123.094     5539.229     6257.152     77.53358     155.1898     309.2744      1.954     5.60     807.8353     54.52005     438.6901        32     1.930     0.968  75.90   0
       628    916.7704     48.6566 307.5570918  +6.6856741     2133.393     3082.765     2895.075     77.28783     154.7601     309.2128      1.537     3.70     805.8668     54.52005     285.5177        19     1.273     0.947 -81.32   0
       629    524.1525     49.3166 307.7202052  +6.6722497     680.6702     995.3889     1139.969     77.53358     154.6987     309.3051      1.442     4.24      809.049     54.52005     126.0982         7     1.182     0.502 -75.07   0
       630    319.5194     48.9683 307.8052399  +6.6655174     981.3549     1430.321     1204.792      77.4108     154.6987     309.2744      1.585     4.90      817.317     54.52005     136.8777        10     1.090     0.756  61.36   0
       631     24.8802     48.4746 307.9276713  +6.6557952     2310.932     3654.726     3776.846     77.77855     154.9444     309.3666      1.695     3.90      821.252     54.52005     326.4406        19     1.356     0.855 -87.11   0
       632    247.5760     45.6609 307.8352428  +6.6644619     3082.836     4814.231     5713.219     77.16467     154.6372     309.2128      1.741     3.59     818.9943     54.52005     378.2677        25     1.370     1.060  85.49   0
       633    300.5719     43.7764 307.8132875  +6.6670233     1118.717      1529.48     2057.601      77.0413     154.5757     309.1513      1.586     4.04     817.8362     54.52005     167.3558        10     1.082     0.711 -89.52   0
       634    937.4917     38.9563 307.5488071  +6.6903714     1073.916      1552.06     1582.193     77.53358     154.6372     309.4281      1.482     4.71      805.338     54.52005     156.9303        11     1.262     0.675  74.70   0
       635    688.5198     38.1656 307.6522852  +6.6823658     1877.835     2600.944     2716.528      77.4108     154.7601     309.3358      1.473     3.59     807.3434     54.52005     255.7657        18     1.248     0.866 -89.51   0
       636     94.0390     38.3720 307.8992798  +6.6622984     709.8638     828.3114     679.5208     77.16466     154.4525     309.1821      1.434     6.45     819.4658     54.52005     91.39203        10     1.366     0.854 -46.85   0
       637    254.4886     33.3142 307.8327875  +6.6697916     849.9366     1449.369     1774.115     77.28783     154.9444     309.4281      1.748     4.91     818.7908     54.52005     111.3103        12     1.106     0.918 -82.43   0
       638    199.9915     34.1374 307.8554023  +6.6676168     658.2437     951.3621     262.5265     76.91773     154.4525     309.1205      1.429     3.93     819.3194     54.52005     112.2948         5     0.846     0.523  62.44   0
       639    177.0529     31.0764 307.8650362  +6.6681079     10840.25     16659.26     17558.38     77.65616     154.6987     309.3051      1.635     3.29     819.2952     54.52005     1561.139        39     1.470     1.090 -83.69   0
       640    922.5627     28.8781 307.5553484  +6.6940332     4122.332     6011.633     6263.455      77.4108     154.7601     309.3051      1.548     3.20     805.2072     54.52005     542.1283        23     1.283     0.939  87.77   0
       641    521.2004     29.3626 307.7221036  +6.6803883     2922.039     4323.532     4457.157     76.67001     154.5141     309.1205      1.584     3.81     808.7419     54.52005       366.46        21     1.340     0.916 -79.74   0
       642    723.4304     27.4077 307.6381410  +6.6879767     1906.577         2955     3194.812      77.0413     154.5141     309.0898      1.613     3.11     806.5092     54.52005      266.678        18     1.256     0.806  86.48   0
       643    459.6021     27.4683 307.7477616  +6.6791019     1944.425     3067.166     2923.612     76.91773     154.2677     309.1205      1.707     3.48     809.6086     54.52005     264.5358        18     1.241     0.892 -67.36   0
       644     78.0660     26.9946 307.9063009  +6.6664566     612.8293     891.3615     841.3476      77.0413     154.3909     309.1205      1.623     5.26      818.965     54.52005     102.0464         8     1.211     0.690  69.97   0
       645    987.4904     25.0533 307.5284975  +6.6977819     2034.164      3231.65     3300.396      77.4108     154.5141     309.4281      1.665     3.98     803.6409     54.52005     277.6522        21     1.435     0.918 -73.74   0
       646    782.3640     23.9803 307.6137683  +6.6913652       545.13     748.9626     814.7456      77.0413     154.5141     309.0898      1.419     2.59     805.6293     54.52005     101.3452         5     0.846     0.478 -85.21   0
       647    748.0432   1012.5076 307.5948441  +6.2821007     7565.806      12309.2     13497.84     77.53358     154.6987     309.4281      1.750     3.56     839.4408     54.52005     952.8912        40     1.466     1.260 -86.73   0
       648    543.5565   1013.0180 307.6797263  +6.2750397     4233.475      6824.25     7796.683      77.0413     154.5757      309.059      1.758     3.63     841.9435     54.52005     535.2299        34     1.505     1.125 -84.73   3
       649    328.9942     20.1486 307.8022756  +6.6777337     992.8895     1618.096     2409.458      77.0413     154.5141     308.9666      1.909     3.79     817.0711     54.52005     174.3537        12     1.056     0.863 -72.42   0
       650    540.8655   1005.2378 307.6811050  +6.2781615     8324.305      13045.6     13523.78      77.4108     154.6372     309.3666      1.666     3.44     841.9089     54.52005      1121.54        37     1.473     1.135 -86.11   3
       651    382.6600     18.9371 307.7800185  +6.6800384      769.909     1194.216     1280.691     77.53358     154.6372     309.3358      1.595     4.80       813.86     54.52005     115.9377         8     1.326     0.647 -87.39   0
       652    513.8643   1014.3673 307.6920084  +6.2734868     1027.995     1511.678     1460.921      77.4108     154.7601     309.2744      1.513     3.44     842.5295     54.52005     154.6874        10     1.005     0.766 -80.94   0
       653    293.8824   1011.7214 307.7834272  +6.2671925     14844.72     23544.69     25975.09     77.65616     154.9444     309.4281      1.753     3.49     842.7363     54.52005     1846.768        61     1.763     1.321 -54.08   0
       654    809.4194   1011.8038 307.5693849  +6.2844446     1015.593      1581.46     948.7371     77.16467     154.2677     309.1205      1.740     5.50       838.81     54.52005     130.7773        11     1.198     0.821 -40.25   0
       655    417.8783   1012.1240 307.7319347  +6.2711918     950.7152     1542.658     1265.324     77.77855     154.9444     309.3973      1.718     4.39      842.725     54.52005     125.7598        11     1.268     0.702 -62.17   0
       656    265.0438   1009.7875 307.7954651  +6.2670213     904.4632      1465.37     1564.699      77.0413     154.5757      309.059      1.705     5.35     842.7142     54.52005      135.881        10     1.236     0.653  89.45   0
       657    909.4874   1005.9755 307.5280326  +6.2901961     8000.309     13609.23     14635.52     77.53358     154.5141     309.1821      1.851     3.81     837.0778     54.52005     970.9014        43     1.521     1.309 -88.93   0
       658    883.0761   1002.0790 307.5391290  +6.2909222     11305.69      19406.5     21189.16     77.77855     154.9444     309.3973      1.858     3.76     837.4014     54.52005      1376.19        54     1.609     1.377 -84.56   0
       659   1004.7167   1001.6738 307.4886374  +6.2951526     4297.119     7627.645     8386.406     77.65616     155.0058     309.3666      1.936     4.09     833.2167     54.52005     467.6335        38     1.605     1.277 -87.42   0
       660    527.2410   1001.0491 307.6869025  +6.2794339     4097.896     6844.824     7746.095     77.53358     154.6987     309.2436      1.838     3.47     842.0905     54.52005     565.7855        37     1.491     1.307 -68.50   0
       661    595.7667   1002.3502 307.6584081  +6.2811942     1344.901     2176.693     2326.252      77.4108     154.6987     309.2436      1.701     4.66     841.2405     54.52005     164.9353        12     1.277     0.656 -64.15   0
       662    637.1354   1000.3276 307.6413004  +6.2834155     1374.445     2181.741     2566.542     77.53358     154.6987     309.3358      1.710     4.84     841.0392     54.52005     201.9081        19     1.438     0.965 -61.22   0
       663    480.2747    997.5659 307.7065191  +6.2792964     2219.946     3361.368     2916.192      77.4108     154.6987     309.2744      1.603     3.74     842.7573     54.52005     282.8826        21     1.340     0.992 -77.76   0
       664     61.7555    999.7858 307.8801989  +6.2643083     861.2526     1315.085     1851.705     76.91773     154.5141      309.059      1.742     3.44     839.2756     54.52005     138.8881         9     0.966     0.655  61.21   0
       665    792.6329    998.2992 307.5768073  +6.2894586     491.1809     722.8407      906.868     77.53358     154.5757     309.4588      1.580     3.49     838.6026     54.52005     96.44861         5     0.770     0.456 -75.51   0
       666    914.8173    989.7108 307.5263643  +6.2970892     40444.16     68264.33     73644.64     77.28783     154.4525     309.2128      1.833     3.59     836.5034     54.52005     4671.068        83     1.686     1.425  88.29   0
       667    320.0151    991.5021 307.7732590  +6.2764182     605.7134     869.7925     607.1059     77.53358     154.4525     309.0898      1.373     4.16     842.3911     54.52005     97.15125         6     0.983     0.504  78.30   0
       668    222.1247    988.0566 307.8140161  +6.2745493     1733.596       2636.2     2726.797     77.53358     154.6372     309.2128      1.548     3.92     841.9337     54.52005     215.6053        14     1.204     0.756 -87.07   0
       669    760.9399    981.4051 307.5905327  +6.2953731     6562.387     10483.25     11684.53      77.0413     154.5757     309.0898      1.762     3.50     838.6638     54.52005     908.3265        39     1.708     1.102 -80.17   0
       670    621.3391    985.8567 307.6483448  +6.2888606     630.8442     949.2429     227.9901     77.65616     154.6987     309.3358      1.500     5.02     840.9344     54.52005     104.5142         8     1.133     0.628 -79.75   0
       671    110.3298    986.7443 307.8604734  +6.2713284     738.5622     980.7672     646.4327     77.53358     154.6372     309.2744      1.325     3.94     839.9291     54.52005     106.6401         6     1.125     0.395  75.98   0
       672    812.7795    983.4598 307.5689400  +6.2962590     2301.332     3534.019     3612.656     77.16467     154.5757     309.1821      1.719     3.93     837.8961     54.52005     306.8205        24     1.408     1.036 -82.51   0
       673    547.4785    980.3870 307.6791947  +6.2886429     829.4355     1555.818     2275.306     77.16467     154.4525     309.1205      2.247     6.17     841.5587     54.52005     115.9049        12     1.540     0.695 -80.42   0
