#   1 NUMBER                 Running object number                                     
#   2 X_IMAGE                Object position along x                                    [pixel]
#   3 Y_IMAGE                Object position along y                                    [pixel]
#   4 ALPHA_J2000            Right ascension of barycenter (J2000)                      [deg]
#   5 DELTA_J2000            Declination of barycenter (J2000)                          [deg]
#   6 FLUX_APER              Flux vector within fixed circular aperture(s)              [count]
#   9 FLUXERR_APER           RMS error vector for aperture flux(es)                     [count]
#  12 FLUX_RADIUS            Fraction-of-light radii                                    [pixel]
#  13 FWHM_IMAGE             FWHM assuming a gaussian core                              [pixel]
#  14 BACKGROUND             Background at centroid position                            [count]
#  15 THRESHOLD              Detection threshold above background                       [count]
#  16 FLUX_MAX               Peak flux above background                                 [count]
#  17 ISOAREA_IMAGE          Isophotal area above Analysis threshold                    [pixel**2]
#  18 A_IMAGE                Profile RMS along major axis                               [pixel]
#  19 B_IMAGE                Profile RMS along minor axis                               [pixel]
#  20 THETA_IMAGE            Position angle (CCW/x)                                     [deg]
#  21 FLAGS                  Extraction flags                                          
         1    172.4327     16.5226 307.8650346  +6.6681112     11812.62     16942.45     18047.04     78.12727     156.1305     312.1368      1.578     2.92     831.3674     55.02466      1699.16        39     1.346     1.146 -84.90   0
         2    516.6768     14.7418 307.7220734  +6.6804146     3087.933     4398.187     4586.239     78.37489     156.1305     312.1057      1.473     2.75     823.7344     55.02466     452.5347        23     1.247     1.020  69.51   0
         3    918.0718     14.3111 307.5553136  +6.6940292     4393.159     6003.778     5880.652     78.25117     156.3785     312.1989      1.413     2.52      820.824     55.02466     809.2221        23     1.185     0.935 -89.85   0
         4    718.8499     13.0162 307.6381322  +6.6879018     2188.017      2913.54      3159.81     77.75434     156.1925     311.8573      1.394     3.15     822.0601     55.02466     349.2837        18     1.196     0.872  80.71   0
         5    454.9245     13.4563 307.7477732  +6.6788732     1958.244     2772.912     2618.629     78.25117     156.0684     312.0747      1.535     3.61     824.7646     55.02466     287.1295        17     1.179     0.922 -73.47   0
         6    982.8843     10.5597 307.5285099  +6.6977423     2203.725     3106.447     3327.379     78.25117     156.0684     312.1057      1.562     3.23     817.8782     55.02466     326.9267        19     1.241     0.882 -89.99   0
         7    777.8647     10.2150 307.6137063  +6.6910332     591.3773     804.9119     999.4265     77.75434     156.0063     312.0747      1.383     3.98     821.3098     55.02466     83.68182         6     0.805     0.562 -42.23   0
         8    702.2150      7.1281 307.6452417  +6.6897758     8053.761     11471.16     12160.23     77.75434     156.0063      305.422      1.491     2.80     822.1643     55.02466     1344.045        31     1.288     1.027  78.75  16
         9    622.4678      6.4202 307.6783994  +6.6873970     4067.508     5568.118     6027.315     77.87885     156.0684     300.0454      1.490     2.77     823.0468     55.02466     641.0726        24     1.180     0.973  87.93  16
        10    324.7595      5.8187 307.8021103  +6.6776541     964.0458     1399.267     2246.859     77.87885     155.9442     294.2086      1.892     3.30     832.2198     55.02466     160.3906        10     0.953     0.735  59.03  24
        11    378.3178      4.1173 307.7799159  +6.6801563     766.6799     1169.864     1322.363     78.00316     155.0094     275.3257      1.605     5.19     829.2154     55.02466     121.5963         8     1.105     0.758 -79.60  16
        12     23.5888      2.3484 307.9273509  +6.6689481      9028.56     11621.12     12036.19     77.00307     137.9441     250.6806      1.426     3.20     832.7573     55.02466     1296.469        29     1.186     1.088  71.69  24
        13    669.8473      1.9540 307.6588641  +6.6908281     898.4426      1077.58     1012.998     74.83353     132.7908      244.775      1.242     3.64     822.7009     55.02466     170.8792         8     0.926     0.666  32.14  24
        14    422.5757      2.6336 307.7615780  +6.6822552     6821.759     9367.894      9300.52     77.75434     141.6177     254.9727      1.476     2.96     826.0001     55.02466     918.2833        28     1.185     1.110 -89.40  24
        15    743.5375    998.0119 307.5948066  +6.2820652      8431.05     12425.56     12747.44     77.75434     155.9442     311.9194      1.555     3.05     855.2849     55.02466     1144.689        37     1.314     1.159  85.84   0
        16    710.6568   1022.8951 307.6076224  +6.2706921     7475.258     9051.628     9342.874     76.11723     135.0337     247.2953      1.300     2.71     856.6146     55.02466     1177.394        21     1.044     0.947   7.61  24
        17    703.0190   1022.4843 307.6108070  +6.2706062     1347.674     1800.747     2312.565     77.87885     139.8276     253.3334      1.532     4.43     856.6565     55.02466     167.9993        13     1.131     0.811  69.18  24
        18    577.8326   1023.5390 307.6627424  +6.2659800     3584.274     5180.564     6126.624     69.74036     126.1301     236.9717      1.437     3.09     856.9005     55.02466     987.3724        24     1.577     0.848   0.63  24
        19    566.7340   1022.1421 307.6673969  +6.2661849     4551.981     6373.295     6660.812     78.37489     144.1268     258.4824      1.490     2.98     856.9329     55.02466     667.8756        26     1.209     1.069  62.96  24
        20    425.3864   1022.8329 307.7260527  +6.2611613     4046.893     5083.125     5219.836      76.2444      135.535     248.0776      1.352     2.98     857.0386     55.02466     626.1894        21     1.480     0.909  34.75  24
        21    582.2047   1000.3960 307.6617049  +6.2756812     477.2383     742.2075     974.8834     77.62964     155.6955     312.0126      1.278     3.51     856.5686     55.02466     77.69373         5     0.800     0.444  17.92   0
        22    289.2911    997.2119 307.7834135  +6.2671703      16271.7     23949.03     26206.04     78.00316     155.8199     311.9816      1.603     3.04     855.5345     55.02466     2602.312        57     1.656     1.280 -48.70   0
        23    413.5911    997.8455 307.7317903  +6.2710816     991.5757     1616.758     1832.417     77.75434     156.0063     311.8573      1.771     5.34     856.8112     55.02466     138.6319        12     1.214     0.804 -71.75   0
        24    804.8753    997.4570 307.5693601  +6.2843450     1094.528     1504.927     1388.332     78.25117     156.0684     312.1057      1.428     3.27     854.1849     55.02466     167.2635        11     0.979     0.750  74.30   0
        25    115.5982    997.5475 307.8555073  +6.2611922      463.818     591.2675     526.5162     77.62964     155.8199     311.7641      1.265     4.24     854.1336     55.02466     85.50232         5     1.044     0.490 -89.15   0
        26    904.8384    991.6442 307.5280535  +6.2900844     8828.562     13825.88     13944.58     78.00316     156.0684     312.0747      1.687     3.44     853.2182     55.02466     1164.595        42     1.501     1.210 -88.34   0
        27    260.4347    994.6951 307.7954776  +6.2672399      1082.75     1519.664     1601.609      78.3749     156.0063     312.2609      1.453     2.76     855.1359     55.02466     172.3425        10     0.900     0.737  89.01   0
        28    536.2187    990.8365 307.6811174  +6.2780872     9118.521     12933.63     13885.43     77.75434     155.9442     311.9505      1.490     2.93     856.7765     55.02466     1398.619        34     1.327     1.055  81.29   0
        29    878.4913    987.7043 307.5391240  +6.2908311     12716.58     20216.51     22045.67     78.25118     156.6261     312.1368      1.756     3.47      853.144     55.02466     1651.547        55     1.539     1.385 -86.63   0
        30   1000.1863    987.1644 307.4886177  +6.2951161      4814.19     7895.092     7744.282     77.75434     155.9442     311.9816      1.734     3.67      851.051     55.02466     568.5035        32     1.408     1.174  80.13   0
        31     34.9674    989.6966 307.8892440  +6.2617193     623.9111     761.9434     430.3521     78.37489     156.0063     312.2609      1.317     3.38     852.8334     55.02466     83.61011         7     0.723     0.685   3.06   0
        32    591.1638    987.8589 307.6584067  +6.2811573     1490.359      2159.96     2104.004     78.25117     156.1305     312.1678      1.518     3.66     856.3304     55.02466     228.7068        16     1.225     0.788  89.87   0
        33    522.8613    986.6461 307.6868036  +6.2793696     4546.308     6714.442     7508.941     78.12727     156.0063     312.1989      1.635     3.39     856.7415     55.02466     655.9265        32     1.632     1.184  23.51   0
        34    632.1632    985.9382 307.6414500  +6.2833232     1526.117     2150.949     2405.911     78.25117     156.1925     312.1678      1.463     3.28     856.1147     55.02466      267.213        16     1.162     0.966 -58.04   0
        35     57.4387    984.9852 307.8800748  +6.2644209     874.8206     1285.739     1306.068     78.00315     155.9442     311.9194      1.810     4.34     853.0195     55.02466      151.433         8     1.119     0.480 -82.85   0
        36    475.6099    983.1465 307.7065379  +6.2792303      2359.79     3279.716     3697.549     77.62963     156.0684     311.8884      1.468     3.41      856.707     55.02466     322.0966        17     1.194     0.877 -81.42   0
        37    787.5687    984.2803 307.5769870  +6.2892067     638.3105     974.0514     826.9179     78.12727     156.1305     312.1368      1.571     4.30     854.1349     55.02466     87.30383         7     0.880     0.650  16.65   0
        38    910.1928    975.2618 307.5263792  +6.2970269     45119.25     69789.47     73556.31     77.62963     155.9442     311.9505      1.671     3.32     852.6641     55.02466     6136.896        73     1.544     1.322  87.42   0
        39    315.5407    975.6462 307.7732428  +6.2769553      578.056     890.7377     933.1575     78.12727     156.1305     312.2609      1.268     4.96     855.6102     55.02466     86.68744         7     1.064     0.655 -42.61   0
        40    217.5264    973.2726 307.8140127  +6.2746420     1912.025     2794.354     2252.769     78.49842     156.2545     312.2299      1.484     3.94     854.5894     55.02466     278.2319        18     1.403     0.810 -72.75   0
        41    808.1910    969.0629 307.5689354  +6.2961787     2446.839      3899.02     3951.475     77.75434     155.9442     311.9816      1.684     3.77     853.5259     55.02466     344.8791        24     1.470     1.053  86.25   0
        42    756.3245    967.1011 307.5905348  +6.2952547     6966.076     10547.46     11942.56     77.75434     156.2545     312.1057      1.647     3.42     854.0172     55.02466      998.061        44     1.740     1.139 -82.91   0
        43    616.2408    971.6387 307.6485406  +6.2886937     970.0214      1307.38     1450.704     78.00316     156.1925     312.0437      1.529     2.78      855.891     55.02466     177.7287         8     0.847     0.659  -1.82   0
        44    105.5546    971.7628 307.8605470  +6.2714993     884.0696     1420.755     1571.529     78.00316     156.1305     312.0747      1.729     3.84     853.4653     55.02466     115.8776        11     1.064     0.744  65.44   0
        45    724.0985    967.9828 307.6038845  +6.2938129     580.6867     773.7452     670.7641     78.25117     155.9442     311.9505      1.377     3.45     854.5331     55.02466     94.79718         5     0.867     0.768 -80.43   0
        46    543.0544    966.0604 307.6791124  +6.2885452     969.1722       1296.3     1043.432     78.37489     156.0684     312.1368      1.397     3.34     856.5578     55.02466     132.9649         9     0.916     0.685  73.95   0
        47    225.8441    965.7209 307.8108143  +6.2780392     1635.337     2353.366     2273.518     78.25117     156.1305     312.1678      1.401     2.56     854.6204     55.02466     279.2198        11     0.886     0.764  68.48   0
        48    190.0659    965.4769 307.8256755  +6.2769372     1054.281      1472.06     1498.053     78.37489     156.1925     312.1368      1.560     4.70     854.3637     55.02466     136.9816        12     1.023     0.881 -73.43   0
        49     50.6889    963.8860 307.8835894  +6.2729043     2864.251     4143.519     4030.214     78.00316     156.4404      312.292      1.493     2.90     852.3162     55.02466     443.1364        23     1.164     1.045  65.96   0
        50    944.5575    962.0164 307.5125552  +6.3036426     6907.725     10809.49     11199.88     77.75434     155.9442     311.9505      1.660     3.27     851.6973     55.02466     838.2292        38     1.403     1.205  72.46   0
        51    200.8274    957.5203 307.8214763  +6.2805839     598.6051     865.3057     105.1908     78.12727     156.0684     312.1678      1.375     5.86     854.3963     55.02466     84.54883         8     1.211     0.798  22.39   0
        52    918.3790    953.8066 307.5236989  +6.3061583     2075.284     3280.869     2218.371     77.87885     155.9442     311.9816      1.695     3.66     851.8697     55.02466     266.0695        21     1.262     1.039 -84.56   0
        53    626.8813    956.0109 307.6446480  +6.2955021     776.3229     962.2413     878.1071     77.87885      155.882     312.0126      1.247     2.94     855.5712     55.02466     140.7057         8     0.836     0.631  48.81   0
        54    251.0917    949.6031 307.8008763  +6.2855420     4824.242     6916.287     6979.748     77.87885     155.8199     311.9194      1.513     2.95     854.7286     55.02466     753.7821        26     1.321     0.992  85.79   0
        55    777.5593    950.0848 307.5822893  +6.3029901     1394.308     1855.132     1932.987     78.25117     156.0684     312.1368      1.406     3.45     853.3113     55.02466     228.8376        12     1.056     0.850  83.34   0
        56    638.9854    949.5612 307.6398393  +6.2985701     4893.655     6733.726      6520.37     78.00315     155.9442     311.9194      1.447     2.87     855.3999     55.02466     827.1628        26     1.234     0.986  81.86   0
        57    461.2367    947.9169 307.7136901  +6.2932930     1328.217     1929.642     1522.717     78.25117     156.0684     312.1057      1.565     3.81     856.4099     55.02466     210.0006        13     1.063     0.824  81.35   0
        58     19.8512    946.9371 307.8969637  +6.2788629     2386.847     3626.297     3919.689     78.25117     156.0684     312.1368      1.543     2.98     851.1945     55.02466     366.8846        19     1.256     0.857 -65.59   0
        59    870.6612    945.9225 307.5437747  +6.3078198     944.4163     1369.968     1054.812     78.49842     156.1925     312.1368      1.461     3.49     852.3812     55.02466     148.5187         7     0.854     0.571  65.33   0
        60    995.1840    941.3329 307.4922282  +6.3138715     845.0168     1532.109      1373.95     77.75434     156.0063     312.0747      1.997     6.27     850.2114     55.02466     131.8674        14     1.612     0.797 -81.91   0
        61    941.9941    943.2638 307.5142473  +6.3112993     632.5814     793.8912     589.2693     77.62963      155.882     311.9505      1.421     4.67     851.0802     55.02466     112.1912         7     0.958     0.645 -10.32   0
        62    563.7294    941.9551 307.6713390  +6.2991899     1968.759     2706.737      2629.74     78.25117     156.1305     312.1678      1.458     2.76      856.074     55.02466     301.8518        16     1.008     0.877  81.30   0
        63    287.1281    942.9501 307.7861400  +6.2894995     947.5959     1524.359     1659.664     78.25117     156.1305     312.1989      1.562     2.30     854.8616     55.02466     185.0575         8     0.764     0.655  56.77   0
        64     52.4315    939.1944 307.8837000  +6.2831566      796.439     1212.503     1675.813     77.62963     156.0063     311.9505      1.519     4.09     851.6109     55.02466     130.2359         7     1.006     0.475 -80.94   0
        65    603.0009    938.3276 307.6551565  +6.3020031     1251.771     1850.681     1616.948     77.62963     155.6955     312.0126      1.533     3.56     855.4504     55.02466     179.6007        12     1.142     0.727  78.86   0
        66     47.2035    937.9836 307.8859113  +6.2834804     540.0963     1040.988     1836.148     77.87885     155.7577     312.0126      1.788     4.31     851.4751     55.02466     77.12299         5     1.039     0.508  55.59   0
        67    282.6586    936.0237 307.7882289  +6.2922089     1792.966     2663.387     3170.989     77.87885     156.1305     312.0437      1.577     2.96     854.7623     55.02466     298.6654        15     1.020     0.887 -85.89   0
        68    550.1700    933.7322 307.6772448  +6.3021305     732.6976     998.8841     517.2928     78.00316     156.1305     312.1368      1.549     4.86     856.2012     55.02466     101.8933         8     1.033     0.646  58.04   0
        69    749.6467    932.2374 307.5944767  +6.3094252     1090.909     1384.187      1691.99     78.00316     156.0684     312.0747      1.466     4.31      852.836     55.02466     155.3439        10     0.983     0.789 -70.41   0
        70    887.2150    928.9060 307.5374719  +6.3153982     7446.309     10858.05     10877.74     78.00315      155.882     312.0126      1.555     3.13     851.6991     55.02466     1071.812        32     1.299     1.096  86.18   0
        71    423.1996    925.9156 307.7302221  +6.3011004     2251.599     3138.298     3631.089     77.50472     155.6332     311.8573      1.513     2.98     856.1816     55.02466     372.3295        17     1.181     0.842 -76.55   0
        72    324.8245    924.3565 307.7711165  +6.2984420     10671.73      15297.8     16064.91     77.87885     156.0684     312.0437      1.504     2.83     855.0942     55.02466     1684.051        35     1.310     1.114  88.65   0
        73    244.8324    923.2103 307.8043646  +6.2962278     7819.682     11199.45     11567.53     77.75434      155.882     312.0126      1.496     2.86     854.5507     55.02466     1278.126        31     1.285     1.054 -89.87   0
        74    757.2180    917.2955 307.5918344  +6.3158474     843.9455     1176.935     1287.928     78.12727     155.9442     311.9816      1.454     4.72     852.6162     55.02466     137.2086         9     1.138     0.694  58.84   0
        75    573.0974    917.6893 307.6682651  +6.3095221     1251.748     1538.536     2002.915     78.25117     156.5643     312.1678      1.255     2.69     855.3541     55.02466      215.131        11     0.878     0.804 -58.56   0
        76    902.9265    913.6283 307.5314604  +6.3222305     1123.346     1423.159     1375.038     78.12727     156.1305     312.1057      1.428     3.81     850.9724     55.02466      190.785        12     1.157     0.701 -87.95   0
        77    859.5428    912.9360 307.5494963  +6.3210673      830.138     1421.406     1234.748     78.37489     156.0684     312.1989      1.572     4.26     851.8768     55.02466     142.1814         7     1.225     0.460 -80.25   0
        78    135.1815    913.3007 307.8502211  +6.2966318     437.7639     715.9569     485.4428     78.25117     156.0063     311.9505      1.626     3.85     852.7933     55.02466     96.61511         5     0.902     0.470  47.99   0
        79    401.7476    911.8219 307.7396027  +6.3061992     671.9458     853.4059     671.3808     77.75434     156.1305     311.9816      1.340     2.58     855.6253     55.02466       131.03         6     0.729     0.556  30.63   0
        80    970.5425    909.7318 307.5035168  +6.3260963     850.0754     1225.829     1264.661     78.37489     156.0684     312.1368      1.662     3.86      849.368     55.02466     145.7103         9     1.037     0.713  69.49   0
        81    739.3226    906.9507 307.5996115  +6.3195198     1757.891     2427.306     2692.313     78.25117     156.1925     312.1368      1.478     3.32     852.6539     55.02466     294.4915        18     1.149     0.989  84.32   0
        82    832.3304    907.9113 307.5609631  +6.3222326     551.9128     748.1169      457.273     78.25117     156.3785     312.1368      1.560     4.30     851.9852     55.02466      106.765         5     0.962     0.608 -14.17   0
        83    563.1316    907.2562 307.6727534  +6.3134956     588.4504     659.7292     124.2161     78.37489     156.0063     312.1057      1.214     3.29     855.0237     55.02466     109.9965         6     0.752     0.625 -78.46   0
        84    603.4117    903.4465 307.6561578  +6.3164178     865.9171     1261.795      844.731     77.75434     155.9442     311.8573      1.598     4.87      854.478     55.02466     114.7933        10     1.114     0.732 -76.41   0
        85    970.6166    902.9329 307.5037136  +6.3289059     1240.548     1935.854     2421.401     77.75434     156.0684     312.0747      1.721     4.57     849.0472     55.02466     185.1092        17     1.264     1.019  66.96   0
        86    524.4991    902.4150 307.6889557  +6.3141997     1231.997     1803.318     2234.999     78.25118      155.882     311.9194      1.745     3.42     855.1248     55.02466     171.9084        12     1.007     0.921  82.10   0
        87    614.8890    903.2032 307.6514007  +6.3169025     705.3403     996.6783     641.5343     77.75434     155.8199     311.8573      1.436     2.44     854.3691     55.02466     157.9624         5     0.738     0.634  36.84   0
        88    657.9489    900.3087 307.6336200  +6.3195393     2609.345     3763.185     3867.951     78.12727     155.9442      312.354      1.506     3.18     853.8969     55.02466     425.5822        20     1.213     0.928 -86.96   0
        89   1009.1381    899.9899 307.4878179  +6.3314061     635.4825      817.761      661.284     77.62963     155.9442     311.9816      1.557     5.40     847.9034     55.02466     93.33234         7     1.295     0.636  89.77   0
        90    948.1664    898.4020 307.5131867  +6.3300273     745.1615     894.9171     1370.469     77.50473     155.9442     311.9816      1.460     4.48     849.4506     55.02466     104.7047         9     1.037     0.694 -80.97   0
        91    818.6035    896.8414 307.5670336  +6.3263443     907.1129     1153.653     1179.406     77.62963      155.882     311.9194      1.670     4.46     851.8413     55.02466     141.5925        11     1.129     0.734  80.08   0
        92    555.0701    897.3311 307.6764340  +6.3173231     519.7674     657.9221     396.6916     78.25117     156.2545     312.1368      1.550     4.07     854.6673     55.02466     94.87781         5     1.032     0.458 -62.31   0
        93    197.8654    895.5800 307.8247952  +6.3060560     2402.335     3473.409     3461.629     77.87885     156.1305     312.0437      1.524     3.29     853.7612     55.02466     354.3362        18     1.277     0.813 -85.43   0
        94     54.5815    896.2827 307.8842569  +6.3009446     3193.153     4932.463     5281.271     77.87885     155.8199     312.1368      1.660     3.54     850.9515     55.02466     448.7834        28     1.482     1.039 -80.34   0
        95     72.0467    895.8040 307.8770224  +6.3017303     2127.894     3093.105     2879.504     77.62963      155.882     311.8573      1.482     3.47      851.207     55.02466      337.868        17     1.196     0.843  80.03   0
        96    936.3940    894.9452 307.5181904  +6.3310615     680.7527     1102.655     1201.519     77.75434      155.882     311.8573      1.585     4.13     849.6965     55.02466     106.7259         6     0.781     0.624  29.77   0
        97    652.4664    889.4895 307.6362596  +6.3238226     7816.612     10679.59     10840.55      78.3749     156.3165     312.1057      1.483     2.74     853.5946     55.02466     1220.003        31     1.297     1.068 -82.61   0
        98    336.7897    891.3459 307.7672609  +6.3124722     1138.321     1766.261     2544.391     77.62964     156.0684     311.8884      1.948     3.56     854.8104     55.02466     178.3572        10     0.904     0.802  84.60   0
        99    232.4762    891.6478 307.8105587  +6.3088430     921.6876     1310.637     1163.206     78.12727     156.1925     312.1368      1.394     2.72     854.3403     55.02466     170.0781         7     0.811     0.634  77.76   0
       100    790.0767    890.5641 307.5790883  +6.3279824     775.4887     1173.976       1299.2     78.12727     156.1925     312.1989      1.724     4.79     851.9847     55.02466     115.9099         8     1.062     0.613 -22.19   0
       101     12.5540    887.6101 307.9019978  +6.3031096     1226.194     1688.342     1980.776     77.75434     156.0063     311.8573      1.471     3.86     850.2901     55.02466     181.5873        13     1.057     0.924  87.05   0
       102     25.1920    886.2044 307.8967986  +6.3041156      1129.49     1798.009     2089.452     77.62963     155.8199     312.0126      1.625     4.26     850.4358     55.02466     181.0211        14     1.228     0.793  73.70   0
       103    890.1807    885.6839 307.5376885  +6.3333421     3101.196      4262.16     4527.305     77.87885     155.8199     312.1368      1.470     2.80     850.6155     55.02466     468.3491        20     1.073     0.988  76.82   0
       104    335.5432    882.5696 307.7680741  +6.3160536     18492.56     25688.84     27250.16     78.12727     156.1925     312.0747      1.494     2.80     854.7094     55.02466     2758.973        46     1.370     1.145 -86.09   0
       105     70.0760    883.6108 307.8782523  +6.3066978     1479.745     2127.304     2287.836     77.87885     155.7577     311.9816      1.528     4.13     850.9772     55.02466      202.109        14     1.128     0.875 -66.77   0
       106    206.2507    882.0908 307.8217689  +6.3119069     1419.862     2034.409     1985.379     78.25117     155.9442      312.354      1.441     3.25     853.7792     55.02466     219.1099        12     1.111     0.691 -89.69   0
       107    385.9947    881.6656 307.7471582  +6.3181206     688.1132     1058.436     409.6093     77.75434     155.8199     311.9816      1.531     3.68     854.7679     55.02466     132.0508         5     0.813     0.527  89.47   0
       108     98.8303    873.3000 307.8666629  +6.3119224      1972.76     2744.205     3100.569     78.25117      155.882     312.2609      1.564     3.54     851.1046     55.02466     323.0999        17     1.372     0.790 -66.21   0
       109    664.7831    874.1630 307.6316604  +6.3305625     591.6763      855.478     1094.504     77.75434     156.0063     311.9194      1.324     4.80     852.9816     55.02466     96.79968         7     1.242     0.525  41.93   0
       110    413.1106    873.2012 307.7361851  +6.3225252     1090.565     1445.582     1556.565     77.50472     155.6955     311.9505      1.363     3.21     854.5562     55.02466     216.1642        10     0.970     0.755  66.81   0
       111    494.2110    870.1298 307.7026165  +6.3265135     734.6908     1237.742     1980.935     77.75434      155.882     311.9816      1.687     3.56     854.2643     55.02466     126.9455         8     0.905     0.652 -83.82   0
       112    880.7256    867.6077 307.5422200  +6.3404893     2064.693     2793.555     2629.151     77.87885     155.6955     312.0437      1.451     3.21     850.4106     55.02466     292.2045        18     1.082     1.011 -33.55   0
       113    666.9323    869.0787 307.6309388  +6.3327335     842.9427     1233.385     1415.208     78.37489     156.2545     312.1678      1.504     4.32     852.7974     55.02466     133.3094         8     0.955     0.653  -1.63   0
       114     82.3411    866.7003 307.8737315  +6.3140921     2729.343     3748.105     4171.353     78.00316     156.1305      312.323      1.512     3.14     850.7958     55.02466     436.7623        19     1.220     0.898  88.25   0
       115    851.3898    866.9172 307.5544237  +6.3397944     2182.998     3001.133     3458.156     77.87885     155.8199     312.0126      1.440     3.24     850.8964     55.02466     330.2866        16     1.078     0.907  58.13   0
       116    814.7985    866.3902 307.5696344  +6.3387892     3355.921     4636.994     5216.126     77.62964     155.8199     311.9194      1.483     2.98     851.1773     55.02466     517.5343        24     1.268     1.000 -89.73   0
       117    550.6400    857.8364 307.6796010  +6.3334803     371440.9     516845.4     541083.4     78.00316     156.1305     312.0437      1.458     3.49     853.0663     55.02466     52130.47       184     1.570     1.340  86.42   4
       118    445.3514    864.5893 307.7230890  +6.3271623     600.7012     767.9866     877.4535     77.75434     156.0063     311.8573      1.550     3.29     854.3109     55.02466     116.8096         7     0.960     0.708 -45.28   0
       119    394.8277    860.3314 307.7442091  +6.3272249     8420.823     11855.97     12082.19     78.00316     156.0684     312.0747      1.465     2.67     854.2675     55.02466     1450.132        31     1.285     1.023  87.53   0
       120    638.4738    860.7086 307.6430359  +6.3352365     1386.534     1698.989     1713.999     78.25118     156.2545     312.1989      1.316     3.32     852.9003     55.02466     228.3629        12     1.046     0.766  63.49   0
       121    338.0677    858.7626 307.7678280  +6.3259671     13771.81     19510.55     20768.48     78.12727     156.1305      312.292      1.495     2.86     854.4464     55.02466     2207.414        42     1.391     1.099 -85.89   0
       122    888.9712    854.0107 307.5392519  +6.3463784     5689.272     8331.861      9035.71     77.75434     155.9442     312.0126      1.504     3.07      849.783     55.02466     839.7872        30     1.333     1.072  85.95   0
       123    656.5376    855.0793 307.6357248  +6.3381654      4146.44     5639.032     5703.364     78.37489     156.1925     312.1678      1.426     2.80     852.5839     55.02466     631.0793        21     1.199     0.907 -87.15   0
       124    883.7435    853.4423 307.5414416  +6.3464385     540.7712     665.5364     954.3458     78.12727     156.0684     312.1678      1.148     3.42     849.8896     55.02466     102.7687         5     0.757     0.448 -20.61   1
       125    728.1249    851.7863 307.6061118  +6.3419205     905.8851     1053.561     850.2998     77.75434      155.882     311.9816      1.304     3.52     852.2554     55.02466     150.6252         9     0.974     0.706 -82.24   0
       126    631.2485    849.0992 307.6464258  +6.3397877     3737.518     5358.831     6245.675     78.25117     156.0684      312.354      1.472     2.80     852.8014     55.02466     624.5784        23     1.196     0.941  87.26   0
       127   1022.3575    848.2466 307.4840604  +6.3532101     5012.517     7192.853     7707.998     78.25118     141.8228     255.2385      1.579     3.13     844.9008     55.02466     752.0042        26     1.314     1.011  81.35  24
       128    819.7387    848.2679 307.5681907  +6.3464363     1673.719     2417.338     2703.267     78.25118     156.0684     312.1678      1.534     2.45     850.8802     55.02466     318.2794        13     1.016     0.751  88.28   0
       129    621.5910    848.1544 307.6504674  +6.3398544     1219.466     1532.442     1474.522     77.75434     156.0063     311.8573      1.497     4.60     852.9017     55.02466     164.4888        13     1.259     0.732 -81.96   3
       130    624.2735    843.5844 307.6495071  +6.3418309     2509.635     3611.306     3964.531     77.75434      155.882     312.0747      1.546     3.03     852.8221     55.02466     417.6205        20     1.197     0.986  87.30   2
       131    173.8459    848.4836 307.8363563  +6.3246917     557.0828     651.0529     1043.492     78.25118     156.1305     312.1678      1.474     4.13     852.3627     55.02466      71.9892         6     1.048     0.466  57.88   0
       132    946.9888    846.9571 307.5153983  +6.3512277     784.7227     1186.775     1758.484     77.75434     155.9442     311.8884      2.108     3.95     847.6954     55.02466     123.0535         9     0.941     0.745 -77.07   0
       133    907.8555    841.8456 307.5318184  +6.3520316     3493.603     4839.551     4703.151     78.25117     156.1305     312.1678      1.440     2.80     848.7988     55.02466     514.7855        24     1.185     1.044  77.44   0
       134    317.7561    842.2711 307.7768167  +6.3320935      1038.79     1625.657     1111.648     78.12727     156.1305     312.1989      1.639     4.08     854.4105     55.02466     184.8673        11     1.162     0.820  75.75   0
       135    365.8949    837.7620 307.7569818  +6.3355716     2893.494     4149.305      4419.54     78.37489     156.0063      312.292      1.487     2.92     854.1797     55.02466     458.8526        21     1.212     0.931 -81.67   0
       136    502.1967    827.5641 307.7007326  +6.3443546      3355.04     4536.139     4667.094     77.37962     155.9442     311.9505      1.423     2.79     853.0021     55.02466     560.2122        21     1.136     0.955 -83.86   0
       137    846.9400    826.4515 307.5576276  +6.3563525     1128.521     1672.362     1724.664     78.25117     156.0684     312.1678      1.546     3.20     850.0618     55.02466     172.5016        10     1.014     0.690  81.67   0
       138    549.0444    823.5663 307.6814156  +6.3475754     6760.565     9407.229      10152.1     77.87885     156.0684     312.0747      1.446     2.55     852.1044     55.02466     1195.266        29     1.236     1.028 -85.11   0
       139    567.2355    825.1337 307.6738098  +6.3475379     812.4579     1305.828     1766.869     78.12727     156.1305     312.2299      1.615     3.53     852.3352     55.02466     149.2456         9     0.998     0.608 -37.41   0
       140    466.7881    822.6620 307.7155993  +6.3451911     1784.224     2533.556     2237.798     77.75434     155.9442     311.9505      1.405     3.59     853.3087     55.02466     291.1921        15     1.268     0.728  75.21   0
       141    555.8663    823.0211 307.6786013  +6.3480291     1439.919      1977.12     2303.722     77.87885     156.1305     312.1057      1.505     3.16      852.159     55.02466     229.7522        13     1.106     0.723  85.31   0
       142    260.2938    823.4099 307.8013102  +6.3379498     823.7092      1381.86      1569.59     77.87885     155.7577     311.9816      1.780     5.11     854.0829     55.02466     142.0817         9     1.364     0.654  63.03   0
       143    884.6680    821.5435 307.5421265  +6.3596393     1443.634     1866.686     2025.996      78.3749     156.0684     312.1057      1.446     3.60      848.878     55.02466      208.358        13     1.153     0.762  86.49   0
       144    684.3853    820.7061 307.6253163  +6.3532888     811.7855     1115.108     1110.552     78.00316      155.882     312.0126      1.629     5.01     851.6636     55.02466     122.4851        10     1.101     0.861 -75.90   0
       145    108.5283    821.3773 307.8643898  +6.3336848     1504.807     2019.833     1591.568     77.87885     155.9442     312.1678      1.499     3.56     850.6731     55.02466     236.5377        15     1.141     0.855  37.43   0
       146    519.7285    817.5016 307.6937917  +6.3490967     22220.68     30577.92     31718.81     78.00316     156.2545     312.1368      1.458     2.69      852.382     55.02466      3607.38        48     1.344     1.127 -84.16   0
       147    360.8258    818.8540 307.7597233  +6.3432075     874.1896       1060.6      950.747     77.87885     156.1925     312.0126      1.299     3.54     854.1002     55.02466     139.3172        10     1.023     0.698  86.36   0
       148    933.3470    815.9134 307.5221023  +6.3635892     4080.814     5934.094     6014.359     78.25117     156.0063      312.323      1.531     3.10     846.8942     55.02466     562.2003        25     1.274     1.030  78.23   0
       149    166.3330    817.0124 307.8405375  +6.3374317     696.5934     1166.763      1157.82     77.75434     155.9442     312.0747      1.722     3.24     851.4367     55.02466     124.2326         7     0.807     0.622 -74.52   0
       150     30.2038    808.0309 307.8973594  +6.3365575     1529.629     2088.189     2310.644     77.75434     156.0063     311.9505      1.466     3.87      849.224     55.02466     228.0353        17     1.246     1.008 -84.53   0
       151    312.4736    806.0840 307.7802294  +6.3468559     3527.957     4973.061     4961.363     78.37489     156.4404     312.1989      1.492     2.70     854.1699     55.02466     583.4709        25     1.231     1.028  87.23   0
       152    777.9053    802.1107 307.5871088  +6.3640945     61361.76     85308.67     89327.73     78.25117     156.5643     312.2299      1.475     2.83     850.8735     55.02466     9972.649        74     1.433     1.197  85.09   0
       153    574.6716    807.0358 307.6713305  +6.3552589      516.856     674.6613     889.6219     78.12727     156.1305     312.1678      1.325     4.29     852.0499     55.02466     84.98773         7     0.762     0.688 -69.08   0
       154     12.2342    804.1180 307.9049523  +6.3375676     2415.711     3401.904     3691.695     78.25117     156.0684     312.1368      1.467     2.89     848.8132     55.02466     390.4695        19     1.154     0.919 -75.17   0
       155    716.5599    803.7700 307.6125253  +6.3613576     677.6138     943.2467     1353.677     77.75434      155.882     312.0126      1.419     2.93     851.2117     55.02466     132.4005         5     0.740     0.422  64.58   0
       156    234.7277    778.6156 307.8134357  +6.3555836     760112.5      1715709      1893301     77.75434     156.0063     312.0747      2.246     4.32     852.5314     55.02466     62759.05       658     2.830     2.074 -89.77   4
       157    706.1324    796.6569 307.6170938  +6.3639455      23646.1     33392.56      35853.1     78.37489     156.0684     312.1368      1.494     2.72     851.0022     55.02466     3927.492        54     1.435     1.160  86.44   3
       158    699.8561    793.1795 307.6198166  +6.3651711     97044.41     135391.5     142203.3     77.75434     156.1305     311.9816      1.466     2.75     850.8364     55.02466      16337.7        93     1.486     1.216 -86.71   3
       159    421.0862    800.6614 307.7353155  +6.3527410      895.364     1001.248      574.752     78.25117     156.2545     312.1678      1.313     2.79     852.9106     55.02466     159.7488         9     0.944     0.664  82.13   0
       160    903.1385    797.3419 307.5352679  +6.3702481     9406.012        13451     14212.91     78.37489     156.0684     312.1989      1.533     2.87     847.3657     55.02466     1502.353        38     1.373     1.113  87.41   0
       161    344.7113    793.9568 307.7672528  +6.3529453     22703.41     32106.88     33733.35     78.25117     156.0063     312.1989      1.480     2.80     853.7762     55.02466     3470.812        53     1.426     1.139 -89.53   0
       162    203.5854    795.7734 307.8257872  +6.3474530     603.9184      910.916     1679.492     77.87885     155.9442     312.1057      1.215     3.48     852.5123     55.02466     123.8799         5     1.041     0.336 -68.53   0
       163    406.6317    791.8426 307.7416140  +6.3558968     24301.09     34210.73     35768.07     77.75434     156.0684     311.9816      1.469     2.75      852.793     55.02466     3402.858        50     1.373     1.160  87.68   0
       164    394.0117    794.1805 307.7467753  +6.3545081     1595.634     2245.938     2064.187     77.87885     155.8199     312.0747      1.440     2.82     853.0831     55.02466     300.6331        15     1.050     0.915  66.79   0
       165    943.7526    790.8558 307.5186207  +6.3742820       2276.1     3467.509     3331.411     78.25117     156.1305     312.2609      1.527     3.21     845.9816     55.02466     331.1449        21     1.217     0.993  54.55   0
       166    873.0342    789.8992 307.5480177  +6.3723155     731.3008     1175.191     1045.636     78.25117     156.0063      312.323      1.646     5.48     848.3555     55.02466      136.093        10     1.322     0.640  88.68   0
       167    900.1204    788.7714 307.5368083  +6.3736858     7324.737     10595.25     11459.34     78.12727     156.0684     312.1368      1.531     3.02     847.3221     55.02466     1159.202        32     1.263     1.145  85.97   0
       168    640.6345    787.6904 307.6445913  +6.3654551     7268.934     10325.23     10456.49     78.37489     156.0063     312.1678      1.487     2.78     851.1862     55.02466     1023.721        35     1.313     1.089 -89.54   0
       169    429.3875    785.7638 307.7323702  +6.3591700     1873.691     2568.755      2823.56     77.75434     155.9442     311.8884      1.373     2.80     852.3553     55.02466     332.3013        17     1.108     0.888  76.12   0
       170    154.7295    784.5442 307.8464510  +6.3504457     793.1466     1047.513     1010.141     78.25118     156.0684     312.1368      1.423     4.92     850.6085     55.02466      125.804         8     1.300     0.526 -65.08   0
       171   1023.0339    780.4391 307.4860486  +6.3812282     935.8121     1284.414     1559.936     74.70396     132.9367     244.8146      1.420     4.14     844.5389     55.02466     144.0055        11     1.086     0.731 -86.82  24
       172    868.8881    779.6237 307.5500837  +6.3764193     856.3469     1185.947      908.109     78.25117     155.9442     312.0437      1.526     4.76     848.1516     55.02466     137.1722         9     1.218     0.528  48.67   0
       173    593.8312    779.8641 307.6642882  +6.3671188     1061.041     1554.274     1671.933     78.00315     156.1925     312.1368      1.407     2.67     851.0967     55.02466     173.9597         9     0.775     0.739  76.04   0
       174    144.8373    778.3556 307.8507671  +6.3526678       1097.6     1546.132     1838.032     78.00316     156.1305     312.0437      1.522     4.36     850.4103     55.02466     172.4152        11     1.203     0.727  64.92   0
       175    675.7505    777.8165 307.6303418  +6.3707072     2643.559     3703.133     4354.477     77.75434     156.1925     311.8573      1.496     2.72     850.1424     55.02466     419.0718        18     1.067     0.920  88.68   0
       176    119.9807    778.5286 307.8610816  +6.3517600     1203.347     1663.911      2102.92     77.87885     156.0063     312.1057      1.710     3.27      850.173     55.02466     199.3579        12     1.035     0.779  60.86   0
       177    409.5320    774.5311 307.7409927  +6.3631412     60233.43     83657.21      87355.8     78.25118     156.2545     312.1368      1.494     2.70     852.1584     55.02466     8802.399        67     1.399     1.203 -82.31   0
       178    952.5493    776.3116 307.5154550  +6.3805804       768.83     1048.105     757.4456     78.25118     155.9442      312.292      1.537     5.08     845.7471     55.02466     118.3605         8     1.090     0.669 -85.30   0
       179    527.2515    773.6482 307.6921428  +6.3674540     7841.236     11052.61     11625.01     78.37489     156.0063     312.1678      1.490     2.78     850.6659     55.02466     1348.079        33     1.329     1.052 -88.11   0
       180    443.9927    772.1517 307.7267640  +6.3652799     5047.889     6985.824     8238.035     77.75434     155.9442     311.7952      1.465     2.88     851.7015     55.02466     850.5685        26     1.204     1.034 -78.88   0
       181    772.4972    770.2371 307.5904236  +6.3770731     12943.15     17688.35     18289.58     78.25118     156.0063      312.323      1.449     2.73     849.5388     55.02466     1974.728        37     1.310     1.051  87.15   0
       182    440.5026    765.4379 307.7284392  +6.3679346     2650.541     3884.522     4299.371     78.25118     156.0063      312.323      1.613     2.69     851.4617     55.02466     409.7671        19     1.177     0.914  64.30   0
       183      1.8599    766.3077 307.9105375  +6.3528276     1329.599      1704.72     1669.897     73.79051     131.6182     243.5847      1.402     3.52     848.5875     55.02466     210.5215        11     1.024     0.717 -72.78  24
       184    794.3900    764.4128 307.5815283  +6.3802097      1326.43      1853.74     1546.551     78.00316      155.882     312.1057      1.427     3.18     849.0375     55.02466     264.9755        13     1.146     0.784  59.60   0
       185    130.2780    762.1328 307.8573598  +6.3588754     12525.62     18059.08     19659.96     78.37489     156.1925     312.1368      1.538     2.85     850.0015     55.02466     1973.062        41     1.330     1.205 -88.43   2
       186    122.4099    759.3400 307.8607209  +6.3597636     3247.859     4510.537      5230.43     77.62964     156.0063     311.8884      1.452     2.66     849.8584     55.02466     509.4667        25     1.230     1.084  74.15   3
       187    122.5139    753.1445 307.8608869  +6.3623248     2133.189     3258.925     3083.408     78.25117     156.1305      312.323      1.635     4.13     849.7704     55.02466     318.7603        24     1.425     1.079 -65.01   3
       188    138.4010    762.4189 307.8539774  +6.3590306     3441.588     5001.742      5408.48     77.87885     155.6955     311.8884      1.609     3.19     850.0943     55.02466     506.7489        22     1.263     0.917 -85.06   0
       189    967.0244    758.8245 307.5100299  +6.3882834     1659.959     2326.169     2875.877     77.75434     155.9442     312.0747      1.431     3.60     845.4592     55.02466     261.0652        17     1.256     0.887  72.28   0
       190    918.0266    758.7678 307.5303781  +6.3866712     6910.287     9990.095      10557.9     77.75434      155.882     311.9816      1.476     2.75     846.2886     55.02466     1066.953        31     1.328     1.039  80.01   0
       191    673.4045    756.4978 307.6320318  +6.3794303       1946.6     2689.942     3103.968     78.00316     155.8199     311.8573      1.499     2.97     849.0555     55.02466     320.7908        16     1.133     0.833  84.99   0
       192    560.2875    755.6534 307.6790304  +6.3759905     2638.509     3746.346     3857.042     78.25118     156.0063      312.292      1.475     2.71     849.7171     55.02466     442.2221        17     1.207     0.786 -84.34   0
       193    408.3926    755.2470 307.7421151  +6.3710645     1341.634      2038.12     2129.181     77.75434     155.9442     311.7952      1.577     3.58       851.48     55.02466     265.5977        12     1.105     0.790  41.71   0
       194    912.2206    750.9067 307.5330523  +6.3897228     3285.831     4720.755     4808.611     78.12727     155.9442     311.9816      1.471     2.99     846.3051     55.02466     516.2568        21     1.208     0.915  86.99   0
       195    941.6768    750.2391 307.5208430  +6.3909819     3342.562      4705.54     4846.634     78.12727     156.1305     312.1989      1.458     2.75      845.789     55.02466     490.2977        21     1.081     1.008 -87.17   0
       196    972.5356    750.0239 307.5080360  +6.3921008     1994.884     2662.122      2691.47     77.87885     156.1305     312.0747      1.438     2.85      845.348     55.02466     283.8766        15     1.063     0.810  56.86   0
       197    664.3997    749.7980 307.6359960  +6.3818949     1824.546     2350.686     2855.577     77.62964     155.6955     311.8573      1.322     2.97     848.8513     55.02466     273.6495        17     1.052     0.957   2.27   0
       198    811.8605    748.1744 307.5748183  +6.3874979     1155.325     1765.794     1552.843     77.87885     156.1305     312.0747      1.527     2.83     848.0055     55.02466     223.5618        11     0.911     0.772  76.95   0
       199    237.1432    744.9567 307.8135679  +6.3695608     2098.183     3188.955     4129.399     78.12727     156.0684     312.1989      1.732     3.19     850.7612     55.02466     293.4691        20     1.238     0.936  80.00   0
       200    886.8500    745.6552 307.5437634  +6.3910437     816.6862     1191.722     1798.553     78.25117     156.1305     312.1989      1.429     3.30     846.6475     55.02466     160.6628         8     1.030     0.497  59.36   0
       201    755.7291    744.4053 307.5982531  +6.3871773     447.4138     743.1674     410.4756     77.75434     155.7577     312.0437      1.354     3.44     848.6226     55.02466     75.40881         5     0.751     0.454 -18.12   0
       202    289.3927    742.8024 307.7919456  +6.3722062     494.4582     464.3262     505.7482     77.62964     155.8199     312.0126      1.017     3.20     851.2424     55.02466       92.422         5     0.725     0.462 -73.50   0
       203    674.5518    741.7430 307.6320509  +6.3855603     686.7841     1046.302     1049.433     78.25118     156.1305      312.292      1.276     2.79     848.3793     55.02466     118.2342         5     0.708     0.464  70.46   0
       204    930.0392    740.3066 307.5260082  +6.3946942     1160.202     1600.912     1081.962     78.37489     156.0684     312.2609      1.368     2.92     845.8905     55.02466     211.1176        10     0.917     0.700  81.27   0
       205    903.6960    738.9376 307.5369932  +6.3943798     1118.458     1423.388     1592.411     78.00316     156.1925     312.2299      1.380     3.16     846.2315     55.02466     173.7388        13     1.043     0.876  75.83   0
       206    257.4138    739.7877 307.8053256  +6.3723762     682.8838     979.9719       891.92     78.12727     155.8199     312.1057      1.395     4.80     850.7269     55.02466     123.1719         7     1.032     0.752  60.25   0
       207    152.4717    739.7399 307.8489007  +6.3688669     761.1849      722.111     536.5966     78.37489     156.1305     312.2299      1.156     3.50     849.9478     55.02466     129.5663         5     0.766     0.462 -72.05   0
       208    956.6915    738.0638 307.5150158  +6.3965099     2710.629     3828.234     3832.794     78.25117     156.3165     312.2299      1.493     3.01      845.528     55.02466     388.8217        20     1.118     1.028 -86.17   0
       209    676.0917    737.0068 307.6315705  +6.3875673     1144.187     1614.387      1810.64     77.87885     155.8199     311.9816      1.482     3.28     848.1423     55.02466     198.3257        11     1.026     0.717 -20.58   0
       210    396.8176    732.5713 307.7476848  +6.3800377     761.8657     864.8129     716.3413     77.87885     155.9442     312.1057      1.233     3.06     850.6752     55.02466     126.1133         7     0.838     0.599  76.85   0
       211    998.4509    731.3820 307.4978986  +6.4006622     1929.091     2565.189     2347.849     77.75434     156.1925     311.9194      1.446     2.87     844.7962     55.02466     281.4565        15     0.994     0.901  45.63   0
       212    467.7398    732.2800 307.7182454  +6.3825376     731.9664     1019.421     968.8828     78.37489     156.1305     312.1368      1.316     3.91     849.7147     55.02466     149.8602         7     0.973     0.657  18.30   0
       213    799.9155    729.8784 307.5803921  +6.3946523     1314.118     1952.393       1759.2     78.25117     156.4404      312.292      1.469     3.55      847.574     55.02466     226.4769        11     1.046     0.721  67.02   0
       214    624.7823    730.9750 307.6530791  +6.3883397      844.851     1216.792     1301.047     78.00316     156.0063     312.1057      1.419     2.69     848.3837     55.02466     153.4185         8     0.817     0.633  51.02   0
       215    886.0596    727.3121 307.5447064  +6.3985905     1626.407     2449.593     2893.301     78.25117     156.1305     312.2609      1.582     3.58     846.2484     55.02466     228.7927        18     1.154     1.022 -64.95   0
       216    860.5043    722.6702 307.5554740  +6.3996533     1019.582     1423.331     1612.361     78.12727     156.1925     312.1678      1.546     3.40     846.5643     55.02466     175.1145        11     1.047     0.792 -89.59   0
       217    842.8486    718.3735 307.5629497  +6.4008373     1628.327     2128.281     2114.684     77.87885     156.1925     312.1057      1.347     2.77     846.7634     55.02466     270.7898        15     1.019     0.872  70.45   0
       218     41.9155    717.3569 307.8955609  +6.3743858     2726.858     3872.615     4374.232     78.25117     156.0684     312.1368      1.444     2.72     848.8215     55.02466      440.731        20     1.234     0.892  85.40   0
       219    105.8082    715.8178 307.8690838  +6.3771726     937.3018     1771.201     1631.024     77.87885      155.882     312.0126      2.056     5.83     849.1001     55.02466     146.8604        14     1.732     0.552  66.91   0
       220    454.0393    715.8376 307.7244877  +6.3888664     514.6487     846.4297     1131.501     78.00316     156.0684     312.0437      1.647     3.82     849.4756     55.02466     82.43372         5     0.811     0.516  57.42   0
       221    559.7964    712.0397 307.6807006  +6.3939803     649.8625     896.5042     1133.889     77.37962      155.882     311.8884      1.448     4.02     848.4254     55.02466     98.12555         6     0.973     0.474 -52.85   0
       222    697.8580    709.4872 307.6234562  +6.3996575     710.8563     964.8926     1099.614     78.25117     156.1305      312.292      1.323     4.72     847.6008     55.02466     100.3452         8     0.922     0.684 -48.79   0
       223    654.6679    706.1068 307.6415046  +6.3996075     7049.832     9841.226     9991.431     78.12727     156.2545     312.1989      1.438     2.72     847.6204     55.02466     1077.798        28     1.257     1.017 -68.04   0
       224    523.1450    705.8133 307.6961294  +6.3953224     825.3985     1193.021     1328.416     77.62963     156.0684     311.9194      1.571     4.39     848.5517     55.02466      122.714        10     1.065     0.923  46.05   0
       225    601.4216    705.2562 307.6636438  +6.3981755     1625.603     2340.428     2359.548     77.87885     156.1305     311.9816      1.498     3.11     848.1297     55.02466      247.259        17     1.140     0.922  80.08   0
       226    512.0437    705.3497 307.7007547  +6.3951416     732.3336     1158.266     1641.388     78.37489     156.0684     312.1989      1.562     3.18     848.6202     55.02466     168.9453         7     0.879     0.628 -70.88   0
       227    117.5452    701.8297 307.8646827  +6.3833426     4255.826     5861.939     5835.708     78.00316     156.1925     312.1057      1.450     2.88     849.0399     55.02466     606.5428        21     1.193     0.924  89.65   0
       228    991.6189    701.5033 307.5017359  +6.4127701     2986.368     4205.006     4311.212     78.12727     156.0063     311.9505      1.513     3.10     843.9152     55.02466     439.2699        20     1.183     0.948  84.14   0
       229    628.4376    701.7733 307.6525424  +6.4005183     2314.778     3396.822     3766.013     77.87885     155.9442     312.0126      1.500     3.15     847.8383     55.02466     316.2708        17     1.121     0.868 -84.50   0
       230    304.2575    701.6224 307.7871615  +6.3897067     877.9912     1265.159     1425.979     77.87885     156.1305     311.9816      1.374     3.41     849.3752     55.02466     144.8447         6     0.861     0.574  72.96   0
       231    239.8618    701.6083 307.8139012  +6.3875484     888.8984     1026.766     1157.487     77.62963     155.9442     311.9816      1.320     3.63     849.1641     55.02466     127.9918         9     0.877     0.757  71.21   0
       232    771.4844    698.2379 307.5932598  +6.4067649     22613.53     30826.39     31907.31     78.25118     156.0684     312.1057      1.443     2.67     847.2388     55.02466     3571.811        44     1.331     1.083  86.26   0
       233    901.5569    697.9113 307.5392562  +6.4112467     4174.081     5688.636     5878.529     78.25117     156.0063     312.1989      1.427     2.76     845.4241     55.02466     609.6411        23     1.197     0.978  88.79   0
       234    470.4585    698.2175 307.7182628  +6.3966917     1623.876     2310.925     2410.354     77.87885     156.0063     311.9194      1.454     2.78     848.7987     55.02466     273.2891        14     1.059     0.794  77.46   0
       235    453.6390    699.4526 307.7252054  +6.3956175     602.1343       649.73     731.4102     78.12727     156.1305     312.1678      1.097     3.34     848.9523     55.02466       132.61         5     0.751     0.431 -23.92   0
       236    498.9698    698.0190 307.7064302  +6.3977297     1072.185     1400.178     965.2785     77.87885     155.9442     312.0437      1.383     2.49     848.5735     55.02466     194.0865         9     0.798     0.704 -61.40   0
       237    316.3947    697.5097 307.7822603  +6.3918124     617.6942     628.9834     947.6447     77.75434     155.8199     311.9194      1.136     3.86     849.1593     55.02466     92.09344         5     1.026     0.417 -74.19   0
       238    245.0513    691.8735 307.8120747  +6.3917418      6761.39     9571.807     9866.147     78.25117     156.1925     312.1989      1.484     2.98     848.8353     55.02466       1018.2        31     1.331     1.025  80.21   0
       239    652.0621    690.9442 307.6430960  +6.4057802     7831.763     11009.68     11895.64     78.37489     156.1305     312.1678      1.476     2.83     847.3483     55.02466     1272.342        33     1.372     1.049 -81.83   0
       240    634.3968    692.2587 307.6503875  +6.4046460     907.7902     1375.592     1756.457     77.62964     156.0063     311.9194      1.628     3.60     847.5862     55.02466     161.1524         8     1.019     0.600 -77.71   0
       241     80.7445    693.4037 307.8802478  +6.3855822     460.8662       582.12     103.1053     77.62964     155.9442     311.8573      1.180     3.45     848.8707     55.02466     70.54987         5     0.770     0.447 -18.80   0
       242    347.0490    690.8756 307.7697550  +6.3955809     709.7137     1080.095     1573.731     78.12727     156.1925     312.1678      1.690     3.18     848.7349     55.02466     114.5344         7     0.864     0.543 -46.46   0
       243    911.8760    683.5173 307.5354533  +6.4175340     1393.895     1831.616     2082.582     78.37489     156.4404      312.292      1.485     3.30     844.9008     55.02466     219.7468        11     1.034     0.719  85.91   0
       244    723.6691    679.4538 307.6137462  +6.4129207     4112.268       5984.8      6522.85     78.12727     156.0684     312.0747      1.536     2.87     846.8533     55.02466     617.6273        25     1.367     0.947  88.40   0
       245    679.0341    679.7923 307.6322701  +6.4112873      1186.96     1685.639     2060.248     77.75434     155.9442     311.9505      1.579     3.30      846.851     55.02466     186.8278        10     1.007     0.661  81.49   0
       246    990.1040    676.0432 307.5032174  +6.4232311      9681.38     13806.69     14261.88     78.25117     156.0684      312.292      1.490     2.92      843.092     55.02466     1570.402        39     1.424     1.078  84.06   0
       247    928.4930    676.5140 307.5287873  +6.4209803     2620.542     3774.654     3936.272     78.12727     156.5643     312.2609      1.503     2.68     844.3384     55.02466     421.4385        17     1.149     0.861  72.21   0
       248    730.9755    676.5254 307.6108103  +6.4143742     600.0085      1061.63     1607.567     77.87885     155.9442     312.1057      2.189     2.89     846.7983     55.02466     109.9235         6     0.777     0.499   2.39   0
       249      9.2737    675.5715 307.9105266  +6.3905367     2077.232     2971.612      3110.14     78.12727     156.1305     312.1368      1.427     2.46     848.7807     55.02466     353.8318        13     0.973     0.743  58.97   0
       250    542.8575    674.0833 307.6890108  +6.4090831     635.8802     687.4115     712.1832     78.25117     156.1305     312.2299      1.359     4.01     847.7518     55.02466     106.2507         6     0.796     0.578 -36.69   0
       251    425.9413    673.7847 307.7375709  +6.4052853     687.0479     919.9863     1302.903     77.62963     156.0684     311.9194      1.258     3.74     848.1912     55.02466      132.245         6     0.907     0.647  73.26   0
       252     67.4511    670.7794 307.8865319  +6.3944749     28131.86     40046.93     42084.68     77.75434     156.1925     312.0126      1.511     2.82     848.7565     55.02466     4123.154        55     1.365     1.222  85.36   0
       253    528.6132    671.7203 307.6950054  +6.4095812     2244.739     3006.799     2906.817     77.87885      155.882     311.9816      1.422     3.07     847.8043     55.02466     326.9969        16     1.108     0.837  78.10   0
       254    497.3262    668.8956 307.7080925  +6.4096984     1486.929     1862.896     1847.018     78.00316     156.2545     312.1678      1.418     3.79     847.9402     55.02466     231.2698        15     1.240     0.827 -77.79   0
       255    918.5233    667.9177 307.5332155  +6.4241965     1137.707     1535.751     1450.781     78.37489     156.3785      312.292      1.426     3.43     844.3655     55.02466     200.7934        12     1.031     0.813 -87.81   0
       256    537.9893    665.3914 307.6913247  +6.4125084     1077.732     1534.852     1367.672     77.75434     155.9442     312.1057      1.432     3.57     847.5941     55.02466     166.9949        12     1.047     0.848  75.73   0
       257    713.4139    663.0579 307.6185552  +6.4193468     3823.419     5332.665     6092.198     77.62963     156.0063     311.8884      1.482     2.77     846.4294     55.02466     552.5205        20     1.206     0.882 -82.10   0
       258    735.4398    661.3594 307.6094655  +6.4207850     4605.912     6318.321     6537.887     78.00316     156.2545     312.0437      1.452     2.53     846.4131     55.02466     757.0883        25     1.279     0.945  76.06   0
       259    566.7985    659.1974 307.6795696  +6.4160311     3560.792     4764.979     4981.817     77.62963     155.6955     311.9194      1.425     2.70     847.3319     55.02466     632.9629        21     1.145     0.909  88.21   0
       260   1008.3640    657.5682 307.4962529  +6.4314681     5503.901     7595.563     7848.335     77.87885      155.882     311.9194      1.500     2.93     842.3807     55.02466     853.3599        26     1.257     0.992  80.69   0
       261    402.9905    659.6224 307.7475782  +6.4103620     1496.773     1947.671      2100.52     77.87885      155.882     312.0126      1.307     2.72     847.7156     55.02466     276.8533        12     1.009     0.739  62.57   0
       262    973.7347    656.4745 307.5106705  +6.4307641      8972.64     12702.85     13572.43     78.37489     156.1305     312.1678      1.531     2.77     843.0023     55.02466     1375.724        35     1.319     1.104  84.28   0
       263    310.8568    658.1253 307.7858874  +6.4078862     1591.273     2252.546     2557.035     78.12727     156.0063     312.1368      1.475     2.74     847.6865     55.02466       307.14        14     1.070     0.760  84.59   0
       264    227.5862    658.5490 307.8204509  +6.4049126     1919.866     2755.171     2432.986     77.62964     156.1305     311.9194      1.493     3.14     847.8561     55.02466     290.4193        16     1.094     0.908  61.20   0
       265   1022.7550    655.1990 307.4903558  +6.4329264     795.2958     1053.994     1461.543     76.75101     136.5321     248.9353      1.458     5.52     842.0413     55.02466     114.4155         9     1.111     0.774 -53.90  24
       266    693.6934    655.0313 307.6270141  +6.4220007     1149.994     1682.331     1421.541     78.37489     155.9442     312.1989      1.488     2.49     846.1795     55.02466     191.8303         8     0.796     0.637  50.52   0
       267     85.3676    653.0546 307.8796912  +6.4023957     954.2144     1379.198     1005.285     78.12727     156.1305     312.1057      1.430     3.76     848.4042     55.02466     167.4563         9     1.183     0.474  85.42   0
       268    132.1795    649.6805 307.8603671  +6.4053644     26375.85     37526.54     38995.08     78.00316     155.8199     312.1368      1.494     2.80     848.0837     55.02466     4201.609        51     1.366     1.156 -88.21   0
       269    419.0935    650.5444 307.7411970  +6.4146503     3050.853     4429.438     4853.058     78.12727     156.1305      312.354      1.513     2.97     847.5471     55.02466     510.8914        22     1.209     0.969  80.56   0
       270    800.3298    650.0831 307.5828967  +6.4276107     1140.816     1348.171     1426.592     78.49842     156.3785     312.1989      1.231     2.82     846.1751     55.02466     226.9152         9     0.916     0.674  17.63   0
       271    351.6389    644.0840 307.7694257  +6.4150529     739.8495     1056.586     810.4411     78.25117     156.0684     312.1057      1.544     4.56     846.8984     55.02466     105.6313         8     1.360     0.435 -69.00   0
       272    968.5659    639.3666 307.5133900  +6.4376549      7629.38     11425.49     12183.79     77.87885      155.882     311.9194      1.624     2.99     842.7857     55.02466     1124.426        37     1.441     1.108  58.56   0
       273     13.1505    638.3498 307.9101752  +6.4060339     1233.279     1889.895     1551.536     78.25117     156.0063     312.1057      1.572     3.74     848.6603     55.02466     174.8491        12     1.166     0.689 -88.96   0
       274   1023.3451    634.4850 307.4908041  +6.4414982     80962.39     101005.9     104103.6     71.79401     128.8658     240.3412      1.241     3.22     841.6976     55.02466     16187.53        50     1.485     0.798 -89.50  24
       275    562.1944    634.5942 307.6823088  +6.4260344     52532.21     73601.53     76954.93     77.62964     155.9442     311.9816      1.453     2.75     846.7907     55.02466     8794.802        66     1.410     1.182 -88.58   0
       276    926.7682    636.0347 307.5308597  +6.4376352     774.5654      961.506      878.592     77.87885      155.882     311.9194      1.305     3.98     843.5165     55.02466     123.7253        10     0.943     0.834  42.62   0
       277    205.6235    635.7281 307.8303408  +6.4135955     772.1914      1085.28     1946.765     77.87885     156.0063     312.1368      1.771     5.04     847.4033     55.02466     116.5287         9     1.342     0.535  70.88   0
       278    521.0572    634.5209 307.6993944  +6.4246858     628.5547     697.5785     671.6956     78.25117     156.1305     312.1368      1.316     4.83     846.9973     55.02466     93.67773         7     1.011     0.654 -66.41   0
       279    169.7536    631.2200 307.8453879  +6.4142501     2928.747     4254.209     4287.898     77.87885     156.1305     311.9816      1.526     3.03     847.3623     55.02466     434.9651        22     1.296     1.019  57.57   0
       280    973.0865    631.0693 307.5117904  +6.4412314     715.0081         1022     1094.198     78.37489     156.3785     312.1989      1.559     5.34     842.5651     55.02466      100.937         8     1.059     0.761 -89.98   0
       281     62.2776    625.1936 307.8902204  +6.4131202     1570.818     2178.657     2167.071     77.87885     155.6332     311.9816      1.547     3.05     848.1063     55.02466     248.2156        12     0.950     0.826  68.43   0
       282    459.4713    618.3730 307.7255126  +6.4292872     67847.14     94788.84      99533.3     77.87885     156.0063     312.1057      1.508     2.69     846.6401     55.02466     10592.29        78     1.450     1.210 -87.53   0
       283      2.9466    619.9611 307.9150339  +6.4132816     2030.876     3069.439     3231.088     78.12727     144.9981     259.5298      1.572     3.76     848.7094     55.02466     274.5013        21     1.275     1.031 -81.80  24
       284    133.8540    613.3772 307.8608976  +6.4204084     1807.237     2165.371     1848.026     77.75434     156.1305     311.9816      1.368     3.49     847.1324     55.02466     262.4452        14     1.104     0.791  83.58   0
       285    929.2495    611.1994 307.5306613  +6.4479717     755.9645     1063.944     1049.215     77.50473     155.7577      311.733      1.527     4.15     842.9733     55.02466     108.0601         6     0.770     0.638   0.67   0
       286    412.9015    610.7938 307.7451069  +6.4308536     928.6112     1151.585     839.3772     78.00315     155.7577     311.9194      1.303     3.15     846.4048     55.02466     149.4358         8     0.941     0.588 -66.24   0
       287    605.1534    609.9247 307.6652982  +6.4376588     1089.735     1568.435     1514.167     78.12727     156.1925     312.1678      1.418     2.28     845.6748     55.02466     194.1011         9     0.762     0.717 -27.73   0
       288    305.1165    607.4474 307.7899794  +6.4286156     2309.411     3343.165     3452.751     78.25117     156.1305     312.1989      1.532     3.01     846.4928     55.02466     384.2161        19     1.119     1.026 -89.84   0
       289    645.1166    615.1067 307.6485280  +6.4368578     926.7412     1267.156     1514.774     78.00316     156.5023      312.292      1.490     3.41     845.2732     55.02466     149.3574         9     0.968     0.641  51.50   0
       290    457.1015    606.3412 307.7269017  +6.4341750     959.3083     1554.982     2475.577     78.00316     156.0684      312.292      1.800     3.44     846.2433     55.02466     157.8528        11     1.016     0.764  59.83   0
       291    731.5480    601.9384 307.6130764  +6.4451874     5766.481      7871.54     8080.628     78.25117     156.0684     312.1678      1.412     2.59      844.997     55.02466     864.7949        28     1.256     0.992 -81.48   0
       292   1002.1943    597.9776 307.5008101  +6.4558652     1114.456     1585.169     2048.552     77.87885      155.882     312.0126      1.435     4.00     841.1555     55.02466     198.7449        11     1.196     0.667 -85.74   0
       293    785.0473    597.2061 307.5910173  +6.4489306     15409.21     21427.91     22648.91     77.75434     155.9442     311.8262      1.437     2.69     844.8132     55.02466     2660.346        44     1.302     1.140  81.68   0
       294   1023.9119    596.1869 307.4918506  +6.4573290     964.2629     1181.283     1308.688     64.39531     120.2311     230.6314      1.024     3.45     840.6605     55.02466     297.5193         7     1.274     0.283  89.39  24
       295    527.4589    596.8993 307.6980015  +6.4404327     1434.316      2228.58     2500.917     78.00315     156.1305      312.292      1.795     3.64     845.8055     55.02466     224.0151        17     1.208     0.959  88.55   0
       296    608.9014    595.1625 307.6642379  +6.4438790      3204.97     4244.462     4449.504     78.25117     156.0063      312.354      1.389     2.75     845.0587     55.02466     561.0255        22     1.166     0.969 -85.15   0
       297     29.9348    596.0853 307.9046344  +6.4240478     674.8923     834.4435     676.6171     78.37489     156.3165     312.2299      1.400     4.17     848.1439     55.02466     135.0817         6     1.141     0.636  -0.94   0
       298    620.7635    595.1328 307.6593127  +6.4442886     458.2753     411.2611     418.2613     78.12727     156.1305     312.2299      1.285     4.13     844.9243     55.02466     75.59857         5     0.837     0.636 -49.23   0
       299    926.0394    590.9150 307.5326742  +6.4562392     1189.788     1652.557     2259.534     78.25117     156.0684     312.1368      1.520     3.69     842.2763     55.02466     167.7585        13     1.047     0.860 -42.20   0
       300    185.0960    589.5875 307.8404221  +6.4319540      635.033     1000.328     2006.822     78.00315      155.882     311.9505      1.678     4.52     846.3331     55.02466     97.29749         7     1.125     0.516  71.67   0
       301    367.3636    588.6573 307.7647633  +6.4384639     935.9135      1203.89     1200.323     78.25118     156.1305     312.1678      1.392     3.33      844.945     55.02466     159.5533         8     0.928     0.629  89.06   0
       302    221.5448    588.3172 307.8253291  +6.4337043     1363.351     1860.824     1966.991     78.25118     156.1305     312.2609      1.558     3.69     846.1207     55.02466     187.2103        15     1.064     0.952 -85.21   0
       303    861.1270    580.4124 307.5599846  +6.4584071     3066.903     4146.749     4550.727     77.75434     155.7577     311.9816      1.403     2.64     843.5663     55.02466     575.7861        20     1.169     0.909  74.22   0
       304    156.6884    580.3867 307.8525294  +6.4347967     836.7212      1098.59     1173.213     78.00316     155.9442     312.0437      1.477     5.32      846.295     55.02466     141.7347        10     1.095     0.966 -25.54   0
       305    819.7595    578.0187 307.5772450  +6.4580129     2884.592     3900.366     4341.676     77.87885     155.9442     311.8884      1.419     2.99     843.8701     55.02466     427.4309        19     1.176     0.899  85.91   0
       306    800.4484    569.0929 307.5855644  +6.4610524       174570     240573.5     251705.1     78.12727     156.0063      312.292      1.453     2.68     843.6765     55.02466     27645.69       118     1.484     1.248  86.77   0
       307    790.5763    573.7084 307.5895095  +6.4588168     2869.623      4005.82     4864.372     78.25118     155.9442     312.0126      1.599     2.62     843.9061     55.02466     414.0381        19     1.100     0.905 -83.18   0
       308    733.1146    574.0999 307.6133604  +6.4567332     666.1405     1242.725      1718.19     78.25117     156.6261     312.2609      1.673     4.05     844.0672     55.02466     129.8416         6     1.106     0.423 -63.88   0
       309    247.8493    572.7186 307.8149319  +6.4410286     8514.575     11968.13     12329.27     78.25117     156.1305     312.1989      1.473     2.83     845.6461     55.02466     1316.254        33     1.298     1.051  86.82   0
       310    182.0544    567.3170 307.8424369  +6.4410459     62057.75     90156.68     95568.09     78.25117     156.1305     312.2609      1.537     2.98     845.8386     55.02466     9876.319        81     1.510     1.270 -85.66   0
       311    851.6356    570.7988 307.5642488  +6.4620590      601.676     549.9459     343.1956     77.37962     155.9442     311.9816      1.105     3.45     843.4073     55.02466     102.4821         5     0.740     0.464  77.18   0
       312    730.2319    569.4203 307.6147146  +6.4585687     700.1961     1074.287     1432.735     77.75434     155.9442     312.0437      1.644     2.87     843.8894     55.02466      113.871         5     0.704     0.481  12.47   0
       313    106.1020    563.4931 307.8741067  +6.4400684     6660.164     9680.152     10261.94     78.25117      156.688     312.1057      1.564     2.80     846.4913     55.02466     1069.003        33     1.287     1.119  84.25   0
       314    971.5205    560.8544 307.5147924  +6.4701684     1570.694     2050.688     2145.179     78.37489     156.1305     312.1989      1.378     3.21     840.0928     55.02466      230.336        14     1.045     0.844  16.10   0
       315    992.5283    559.6935 307.5061064  +6.4713488     932.9708     1288.236     1510.148     78.12727     156.1925     312.2299      1.675     4.19     839.6133     55.02466     133.2468        10     0.969     0.817  21.40   0
       316    220.5637    558.9006 307.8267291  +6.4458158     834.9545     1112.667     1172.368     78.25117     156.0063      312.354      1.427     3.24     845.2431     55.02466     178.7529         7     1.007     0.567  64.31   0
       317    837.0132    556.3820 307.5708051  +6.4675225     4981.785     6694.777     6517.973     78.00315     155.8199     312.0747      1.423     2.61     843.0484     55.02466     872.5189        28     1.231     0.985  87.92   0
       318    355.4457    554.4564 307.7708649  +6.4521835     18629.14     26413.42     27528.01     78.25118     156.1305     312.1989      1.551     2.78     843.2788     55.02466     2682.597        44     1.367     1.151 -86.33   0
       319    445.2961    554.1011 307.7335630  +6.4553464     727.6906     1240.623     953.0057     78.25117     156.6261     312.0126      1.693     5.02     843.6796     55.02466      114.926         8     1.194     0.597  75.68   0
       320    157.2515    553.1934 307.8532137  +6.4460422     1834.104     2658.139     3547.161     77.75434     155.9442     311.8262      1.517     2.99     845.8215     55.02466     278.3508        15     1.096     0.826  56.97   0
       321    902.1623    551.6817 307.5439053  +6.4716398     493.5396     934.2136     939.6708     78.25117     156.1925     312.1368      1.770     4.15     841.5695     55.02466     106.6337         6     0.787     0.624  76.48   0
       322    790.9481    549.6625 307.5901619  +6.4687568     6337.973     8731.282     9202.187     78.25117     156.0684     312.1368      1.416     2.73     842.9666     55.02466     1080.816        29     1.216     1.035 -87.42   0
       323    521.8492    549.4000 307.7019290  +6.4598550     6967.137     9846.223     9769.025     77.50473     155.6332     311.7019      1.487     2.71     843.4447     55.02466     1112.793        30     1.278     1.026 -86.50   0
       324    232.0896    551.0672 307.8222069  +6.4494374     883.4763     1468.846     2152.658     78.37489     156.3165     312.1368      2.112     5.66     844.9478     55.02466     122.1077        11     1.283     0.704  59.14   0
       325     94.7508    550.2852 307.8792667  +6.4451390     934.0147     1303.111     1188.312     78.25118     156.1305     312.2299      1.405     4.18     846.3823     55.02466     133.1343         9     0.906     0.738 -76.12   0
       326    380.1290    545.8906 307.7609029  +6.4565488     1297.265     2029.565     2277.524     78.12727     156.3785     312.1678      1.681     3.10     843.0977     55.02466     206.8429        13     1.043     0.821  34.90   0
       327    168.8092    542.4648 307.8487763  +6.4508603     7184.508      10409.6     10526.66     77.75434     155.9442     312.0437      1.532     2.93     845.3826     55.02466     1069.233        34     1.336     1.101  82.53   0
       328    566.5077    542.3300 307.6836201  +6.4642708     2545.075     3860.222      4059.23     78.25118     156.2545     312.1678      1.658     3.38     843.1693     55.02466     413.5397        22     1.244     1.061 -46.58   0
       329    264.0643    538.9775 307.8093362  +6.4555036      91650.9     133639.2     139709.4     77.87885     156.1305     312.0437      1.516     2.98     844.4067     55.02466     13678.49        88     1.484     1.268 -88.96   0
       330    807.6654    541.7787 307.5834835  +6.4725706     1518.884     2099.229     2495.339     77.87885     156.1305     312.0437      1.443     2.73     842.6382     55.02466     247.7363        14     1.020     0.780  69.36   0
       331     40.4874    541.1653 307.9021088  +6.4470764     5311.098     7645.724     7360.418     78.25118     156.0063     312.1678      1.499     2.96     847.1082     55.02466     752.7516        26     1.258     1.005  77.64   0
       332    849.9307    542.3330 307.5659114  +6.4737545     718.8851     1075.878     629.8402     78.25117     156.1925     312.1678      1.457     3.06     842.5912     55.02466     120.2788         7     0.727     0.675   4.95   0
       333    553.3771    536.3271 307.6892752  +6.4663090     1047.298     1371.753     2388.049     77.87885     155.9442     312.1368      1.607     3.21     843.0365     55.02466      147.418        10     0.922     0.736 -43.22   0
       334    787.1936    531.4977 307.5923307  +6.4761308     17990.13     24372.63     25687.39     78.00316     155.7577     311.9505      1.442     2.65      842.475     55.02466     3116.319        43     1.330     1.089 -87.14   0
       335    490.8197    529.8237 307.7154743  +6.4668966      42935.5     66872.05     71434.53     78.00315     155.9442     312.1057      1.667     3.09     842.7819     55.02466     6138.374        80     1.509     1.446  73.27   0
       336    247.9173    533.9229 307.8162124  +6.4570475      1619.87     2297.883     2277.454     78.37489     156.3785      312.292      1.489     3.41     844.1777     55.02466     264.6973        15     1.034     1.003 -79.32   0
       337    963.5125    532.7858 307.5190584  +6.4814897     1753.882     2349.523       3053.3     77.87885     155.9442     312.0437      1.475     2.99     839.2861     55.02466     256.5153        16     1.102     0.829 -87.77   0
       338    641.2899    528.1883 307.6530379  +6.4726146     1011.417     1488.149     1450.439     78.00316     155.8199     311.9816      1.482     3.90     842.6915     55.02466      173.306         8     0.950     0.565 -78.06   0
       339    713.0474    524.2908 307.6233669  +6.4766259     1322.697      2229.15     2708.124     78.25117     156.0684      312.292      2.147     5.69     842.5375     55.02466     213.1953        18     1.697     0.874  72.27   0
       340    203.0824    525.9844 307.8350995  +6.4588171     2031.598     2932.827     2638.625     77.87885     155.8199     312.0437      1.463     2.87     844.1562     55.02466     343.9611        20     1.160     1.031  32.46   0
       341     88.9651    526.2628 307.8824810  +6.4548616     571.5424     744.5195     655.7167     78.12727     156.1925     312.1368      1.319     4.22     845.8547     55.02466     93.19354         6     1.129     0.449  72.27   0
       342     38.8193    526.1678 307.9033085  +6.4532117     1283.544      1648.85     1383.519     77.75434     155.9442     312.0126      1.399     3.24     846.5065     55.02466     197.9275        13     1.028     0.834 -87.02   0
       343    661.1185    524.5549 307.6449249  +6.4747786     1530.161     2125.964     2466.502     78.25117     156.1305     312.1368      1.441     3.56     842.6037     55.02466     239.8505        15     1.162     0.833 -84.21   0
       344    650.8076    524.8343 307.6491978  +6.4743180     3198.633     4541.942     5015.006     77.75434     155.9442     311.9505      1.458     2.95     842.6097     55.02466     473.7812        23     1.125     1.032  84.93   0
       345     69.9761    522.3237 307.8904998  +6.4558483      690.725     986.8133     1023.735     77.87885     156.0684     312.1368      1.314     3.33     845.9684     55.02466     118.9335         5     0.757     0.425 -18.14   0
       346    388.5939    520.3651 307.7582474  +6.4673712     1886.849     2734.614     2702.844     77.50473      155.882     311.9505      1.583     3.34     842.4169     55.02466     248.3761        18     1.110     0.983  72.56   0
       347    319.8812    518.7238 307.7868390  +6.4657410     4193.168     5801.576     5888.035     78.49842     156.3785      312.292      1.466     2.95     842.6786     55.02466     642.9541        23     1.205     0.964  81.15   0
       348    135.1522    517.2902 307.8636035  +6.4601208     27491.56     39816.81     41886.59     78.25117     156.0063      312.323      1.543     2.87     844.7484     55.02466     4334.247        56     1.406     1.221 -89.12   0
       349     66.2649    520.5935 307.8920994  +6.4564376     520.1131     984.1537     1038.198     77.75434      155.882     311.9505      2.191     3.50     845.9821     55.02466     87.07617         5     0.780     0.454 -17.23   0
       350    499.7829    518.1137 307.7121459  +6.4720316     2261.755      3033.47     3224.616     77.87885      155.882     312.1057      1.364     2.81     842.4842     55.02466     361.1033        15     1.068     0.812  76.88   0
       351    863.1206    517.3495 307.5612711  +6.4845100     1695.376     2419.142     2399.263     78.25117     156.1925     312.1678      1.544     2.83     841.4596     55.02466     279.0116        16     0.999     0.948 -15.46   0
       352    100.3298    515.4623 307.8781264  +6.4597031     2766.522     4015.842     4238.694     78.25118     156.1305     312.2299      1.547     3.12     845.3939     55.02466     420.9216        20     1.277     0.871  85.20   0
       353    960.7591    512.0485 307.5208967  +6.4899595     5588.709     7670.557     7965.735     78.25117     156.0684     312.1057      1.432     2.78     838.8585     55.02466     905.9631        27     1.195     0.999  74.51   0
       354    337.3086    513.6118 307.7797737  +6.4684370      1054.08     1413.343     1948.863     78.00316     155.8199     311.9816      1.528     2.85      842.271     55.02466     165.7365        10     0.859     0.786  51.52   0
       355    533.8401    504.6461 307.6984547  +6.4787338     1580.559     2380.561     2511.854     78.12727     156.1305     312.0126      1.595     3.54     842.1749     55.02466     230.1553        14     1.063     0.904  83.76   0
       356      1.3089    501.7362 307.9197117  +6.4620340     5095.727      6696.31     7234.956     67.76751     123.9607     234.5058      1.207     3.33     845.7843     55.02466     1272.543        16     1.375     0.548  89.37  24
       357    432.1721    498.5216 307.7408849  +6.4778521     45350.31     64714.71     67400.39     78.12727     156.0684     312.1678      1.540     2.82     841.9296     55.02466     7193.679        65     1.418     1.222  89.39   0
       358    640.1932    498.2113 307.6545007  +6.4849540     13033.82     18462.64     19323.58     77.87885     155.9442     312.0747      1.492     2.74     841.9348     55.02466     2172.755        40     1.347     1.108 -86.40   0
       359    408.5144    500.7569 307.7506348  +6.4761352     527.4749     706.3306      796.801     78.25118     156.0063     312.1678      1.542     4.92     841.9514     55.02466     84.42133         7     1.075     0.636  68.96   0
       360    197.2570    496.0216 307.8385301  +6.4709911     18741.44     28867.07     30969.64     77.87885     156.0684     311.9816      1.587     3.07     842.7851     55.02466     2752.086        54     1.541     1.207  66.78   0
       361    973.8742    496.5491 307.5159687  +6.4967964     1274.235     1605.216     2143.292     78.25117     156.1925     312.1989      1.370     3.68      838.187     55.02466       192.33        11     1.064     0.706 -88.22   0
       362    162.9619    497.1487 307.8527346  +6.4693720     1727.877     2455.207     2681.291     78.00316     156.1305     312.1368      1.440     3.01     843.1952     55.02466     245.1147        14     1.008     0.870 -83.97   0
       363    902.7528    496.0683 307.5455241  +6.4946202       820.67     1062.811     1515.464     78.25117     156.0684     312.1368      1.503     3.85     839.7612     55.02466     137.2065         8     0.967     0.832  74.49   0
       364    814.0478    496.2196 307.5823612  +6.4915936     1008.785     1498.639     1051.056     77.75434     156.1305     311.9816      1.606     3.78     841.4178     55.02466     168.9626        11     1.074     0.846 -66.33   0
       365    561.9877    495.0851 307.6870862  +6.4836246     2925.553      4007.15     3907.262     77.87885     155.9442     312.0126      1.413     3.00     841.8958     55.02466     474.0398        22     1.181     0.999  72.76   0
       366    935.8228    492.1759 307.5319194  +6.4973316     5242.251     7105.183     7621.145     77.75434     156.0063     312.1368      1.408     2.62     839.0059     55.02466     957.0337        23     1.197     0.920  83.69   0
       367    609.0172    490.4687 307.6677091  +6.4871064      6872.29     9506.398     9909.587     77.75434     156.0063     312.0747      1.457     2.65     841.7424     55.02466     1170.886        32     1.289     1.043 -87.85   0
       368     96.6959    490.8470 307.8804671  +6.4697429     1245.819     1733.504     1522.423     78.12727     156.0063      312.323      1.517     3.91     844.8146     55.02466     184.0328        13     1.124     0.849  42.48   0
       369    280.2224    498.4512 307.8039928  +6.4727778     1089.794     1669.536     1006.048     77.75434     156.1305     312.0437      1.583     4.03     841.9097     55.02466     206.6158        14     1.198     0.975 -37.88   0
       370    958.4593    484.4174 307.5227775  +6.5012906     3798.397     5123.473     5059.881     77.87885     156.0063     311.9194      1.388     2.46     838.2742     55.02466     656.4932        23     1.206     0.932 -86.04   0
       371    521.1754    481.7804 307.7044839  +6.4877494     7873.715     11414.13     12044.97     77.87885     155.9442     312.1057      1.511     2.77       841.54     55.02466     1182.162        34     1.322     1.093 -87.36   0
       372    367.1903    481.8219 307.7684351  +6.4825650     2911.266     4274.272     4295.498     77.87885      155.882     312.0126      1.521     2.91     841.3221     55.02466     432.2672        22     1.242     0.923 -85.77   0
       373    396.8168    483.0552 307.7560893  +6.4830506     689.2907     978.8185     1097.976     77.75434     156.0684     311.9194      1.438     4.24     841.3993     55.02466     100.3273         7     0.745     0.688 -69.42   0
       374    736.0391    481.7187 307.6152474  +6.4949715     530.0311     655.1984     738.0518     78.25117     156.1925     312.1057      1.338     3.80     841.3628     55.02466     74.39722         5     0.832     0.499 -53.45   0
       375    988.4824    479.7793 307.5104630  +6.5042075     580.1362     656.4922     307.9143     78.00316     155.8199     312.1057      1.504     3.38     837.4405     55.02466     95.60034         5     0.741     0.457 -69.69   0
       376    877.8189    477.7018 307.5564958  +6.5013701      3495.51     4895.792     5994.533     78.25117     156.0063     311.9194      1.500     2.76     839.5151     55.02466     521.3831        25     1.234     1.054  75.34   0
       377    530.4674    478.1722 307.7007461  +6.4895506     863.1559      1382.54     1790.139     77.87885     156.0684     312.0747      1.833     3.54     841.4041     55.02466      123.944         8     0.882     0.649  39.52   0
       378    225.2805    476.1367 307.8275631  +6.4801431     646.9869     820.8391     1009.074     78.37489     156.1925     312.1678      1.226     3.97     841.6757     55.02466     115.3171         6     0.899     0.502  55.80   0
       379    924.3676    471.1960 307.5373803  +6.5056109     1584.652     2026.645      1785.56     77.50473     156.0063     311.9505      1.302     3.12     838.7284     55.02466     243.6628        12     0.984     0.806  87.38   0
       380    885.0286    472.0003 307.5536925  +6.5039649     2369.197     3003.146      3459.39     77.62963     155.9442     311.9816      1.353     2.68     839.2085     55.02466      396.137        16     1.029     0.877 -81.73   0
       381    104.1452    471.1596 307.8780387  +6.4781215      842.954     1191.826     1131.977     78.12727     156.1925     312.1678      1.441     3.37     843.9683     55.02466     154.7161         8     0.889     0.676 -81.51   0
       382    709.0144    468.0596 307.6269303  +6.4997064     3134.645     4488.513     4434.681     77.62963     156.0684     311.9194      1.454     2.79     840.8604     55.02466     587.6762        22     1.183     0.941 -83.25   0
       383    735.6570    468.7945 307.6158400  +6.5002946     528.9084     861.4292     1114.905     77.75434     156.0063     311.8884      1.201     3.40     840.7857     55.02466     98.82898         5     0.748     0.447  74.62   0
       384     70.8271    466.9960 307.8920162  +6.4787183     2067.235     3039.951     3313.411     77.75434     155.9442     312.0126      1.596     3.67     844.1257     55.02466     299.4892        21     1.208     1.069 -88.39   0
       385    420.0138    466.4409 307.7470148  +6.4906886     1165.389     1659.686     1725.657     77.75434     155.9442     311.9194      1.466     4.89     840.8111     55.02466     201.8212        11     1.163     0.732  82.06   0
       386    379.9234    466.1536 307.7636748  +6.4894613     3983.245     5829.846     6201.629     78.12727     156.1925     312.1678      1.539     2.94     840.7572     55.02466     629.0212        24     1.169     1.037  80.13   0
       387    607.6506    462.7296 307.6692092  +6.4985129     10643.95      14875.1     15813.14     78.12727     156.0684     312.1989      1.459     2.68     840.7278     55.02466     1592.085        38     1.326     1.085 -87.28   0
       388    770.3526    459.3951 307.6017451  +6.5053359     18008.08     24421.47     25358.18     77.62964     155.9442     311.8573      1.437     2.57      840.322     55.02466     3113.959        45     1.322     1.130 -87.28   2
       389    774.6006    454.3844 307.6001489  +6.5075466     1505.862     2128.265     2323.148     77.87885     155.7577     311.9194      1.435     2.96     840.0923     55.02466     247.1078        13     0.972     0.837 -38.56   3
       390    290.1271    459.6267 307.8011887  +6.4891392     2817.663     4122.182     4102.543     77.87885     156.0684     312.0747      1.558     3.00     840.1628     55.02466     418.7216        20     1.194     0.975  76.56   0
       391    413.6144    459.2387 307.7499152  +6.4934472      695.971     834.2881     825.6682     78.00316     155.9442     311.9194      1.229     4.06     840.5416     55.02466     98.56531         7     0.984     0.478  83.96   0
       392    721.6667    457.8651 307.6220177  +6.5043387     432.0435     720.6058      1462.55     78.25117     156.1305     312.1989      2.141     4.72     840.3646     55.02466     68.81543         6     1.368     0.461  85.64   0
       393    373.2169    456.1717 307.7667965  +6.4933571     1663.476      2274.19     3055.234     77.87885      155.882     312.0747      1.484     3.91     840.3755     55.02466     239.9989        14     1.167     0.827  64.54   0
       394    799.1810    456.3939 307.5898722  +6.5075390     1356.646     2121.378     2042.914     77.87885     155.8199     311.9816      1.662     3.18     840.1841     55.02466     237.1186        10     0.928     0.839 -63.67   0
       395    955.4173    454.2548 307.5250515  +6.5136420     2338.955     3199.656     2680.819     77.75434     156.0684     311.9194      1.385     3.10     837.8447     55.02466     386.6559        18     1.211     0.811  84.87   0
       396    745.9570    450.4192 307.6121789  +6.5082256     2477.943     3692.863     4124.683     77.75434     156.0063     311.9505      1.594     2.92     839.9085     55.02466     431.9993        22     1.279     0.943  89.56   0
       397    107.7287    451.1104 307.8772278  +6.4865193     4488.156     6707.171     7155.011     78.25117     156.3785     312.1678      1.558     2.97     843.1573     55.02466     665.9751        26     1.287     1.010  82.30   0
       398   1009.5318    449.0771 307.5027483  +6.5175858     4237.172     6502.302     6577.667     78.37489     156.2545     312.1368      1.649     3.65      837.093     55.02466      609.541        28     1.348     1.111  43.76   0
       399    265.6167    448.0659 307.8117581  +6.4930882     1482.043     2074.715     2696.776     77.75434     156.0063     312.0437      1.548     3.07     840.2543     55.02466     227.5055        13     1.003     0.833 -59.38   0
       400    343.8050    445.9294 307.7793571  +6.4965977     3340.808     4861.463     4739.534     77.75434     155.7577     312.0437      1.513     3.01     839.9498     55.02466     493.8044        22     1.165     1.022  75.19   0
       401    699.6321    443.9095 307.6316383  +6.5093630     1853.876     2535.533     2386.329     78.37489     155.9442     312.1989      1.412     3.21      839.926     55.02466     300.0232        17     1.252     0.807  87.59   0
       402    973.5753    442.2384 307.5179121  +6.5192093     594.2826     899.8721     989.3065     77.87885     155.9442     311.9816      1.378     2.54     837.4741     55.02466     108.1863         5     0.692     0.475 -74.37   0
       403    403.3567    441.9812 307.7547568  +6.5002276     411.5545      586.877     492.7086     77.75434     156.0063     311.9505      1.670     4.57     839.8899     55.02466     68.14972         5     1.036     0.574  17.70   0
       404    231.3272    441.2360 307.8262295  +6.4947549      827.314     1078.172      1173.76     78.12727     156.1305     312.1678      1.450     3.33     840.7408     55.02466     131.2971         8     0.877     0.667  -4.94   0
       405    441.5431    437.7836 307.7390383  +6.5032423     548.1376     536.3772     223.3005     77.62964     156.0684     311.9194      1.177     4.30     839.7071     55.02466     103.8953         5     0.888     0.594  45.77   0
       406    541.3375    436.1313 307.6976459  +6.5072717     1093.844     1269.484     1071.559     78.25117     156.1305     312.2299      1.357     3.56     839.9556     55.02466     165.4847        10     0.917     0.868  39.06   0
       407    825.7213    433.7119 307.5796097  +6.5177908     1831.449     2388.998     2602.747     78.00316     156.3785      312.292      1.315     2.87     838.6793     55.02466     317.7688        14     1.027     0.827  71.54   0
       408    463.4076    434.4782 307.7300686  +6.5053406      1545.18     2121.625     2093.158     77.87885     155.6332     311.9505      1.421     3.37      839.498     55.02466      227.424        13     1.007     0.856 -38.56   0
       409    811.4228    432.9149 307.5855754  +6.5176418     2182.936     2983.407     3361.623     78.25117      155.882     312.0747      1.446     2.99     838.9307     55.02466     325.5091        17     1.060     0.922 -89.50   0
       410    708.8646    431.0719 307.6282348  +6.5149721     16291.27     22291.05     23699.82     78.25117     156.1305     312.1989      1.434     2.75     839.3101     55.02466     2690.741        40     1.305     1.070 -89.58   0
       411    629.9940    427.0713 307.6611279  +6.5139830     2795.602      3968.76     4404.337     77.75434     155.7577     312.0747      1.471     3.14     839.2698     55.02466     433.0276        22     1.197     1.023 -71.76   2
       412    624.7098    425.6408 307.6633707  +6.5143966     646.2198     900.8718     854.0851     78.25118     156.1305     312.1989      1.391     3.40     839.1992     55.02466     100.4548         5     0.742     0.450  16.29   3
       413    998.6573    427.5110 307.5079874  +6.5261268     566.3239     587.9756     578.5051     78.12727     156.0684      312.292      1.315     4.82     837.2687     55.02466     87.32605         6     0.982     0.670 -70.92   0
       414    605.2710    423.6589 307.6715112  +6.5145637      5533.41     7711.693      8769.03     78.37489     156.1305     312.1989      1.448     3.19     839.0531     55.02466     900.5685        19     1.203     0.893  66.51   3
       415    601.3408    421.3674 307.6732206  +6.5153780     15710.28     22511.41     24318.22     78.12727     156.1925     312.1368      1.568     2.74     838.9603     55.02466     2455.196        46     1.608     1.193  64.91   2
       416    610.8650    433.0533 307.6688719  +6.5108726     753.8941     1115.533     1489.626     78.25117     156.0684     312.1368      1.403     3.62     839.4223     55.02466     118.6033         6     0.763     0.565 -48.06   0
       417    934.1602    421.0027 307.5349950  +6.5266609     4254.791     5966.248     5813.248     77.37962      155.882     311.8884      1.432     2.79     837.3268     55.02466     707.1403        24     1.178     0.987  81.17   0
       418    373.2472    416.8495 307.7681090  +6.5095922     30328.16      44026.3     45795.79     78.25117     156.0063     312.1989      1.544     2.95     838.9249     55.02466     4294.212        57     1.436     1.187 -88.09   0
       419    889.5324    416.5598 307.5536806  +6.5270046     1665.828     2517.937     3136.773     78.12727     156.0684     312.2299      1.641     3.87      837.223     55.02466     297.0474        19     1.388     0.878 -79.62   2
       420    886.0773    412.8088 307.5552415  +6.5284379      843.051     1419.945     1926.687     77.87885     155.6332     312.0126      2.117     3.91     837.1257     55.02466     126.0573        10     1.110     0.681 -87.72   2
       421    410.2390    417.9535 307.7527079  +6.5103784     653.9026     764.4665     298.1112     78.12727     156.1305     312.0126      1.215     4.38     838.9971     55.02466     106.4407         8     1.038     0.639  55.49   0
       422    119.2959    416.3702 307.8735975  +6.5012509     2445.327     3714.486     3809.439     78.37489      155.882     312.1678      1.645     3.35      841.684     55.02466     363.6454        22     1.442     0.992 -84.21   0
       423    902.9875    411.3453 307.5482667  +6.5296070     5790.279     7695.252     8132.542     77.62963     156.0684     311.8884      1.396     2.62     837.0475     55.02466     1033.323        26     1.179     0.996  84.98   0
       424     52.3611    411.7758 307.9015518  +6.5008933     1517.529      2543.92     2916.594     77.87885     155.9442     311.9816      1.773     3.59     842.5064     55.02466     226.5795        17     1.220     0.988  70.16   0
       425    585.0082    411.7621 307.6803273  +6.5187964     627.9009     859.0428     731.2057     77.50473      155.882     311.8884      1.278     2.65     838.6591     55.02466     116.9276         7     0.738     0.644  -8.57   0
       426    230.7599    407.3749 307.8276079  +6.5087152     14479.27     21157.24     21761.45     77.87885     155.9442     311.9505      1.567     2.87     839.7621     55.02466     2228.058        42     1.429     1.136  88.53   0
       427    958.5271    408.8233 307.5252820  +6.5325028     575.3483     766.6877     500.2656     77.87885     155.9442     312.1057      1.407     1.98     836.8306     55.02466      128.584         5     0.695     0.472 -71.31   0
       428    725.8206    401.1837 307.6221959  +6.5278791     885.1369     1251.346     1862.993     78.00315     155.9442     312.0747      1.455     2.98     837.9625     55.02466     184.5795         8     0.916     0.619  57.38   0
       429    954.1323    399.8127 307.5274094  +6.5360762     1040.832      1459.96     1322.685     77.75434     155.9442     312.0747      1.368     3.73      836.397     55.02466     194.8212        10     0.989     0.856  88.22   0
       430    694.1375    400.6618 307.6353732  +6.5270342     605.2122     930.3699     1075.253     78.25117     156.1305     312.1989      1.361     2.79     838.2462     55.02466     146.4833         5     0.817     0.446 -51.50   0
       431     66.2368    401.1180 307.8961493  +6.5057607     826.6531     1383.193     1415.999     78.25117     156.1305     312.1368      1.678     3.68     842.2073     55.02466     140.2612         9     1.034     0.660  16.46   0
       432   1003.3411    400.1908 307.5069569  +6.5375626      454.799     549.9598     435.5864     77.62963     156.0063     311.8884      0.938     3.39     836.0022     55.02466     100.3585         5     0.748     0.444  74.04   0
       433    343.6238    396.8413 307.7810870  +6.5168575     1403.543     2074.887     1653.782     77.87885     155.9442     311.9505      1.539     3.35     837.7132     55.02466     198.1229        13     1.064     0.800 -80.33   0
       434    176.2605    396.9406 307.8505951  +6.5111895     882.7712     1378.085     1304.972     78.25117     156.1305     312.1989      1.563     5.10     840.1907     55.02466     119.1428        10     1.154     0.638  70.20   0
       435    131.0416    395.9035 307.8694107  +6.5100958     5387.052     7797.775     8334.018     78.25117     156.0684      312.323      1.509     3.01     841.0264     55.02466     787.6636        30     1.294     1.078 -89.12   0
       436    428.6765    394.8969 307.7458267  +6.5205162     739.7402     979.6096     984.9904     77.87885     156.3165     312.2299      1.382     3.75     837.3882     55.02466     139.0604         9     1.090     0.619  85.89   0
       437    235.9191    394.8823 307.8258867  +6.5140462     1349.802     2101.004     2739.285     78.25117     156.3785     312.2609      1.700     3.66     839.1843     55.02466     242.9069        13     1.164     0.808 -75.11   0
       438    623.9995    394.6985 307.6647059  +6.5271475      514.577     684.2572     1217.764     77.75434     155.7577     311.7952      1.257     4.62     837.8039     55.02466     84.75958         5     1.057     0.573  75.76   0
       439    153.1830    391.6942 307.8603570  +6.5125788     2666.162     4286.929     4574.488     78.12727     155.9442     312.0126      1.680     3.62     840.5276     55.02466     380.2092        23     1.334     0.964 -83.72   0
       440    817.3099    392.3850 307.5844900  +6.5345718     930.9738     1074.282     946.6904     78.00316     155.9442     312.0126      1.354     2.93     837.3677     55.02466     161.0262         9     0.948     0.642  87.82   0
       441    548.5764    390.7191 307.6961671  +6.5262630     1050.022     1309.504      1383.43     77.87885     155.8199     312.0747      1.317     2.78      837.368     55.02466     162.1013        10     0.853     0.784 -39.94   0
       442    964.7422    386.5435 307.5234469  +6.5419088     913.5067     1448.989     1509.743     78.37489     156.1925     312.1989      1.762     6.41     835.5825     55.02466     177.2892        11     1.695     0.682 -63.58   0
       443    376.5234    386.6773 307.7677651  +6.5221587     2277.355     3356.371     3304.216     78.49842     156.3785     312.2299      1.601     3.23     836.9294     55.02466     306.3104        19     1.183     0.954  77.06   0
       444    264.9832    386.9316 307.8140836  +6.5183058     912.5967     1195.687     972.6396     77.75434     156.0684     312.0747      1.350     3.51     838.3729     55.02466     174.6246        10     1.033     0.718  85.38   0
       445    310.2856    384.8750 307.7953372  +6.5206777     701.8794      1128.35     459.3222     78.37489     156.4404     312.2299      1.580     4.50     837.5533     55.02466     116.1141         7     0.886     0.649 -38.43   0
       446    583.9656    383.6776 307.6817048  +6.5303562     474.3098     656.6187     132.1693     78.12727     156.1925     312.1368      1.453     4.66     837.0446     55.02466     84.05017         5     1.053     0.585 -70.31   0
       447     26.7035    380.9580 307.9132498  +6.5127514     3367.911     5378.707     5598.853     78.25117     156.0684      312.323      1.727     3.49     842.5263     55.02466     455.0042        29     1.598     1.046 -71.09   0
       448    430.3794    380.2417 307.7456130  +6.5266238     7593.278     10958.44     11372.16     77.87885     155.9442     312.0126      1.546     2.98     836.3432     55.02466     1098.522        35     1.335     1.115 -79.38   0
       449    601.8359    381.2277 307.6743646  +6.5319665     594.2833     686.8575     787.0264     77.87885      155.882     311.9816      1.490     3.51     836.9969     55.02466     96.37762         5     1.039     0.343  42.71   0
       450    771.0004    377.6370 307.6042204  +6.5391121     13959.76     19378.69     20702.91     77.37962     155.9442     311.9816      1.441     2.69     837.1066     55.02466     2401.698        39     1.280     1.096  89.67   0
       451    762.8464    379.1634 307.6075561  +6.5382091     2187.289     3050.712     3260.423     78.00315     156.1305     312.0747      1.542     2.93     837.1396     55.02466     359.5917        17     1.058     0.985  67.93   0
       452    190.5347    379.5493 307.8452539  +6.5188497     571.2291     690.0799     990.5769     78.12727     156.0684     312.1678      1.470     4.17     839.5626     55.02466     98.02216         5     1.002     0.495  -3.53   0
       453    334.5030    376.0394 307.7855766  +6.5251391     1110.014     1608.563     1868.384     78.25117     156.0063      312.354      1.748     4.11     836.6396     55.02466     152.3991        14     1.114     0.941 -64.58   0
       454   1014.9390    372.8577 307.5030547  +6.5492344     3979.585     5367.638     5033.585     78.37489     156.0684     312.1989      1.379     2.77     833.6815     55.02466     653.5116        22     1.234     0.894 -83.26   0
       455    945.7734    369.4315 307.5318995  +6.5483404     576.7541     484.5706     603.5363     77.75434      155.882     312.0126      1.208     4.01      835.043     55.02466     99.44373         7     0.891     0.636  72.82   0
       456    179.0952    368.6149 307.8503743  +6.5229789     893.5358     1350.618     1424.154     78.00315      155.882     311.9816      1.636     4.39     839.6513     55.02466     140.8096        13     1.209     0.900  74.77   0
       457    478.4974    363.7602 307.7261820  +6.5350428     3339.072     4716.768     4242.683     78.25118     156.0063      312.385      1.470     2.75     835.1985     55.02466     434.3909        23     1.258     0.932 -77.16   0
       458    450.7086    364.5378 307.7376981  +6.5337894     2416.037     3410.719     3371.343     78.25118     156.2545     312.2609      1.518     3.08     835.2851     55.02466     354.2537        18     1.130     0.928 -74.18   0
       459    385.2722    366.3217 307.7648173  +6.5308562     517.6905     771.4623     795.1992     78.49842     156.3785     312.1678      1.342     3.83     835.5001     55.02466      88.2406         5     0.901     0.468  45.97   0
       460    906.9570    363.6598 307.5482165  +6.5494270     866.0271      1179.38     857.5536     78.25117     156.1305     312.2609      1.308     3.03     835.6124     55.02466     134.2576         9     0.875     0.690 -65.71   0
       461    836.3772    360.5919 307.5776367  +6.5483353     35925.38     51533.06     54339.89     77.87885     155.9442     311.9816      1.547     2.90     836.3569     55.02466     5398.825        60     1.504     1.132 -88.71   0
       462    981.8068    360.6513 307.5172261  +6.5531683     596.6624     942.9418     835.6545     77.75434     155.9442     311.7952      1.474     3.62     833.6418     55.02466     93.63947         5     0.972     0.387 -85.12   0
       463    328.7900    356.1923 307.7886186  +6.5331409     869.7334     1264.347     1240.064     77.75434     155.9442     312.0747      1.474     3.87     835.7094     55.02466     144.5019         9     0.920     0.720  88.86   0
       464     53.8700    356.7297 307.9027860  +6.5236691     720.8014     944.7356     1210.782     78.25117     156.2545     312.1368      1.354     4.34     841.7349     55.02466      103.444         7     0.892     0.602 -25.48   0
       465    608.1910    352.8441 307.6726794  +6.5438977     2819.643     4178.154     4524.131     77.75434     156.0063     311.9194      1.593     2.92     835.7301     55.02466     432.0001        23     1.300     0.948  81.15   0
       466     16.4765    353.0785 307.9184402  +6.5239164      1171.64     1865.568     1551.949     78.49842     156.3785     312.2609      1.567     4.41     842.6514     55.02466     187.7682        13     1.335     0.725  84.61   0
       467    692.8625    346.5475 307.6377208  +6.5493329     86422.83     120437.8     125206.3     78.25117     156.0684     312.1368      1.484     2.79     836.0023     55.02466     13972.67        80     1.415     1.230  87.44   0
       468    850.9633    347.7538 307.5720086  +6.5541232     1343.685     1923.556     2177.246     78.00315     156.1305     312.0747      1.544     2.82      835.847     55.02466     225.5197        13     1.073     0.724 -88.71   0
       469     72.0925    345.8368 307.8955859  +6.5287800     1400.058     1941.595     2167.501     78.37489     156.0063     312.2299      1.393     3.45     841.0705     55.02466     205.8422        13     1.104     0.773  68.90   0
       470    555.3559    343.1447 307.6949517  +6.5461314     2813.714     3954.603     4579.668     78.25117     156.1305     312.1989      1.479     3.03     834.1094     55.02466     434.9314        19     1.204     0.880 -88.94   0
       471    934.1307    343.2236 307.5376140  +6.5587719      876.318      985.003     1360.266     77.87885     156.0063     312.1368      1.268     4.00     834.1429     55.02466     137.7343         9     1.035     0.767 -81.95   0
       472    383.2418    343.4468 307.7664315  +6.5402319       569.84     740.3576     621.0414     78.25118     156.1305     312.0747      1.588     5.10     834.3569     55.02466     84.67236         6     1.183     0.622  47.29   0
       473     92.5622    341.9595 307.8872151  +6.5310702     6539.566      9282.62     9786.285     78.00315     156.1305     312.0437      1.487     2.83     840.5406     55.02466     907.9893        29     1.282     1.048 -79.55   0
       474     58.8066    344.3824 307.9011532  +6.5289328     444.4159      542.151     456.4845     77.87885      155.882     312.0126      1.202     4.26     841.3135     55.02466     92.40082         5     0.905     0.571  48.31   0
       475    538.5636    339.4286 307.7020517  +6.5471026     7700.369     11170.19     11610.32     77.87885      155.882     311.9816      1.580     2.90     833.7405     55.02466     1131.248        33     1.307     1.093  89.85   0
       476    401.5141    334.5667 307.7591411  +6.5445116     27688.99     39749.73     41521.19     78.25118     156.0063     312.1678      1.578     2.90     834.0036     55.02466     3821.337        55     1.421     1.218 -89.97   0
       477    267.5875    336.9176 307.8146893  +6.5390414     2777.029     4000.976     3827.472     77.87885     155.8199     312.0126      1.477     3.02     836.6872     55.02466     375.4913        18     1.171     0.876  80.80   0
       478    580.5396    333.6268 307.6848113  +6.5509050      657.415     911.8118     1091.781     77.87885     156.1925     312.0437      1.264     3.62     833.9739     55.02466     124.9485         6     0.928     0.405  69.68   0
       479    509.1856    333.1601 307.7144654  +6.5487054     1466.566     1685.424      1835.91     77.75434     155.9442     311.9194      1.250     2.93      833.507     55.02466      239.696        13     1.039     0.772  79.03   0
       480    381.4664    332.5828 307.7675350  +6.5446575     1150.275     1847.341     2620.468     77.75434     156.0684     312.0437      2.162     4.50     834.0941     55.02466     160.5473        16     1.196     1.082 -89.91   0
       481    480.6790    329.8708 307.7264169  +6.5491072      1259.09      1835.69     2108.437     78.49842     156.3785     312.1368      1.640     3.59     833.4466     55.02466     192.3329        16     1.152     0.954 -76.19   0
       482    796.1044    327.1418 307.5954878  +6.5607990     977.0165     1314.032     1410.649     78.12727     156.1305      312.292      1.468     3.77     835.2439     55.02466      142.316        10     0.937     0.732 -82.63   0
       483    490.5438    325.0210 307.7224826  +6.5514404     9188.842     13488.95     14334.82     77.87885     156.1305     311.9816      1.550     2.96     833.1885     55.02466     1287.642        37     1.380     1.093 -82.51   0
       484    378.6217    326.9148 307.7689076  +6.5469020     738.3082     1173.613     1447.852     78.12727     155.8199     312.1057      1.582     3.98     833.9447     55.02466     132.5562         7     0.764     0.646  53.77   0
       485    759.7191    323.6318 307.6107196  +6.5610311     3302.918     4712.126     4999.564     78.12727     156.1305     312.1368      1.535     2.81      835.124     55.02466     496.6144        20     1.124     0.926 -84.11   0
       486    914.8456    323.2551 307.5462943  +6.5663720     1030.325     1545.522     1387.014     78.25117     156.1305     312.1678      1.646     3.99     833.4311     55.02466     171.3108        11     1.153     0.643  50.97   0
       487    707.6959    323.4959 307.6323338  +6.5593464     764.7855     987.9093     949.2095     78.25118     156.7498     312.0126      1.305     3.45     834.9507     55.02466     124.4056         5     0.741     0.467  18.03   0
       488    317.0408    321.5962 307.7946653  +6.5470290     1103.528     1624.864     1555.184     77.50472      155.882     311.9505      1.530     3.09     835.0462     55.02466     178.8458        10     0.900     0.736 -88.06   0
       489    204.0947    322.2495 307.8415563  +6.5429616     414.3262     526.1772     683.8952     78.12727     156.0063      312.323      1.073     3.92     837.7831     55.02466     95.15088         5     0.873     0.503  54.62   0
       490     75.2603    318.5823 307.8951915  +6.5401384     473.4182      554.929     580.7986     77.87885     156.0684     311.9505      1.090     3.46     840.4591     55.02466     81.29651         5     0.782     0.442 -19.86   0
       491    152.7419    315.1669 307.8631250  +6.5441575     1063.881     1500.493     1484.682     78.12727     156.1925     312.1057      1.495     2.92     838.8093     55.02466     181.1638        10     0.948     0.721 -48.52   0
       492    252.4038    315.2248 307.8217279  +6.5474866      616.855     639.5192     577.9021     77.75434     155.8199     312.0126      1.239     3.19     836.5071     55.02466     90.53259         5     0.727     0.458  71.77   0
       493    599.4263    313.7309 307.6776353  +6.5597520      511.788     711.1272     585.1873     77.87885     156.0063     312.1057      1.373     3.46     832.8362     55.02466     82.09912         5     0.782     0.443 -69.97   0
       494    380.5092    309.2122 307.7687203  +6.5542738     7888.737     11728.03     12227.17     78.00316      155.882     311.9816      1.588     2.93     833.4343     55.02466     1116.537        36     1.364     1.132  87.96   0
       495    236.3585    309.8126 307.8285751  +6.5491814     2200.699      3158.58     2994.252     77.62963     155.9442     311.9194      1.504     3.37     836.8126     55.02466     305.1735        18     1.168     0.960 -82.79   0
       496    734.3245    308.8642 307.6217641  +6.5662784     985.8635     1164.729      1090.09     78.37489     156.1305     312.1368      1.317     3.14     834.5046     55.02466     169.2155        10     1.015     0.650  28.93   0
       497    748.3465    305.1010 307.6160658  +6.5683012     58746.05     81833.82     85299.67     78.12727     156.1305      312.416      1.463     2.72     834.3651     55.02466     9450.421        69     1.396     1.194  84.74   0
       498    419.8778    304.2950 307.7525334  +6.5576257     2493.539      3637.73     3864.982     78.00316     156.3165     312.1989      1.531     2.84     832.8936     55.02466      358.212        20     1.072     1.047 -58.85   0
       499    983.1605    302.1285 307.5186244  +6.5773753     1917.443     2523.721     2615.112     78.12727     156.1305     312.2299      1.371     2.95      830.629     55.02466     375.0997        14     1.094     0.782 -88.78   0
       500    923.9465    301.4344 307.5432453  +6.5756849      2514.14     3364.514     3650.613     78.12727     156.1305     312.1368      1.394     2.71     831.9994     55.02466       466.27        19     1.122     0.992 -83.79   0
       501    566.1013    302.0784 307.6918699  +6.5634459      1452.15     1816.407      1631.92     77.87885     156.3785     312.1989      1.329     3.69     831.8669     55.02466     203.2106        11     0.963     0.849 -26.40   0
       502    456.9753    300.5821 307.7372490  +6.5604037     1217.704     1981.695     1980.636     78.00315     156.0063     312.1057      1.865     4.36     832.4108     55.02466      151.744        14     1.191     0.893  89.33   0
       503    406.5624    300.1060 307.7582054  +6.5589081     2196.036     3473.056     3824.595     78.37489     156.0063     312.2609      1.672     3.46     832.9053     55.02466     310.0813        24     1.221     1.148  53.11   0
       504    286.2688    299.4337 307.8081945  +6.5551444     820.6257     995.9438     1184.043     78.12727     156.1305     312.2299      1.375     5.65      835.189     55.02466     118.0982         9     1.184     0.850  78.75   0
       505    827.6279    294.6161 307.5834847  +6.5752815     1310.307     1993.653     2440.588     77.87885      155.882     312.0747      1.645     3.39      833.511     55.02466     175.2828        15     1.154     0.807  61.63   0
       506    456.8735    294.9552 307.7374808  +6.5627233     937.0321     1213.633      1436.28     78.12727     156.1925     312.1989      1.392     2.82     832.1736     55.02466     159.3157         7     0.791     0.683  26.09   0
       507    959.8683    292.7651 307.5286138  +6.5804636     641.1658     1057.032     1256.231     78.12727     156.1925     312.2609      1.768     4.85     830.7245     55.02466     101.6245         7     1.111     0.599  84.92   0
       508    437.0666    291.6974 307.7458179  +6.5634036     1253.144     1975.833     1832.648     78.25117     156.1925     312.2299      1.530     4.11        832.3     55.02466     179.2886        14     1.176     0.827 -87.12   0
       509    183.1239    291.3328 307.8513106  +6.5550197     2598.593     3763.541     3667.322     78.37489     156.2545     312.1368      1.546     3.21     837.4198     55.02466     400.7682        22     1.290     0.967 -83.55   0
       510    746.7388    289.6171 307.6172536  +6.5746400     6497.926     9032.107     9515.847     77.75434     156.0684     311.9816      1.463     2.85     833.7659     55.02466     1032.045        29     1.280     1.004  78.17   0
       511    763.1072    287.6785 307.6105193  +6.5759880     2742.053     3991.029     4110.667     78.00316     156.3165     312.1989      1.518     3.14     833.6805     55.02466     448.4711        20     1.204     0.971 -81.37   0
       512    337.6522    288.8001 307.7872100  +6.5612612     663.9426     890.0601     952.2643     77.50473     155.6332     311.7019      1.399     3.46     833.5875     55.02466     101.4458         5     0.762     0.454  76.27   0
       513    218.6893    289.2954 307.8366068  +6.5570574     713.2592     962.1208     1203.982     78.25118     156.5023     312.2299      1.281     2.61     836.9035     55.02466     151.3984         5     0.728     0.442 -11.28   0
       514     79.2639    288.5929 307.8945423  +6.5526539     1151.081     1508.762     1459.502     77.75434     155.8199     312.0126      1.522     3.64     839.8557     55.02466     176.2124        14     1.174     0.800  35.30   0
       515    352.9252    282.1254 307.7810910  +6.5645300     1774.234     3428.097     3827.934     78.49842     156.3785     312.2609      2.038     5.28     833.1054     55.02466      222.861        23     1.579     1.030 -15.70   0
       516     66.2492    282.6134 307.9001502  +6.5546841     1531.853     2340.541     1903.164     77.62964     156.0684     311.8884      1.627     3.52     839.7579     55.02466     213.6427        18     1.137     1.016 -31.12   0
       517   1001.4582    278.5794 307.5118123  +6.5877085     6629.872     9249.516        10041     77.87885     156.0063     311.9816      1.492     2.73     829.3965     55.02466     1083.473        34     1.367     1.021  80.85   0
       518    641.0031    279.2942 307.6615227  +6.5753622     570.3575     884.2234      1036.16     78.00315     155.8199     311.8884      1.775     4.29     831.8585     55.02466     72.84332         6     0.913     0.575 -89.90   0
       519    479.4055    278.1888 307.7286860  +6.5704013      2226.09     3179.932     2862.565     77.87885      155.882     312.0747      1.523     3.03     831.2512     55.02466     367.4175        18     1.115     0.942  86.47   0
       520    242.0289    273.8668 307.8274331  +6.5642120     6288.484     9134.905      9854.03     78.00316     156.1305     312.1368      1.522     2.96     836.0656     55.02466     940.7269        32     1.316     1.072  89.22   0
       521    806.2701    272.3945 307.5931025  +6.5837417     610.7141     707.3735     949.3094     77.75434     155.7577     312.0126      1.274     3.40      832.874     55.02466     86.05945         5     0.747     0.448  19.18   0
       522    933.4269    268.2908 307.5404181  +6.5896851     491.5715     754.5958     627.3032      78.3749      155.882     312.0437      1.682     3.50     830.5912     55.02466     89.74554         5     0.795     0.446  70.99   0
       523    761.3234    267.1830 307.6119485  +6.5843900     844.9612     1147.471     1017.063     77.75434      155.882     312.0437      1.434     3.32     832.7255     55.02466     141.6835         8     0.915     0.629  67.59   0
       524    218.6901    266.2848 307.8373833  +6.5665571     749.3416     977.3391     470.0477     78.00316     156.4404      312.292      1.561     4.90     836.5331     55.02466     111.0038         8     1.088     0.681  83.35   0
       525    376.3747    264.6541 307.7719395  +6.5725306     1711.911     2590.118     2826.241     77.87885     156.1925     312.0126      1.617     3.80     832.4903     55.02466     236.4434        18     1.274     0.881  73.00   0
       526    963.0987    263.5479 307.5282510  +6.5926340     1276.774     1665.541     1710.844     78.12727     156.1305      312.385      1.345     2.90     829.8738     55.02466     198.0116        10     0.957     0.654  60.77   0
       527    182.7989    262.0629 307.8524341  +6.5670925     497.4173      825.251      696.127     77.62963     155.9442     311.8884      1.581     4.29     836.9835     55.02466     98.64923         5     0.767     0.684 -86.63   0
       528    298.6922    260.4477 307.8043492  +6.5716571     1294.984     1537.734     1406.678     78.12727     156.0684      312.292      1.276     3.09     834.2355     55.02466     195.9703        12     0.979     0.793  35.23   0
       529    145.9287    260.2984 307.8678085  +6.5665799      1921.64     2776.877     2675.994     78.12727     156.3165     312.1368      1.511     3.22     837.6794     55.02466     324.2814        17     1.159     1.010  32.05   0
       530    555.5731    256.2203 307.6977860  +6.5820255     2393.684     3447.583     3390.599     77.75434      155.882     312.0747      1.530     3.19     830.3559     55.02466     327.4877        19     1.217     0.915 -81.06   0
       531    899.0875    255.0460 307.5551272  +6.5940064      1877.63     2788.316     2643.019     78.25117     156.0063     312.1989      1.528     3.83     830.8727     55.02466     327.3075        17     1.327     0.845  60.43   0
       532    719.2836    253.7555 307.6298631  +6.5885269     5588.578     7836.901     8191.688     78.25118     156.1305     312.1678      1.477     2.79     832.0618     55.02466     836.0501        28     1.249     1.023 -76.08   0
       533    660.0807    253.5890 307.6544619  +6.5866136     2362.262      3334.91     3588.639     77.87885      155.882     312.0126      1.473     3.10     831.6152     55.02466     390.4634        17     1.160     0.889 -89.61   0
       534    957.4592    253.1094 307.5309435  +6.5967553     830.3891     1176.327     589.4122     78.12727     156.1305      312.292      1.359     3.37     829.7391     55.02466      151.712         8     0.954     0.612  45.67   0
       535    375.0567    247.7986 307.7730551  +6.5794450      857.123      966.037     741.3019     77.62963     155.8199     311.9194      1.265     3.18     832.1845     55.02466     145.4457         8     0.817     0.733 -26.36   0
       536    915.1926    245.7614 307.5487482  +6.5983776     1164.763     1656.775     1671.417     77.50473      155.882     311.8884      1.389     2.69     830.3482     55.02466     232.2043        12     1.018     0.727  69.67   0
       537    218.8335    238.9579 307.8382463  +6.5778435     2451.248     3638.986     3405.657     78.00316     156.1305     311.9816      1.500     3.19     836.0983     55.02466     415.8864        22     1.188     1.019 -83.81   0
       538    861.3246    238.1212 307.5713822  +6.5997321     1917.946     2714.907     3089.237     78.49842     156.3785     312.2609      1.451     2.88     830.9576     55.02466     291.1808        15     1.058     0.830  84.35   0
       539    751.7828    237.3974 307.6169120  +6.5963680      1839.13     2534.463     3006.373     77.87885     155.6955     311.9816      1.406     2.50     831.3654     55.02466     331.2485        12     0.936     0.755  68.71   0
       540    452.6799    228.9416 307.7414462  +6.5898361     24151.76     35540.28     37089.54     78.25117     156.1305     312.1368      1.550     2.93     830.1345     55.02466     3399.216        51     1.409     1.206 -88.08   0
       541    240.5075    232.9027 307.8294476  +6.5810724      630.248     775.0664     1027.001     78.25117     156.6261     312.1057      1.285     3.73     835.4949     55.02466     99.90741         6     0.803     0.498 -85.59   0
       542    778.7114    228.0820 307.6060382  +6.6011147     14445.93     20488.33     22173.41     78.00316     156.3165     312.2609      1.510     2.70     830.9418     55.02466     2193.396        51     1.422     1.327 -33.68   0
       543    313.5945    230.2653 307.7991771  +6.5846185     641.9969      1064.03     626.4846     77.75434      155.882     311.9505      1.485     3.54     833.4552     55.02466     106.6155         5     0.781     0.463 -74.86   0
       544    717.0813    223.8346 307.6317832  +6.6008062     806.6505     1230.131     1106.711     78.12727     156.1305     312.1678      1.456     5.11     830.8074     55.02466     112.2458        10     1.103     0.668  81.85   0
       545    458.3871    223.4379 307.7392608  +6.5922998      1685.99     2436.727     2300.199     77.87885     155.9442     311.8884      1.585     3.47     829.8256     55.02466     237.3134        16     1.150     0.911  79.41   0
       546    140.9217    222.0650 307.8711800  +6.5821955     2400.147     3494.596     3558.396     78.49842     156.1925     312.1368      1.475     2.91     837.1119     55.02466     407.4774        19     1.106     0.971  85.37   0
       547    115.5160    220.8839 307.8817730  +6.5818276     1264.185     1669.262     2198.959     78.00315     156.2545     312.2609      1.379     3.11      837.556     55.02466     210.3716        12     1.040     0.800 -81.66   0
       548    770.9345    220.4042 307.6095267  +6.6040244     697.4125     1277.079     2085.659     77.50472      155.882     311.9194      2.409     6.03     830.6656     55.02466     100.0066         8     1.493     0.686 -24.28   0
       549    167.3011    220.1609 307.8602867  +6.5838696     728.2771     1146.617      753.271     78.25117     156.0063      312.385      1.719     4.13     836.5901     55.02466     128.6577         7     1.192     0.500  66.11   0
       550    915.1226    218.3219 307.5496973  +6.6097039     1603.453     2312.704     2492.924     78.49842     156.3785      312.292      1.531     3.47     829.4298     55.02466     249.8546        13     1.011     0.888 -87.58   0
       551    576.7605    214.6360 307.6903838  +6.5999038     4836.586     6886.437     7103.914     78.00316     156.0063     312.0126      1.476     2.87     829.7702     55.02466     752.5402        24     1.200     0.994  76.77   0
       552    539.3413    214.7410 307.7059247  +6.5986060     2260.218     3118.349     3051.503     78.25118     156.1305     312.1989      1.485     3.01     829.3646     55.02466     368.8825        20     1.222     0.938 -71.56   0
       553    297.2579    215.2702 307.8064691  +6.5902600     1245.809      1777.61     1379.835     78.37489     156.1305     312.1368      1.460     2.65     833.9248     55.02466     212.2838        11     0.912     0.754  45.19   0
       554    381.2026    213.7448 307.7716500  +6.5937103     1717.208     2543.017     2548.336     77.62963      155.882     311.8573      1.616     3.67     831.4321     55.02466     231.5861        17     1.161     0.953  88.97   0
       555     14.1472    214.7837 307.9240855  +6.5809305     520.6089     773.9125     1204.381     77.75434     156.1925     311.8884      2.028     4.09     840.2202     55.02466     88.77216         5     0.738     0.703  34.23   0
       556    937.6183    211.8679 307.5405683  +6.6131197     2881.406     3955.298     3891.435     77.87885     156.0684     312.1057      1.364     2.66     828.7808     55.02466     450.1191        18     1.094     0.897 -78.76   0
       557    883.7453    211.2931 307.5629680  +6.6115575     12619.15     17355.22     17651.33     78.12727     156.0684      312.354      1.448     2.64      829.527     55.02466     2089.996        40     1.291     1.127  83.59   0
       558    311.2684    211.6031 307.8007729  +6.5922449     860.3843     1284.097     1000.258     77.62964     155.7577     311.9505      1.792     4.75     833.4561     55.02466     113.8948         8     1.110     0.577  75.68   0
       559    202.9429    211.3134 307.8457804  +6.5887216      861.028     1245.984     1219.188     78.25117     156.1305      312.292      1.507     3.69     835.8784     55.02466     152.9486         9     1.005     0.607  56.79   0
       560    970.3696    209.1336 307.5270540  +6.6153422     10705.69     14662.62     14943.33     78.00315     156.1305     312.1057      1.416     2.62     828.1404     55.02466     1874.305        38     1.269     1.088  86.77   0
       561    681.7736    208.9952 307.6469493  +6.6057507     3189.839     4523.753     4780.561     77.75434     155.9442     312.0126      1.459     3.03     830.4986     55.02466     473.9318        22     1.191     0.967  84.85   0
       562    558.8254    211.0969 307.6979534  +6.6007637     867.9435       1247.1     1050.129     78.37489      155.882     312.0747      1.475     3.92     829.5059     55.02466     111.8167         8     0.818     0.687  40.12   0
       563      9.8927    207.7880 307.9260894  +6.5836751     27038.53     39847.93     41883.79     78.00315      155.882     311.9816      1.553     3.01     840.3578     55.02466     3859.183        54     1.439     1.182  87.38   0
       564    256.0167    208.7282 307.8238212  +6.5915742     1291.031      1851.29     1598.533     77.75434     156.0684     312.0747      1.503     4.36     834.9008     55.02466     175.2167        10     0.958     0.828 -80.34   0
       565    490.2632    203.7948 307.7266807  +6.6014790     2014.379     2970.961      3192.29     77.62963     155.9442     311.9505      1.462     3.31     828.8818     55.02466     305.1508        17     1.139     0.910 -81.75   0
       566    822.2354    200.4929 307.5888835  +6.6139606     2332.687     3152.819     3247.713     78.37489     156.0063     312.2299      1.440     2.47     829.7077     55.02466     406.2753        18     1.129     0.938  42.98   0
       567    874.6752    199.6514 307.5671265  +6.6160608     2094.348     3123.098     3203.197     78.25118     156.1925     312.1678      1.513     3.29     829.1006     55.02466     329.1177        16     1.194     0.824  85.07   0
       568    733.9540    197.2540 307.6256668  +6.6123447      43888.1     60940.32     63484.83     78.25117     156.1305     312.1989      1.464     2.75     830.2021     55.02466     7410.068        56     1.369     1.144  87.88   0
       569    502.4226    199.7609 307.7217654  +6.6035523     2859.137     4156.374     4270.873     77.87885      155.882     311.9816      1.502     2.98     828.8906     55.02466     392.2616        20     1.194     0.916  89.51   0
       570    337.0300    196.5778 307.7905783  +6.5993137     6147.396      12275.4     13642.59     77.62963     155.9442     312.0126      2.126     5.72     832.5066     55.02466      739.524        47     2.037     1.131 -80.13   0
       571    791.5308    199.8301 307.6016613  +6.6132074     441.2816     343.6017     788.3231     78.12727     156.1305     312.1057      0.997     5.06     829.9803     55.02466     84.21771         6     1.127     0.643   2.46   0
       572    967.6375    196.0622 307.5286271  +6.6206476     3192.612     4224.898     4282.815     78.25117     156.1925     312.1678      1.397     2.60     827.5892     55.02466     492.8625        20     1.097     0.921  83.28   0
       573    901.8276    194.3738 307.5560235  +6.6191469     8334.097     11423.36      11905.4     77.75434     155.9442     312.0126      1.413     2.61     828.4063     55.02466      1478.48        30     1.267     0.984 -89.84   0
       574   1006.0511    194.6286 307.5127166  +6.6225216      1873.38     2523.618     2232.661     77.87885     156.2545     312.0747      1.399     3.07     827.0359     55.02466     311.8252        17     1.175     0.828  87.31   0
       575    445.3425    193.3189 307.7456942  +6.6042966     5379.865      7592.85     7859.644     78.37489     156.1305     312.1678      1.538     2.85     829.3265     55.02466     837.5327        25     1.237     0.992  72.44   0
       576    219.8603    189.7211 307.8394821  +6.5982049     872.8357     1166.682     1455.324     78.37489     156.1305     312.1368      1.344     4.96     835.3653     55.02466     138.6362         9     1.156     0.662 -89.90   0
       577    102.6834    184.6954 307.8883266  +6.5963353     5027.193     7315.468     7621.986     78.12727     156.5023     312.2609      1.544     3.11     837.1113     55.02466     705.2994        27     1.341     1.035  81.87   0
       578    273.0440    181.3139 307.8176733  +6.6034645     36081.02     52784.82     55505.86     78.25117     156.0063     312.1678      1.563     2.98     834.4445     55.02466     5459.398        59     1.447     1.216 -87.66   0
       579    922.1097    183.5823 307.5479595  +6.6242797      919.325     1434.037     2265.597     78.00316      155.882     312.0747      1.552     3.15     827.6127     55.02466     165.7872         7     0.847     0.585  82.29   0
       580    248.3654    182.4063 307.8278880  +6.6021836     7042.992     10228.18     10598.89     77.50473      155.882     311.9505      1.570     3.07     834.8531     55.02466      977.406        29     1.267     1.085  73.90   0
       581    598.9443    182.6727 307.6822435  +6.6138434     811.4548     1378.129     1760.146     78.12727     156.0063     312.1368      1.742     5.01       829.52     55.02466     113.4559         9     1.148     0.618  43.65   0
       582    702.2063    180.8133 307.6394081  +6.6180697      1012.57     1236.799     1335.578     77.87885     155.9442     312.0437      1.266     2.60     829.8906     55.02466     151.3751         8     0.772     0.670  59.86   0
       583    397.0849    176.8434 307.7662962  +6.6094782     53053.42     77679.59     81175.61     78.25117     156.0063     312.1368      1.543     2.96     830.1199     55.02466     7523.585        68     1.442     1.248 -88.35   0
       584    153.0656    177.9798 307.8676250  +6.6008043     4203.489     6250.386      6452.91     77.87885     156.1305     312.0437      1.537     3.05     835.6648     55.02466      648.786        28     1.329     1.013  88.81   0
       585    414.3967    177.3042 307.7590891  +6.6098693     1502.957     2236.725     2121.971     78.00316     155.8199     311.8573      1.682     3.74     829.4724     55.02466     211.5077        13     1.011     0.898  47.83   0
       586    301.1551    174.5251 307.8062248  +6.6072123     19644.79     28832.59     30210.31     78.12727     156.1925     312.1989      1.574     2.96     833.7369     55.02466     2978.433        48     1.423     1.182 -85.01   2
       587    308.5798    174.1380 307.8031535  +6.6076216     2226.118     3827.482     4710.433     77.87885     156.1305     312.0747      2.131     4.90     833.4337     55.02466     325.9113        29     1.786     1.085 -78.45   2
       588    736.3638    173.1115 307.6254767  +6.6223927     36108.88     50607.86     53115.24     78.25117     156.0684     312.1678      1.468     2.67     829.6611     55.02466     5839.381        57     1.400     1.153  84.03   0
       589    784.8098    173.8101 307.6053271  +6.6237251     1183.602     1802.485     2161.091     77.87885     155.9442     312.1057      1.525     3.52     829.2007     55.02466     195.9112        12     1.141     0.727  64.12   0
       590    684.3354    174.7665 307.6470354  +6.6199678     1214.185     1676.426     1564.786     78.12727     156.1305     312.1368      1.426     3.45     829.7925     55.02466     167.3829        10     0.924     0.709  54.95   0
       591    568.1675    175.4271 307.6952727  +6.6158031     502.5947     622.8801      749.475     77.75434      155.882     311.9816      1.235     3.47     829.1007     55.02466     77.27228         5     0.780     0.445  19.71   0
       592     23.8703    173.7408 307.9214352  +6.5982020     633.4107     914.9874     813.3448     78.37489     156.1305     312.1678      1.486     5.14     839.9136     55.02466     91.40552         8     1.226     0.610  -8.80   0
       593     53.1536    170.2173 307.9093903  +6.6006436     9861.416     14140.07     14636.08     77.75434     156.0063     311.9194      1.506     2.95     838.7513     55.02466     1442.677        35     1.320     1.099  86.53   0
       594     87.0324    168.0275 307.8953913  +6.6026892     1646.691     2282.946     2446.295     77.75434      155.882     311.9816      1.483     3.64     837.3589     55.02466     266.9402        17     1.172     0.974  81.28   0
       595    994.7930    167.3068 307.5183091  +6.6334259     1211.211     1789.748     2196.716     77.87885     155.8199     311.9816      1.587     3.70     826.0391     55.02466     232.0095        12     1.148     0.739  80.49   0
       596    607.3867    166.3268 307.6792861  +6.6208747     541.1751     811.5685     620.8007     77.75434     155.8199     311.9505      1.618     4.93     829.3223     55.02466     81.73584         6     1.012     0.679 -72.71   0
       597    962.5480    166.2183 307.5317417  +6.6327990     495.4613     482.1525     759.0868     77.75434     156.1925     311.9194      1.019     2.81     826.2921     55.02466     92.65247         5     0.722     0.447 -67.32   0
       598    721.6415    160.7234 307.6320091  +6.6270144     505.1385     868.2749     991.5956     78.12727     156.1305     312.1989      1.626     4.35     829.4213     55.02466     87.80658         5     0.958     0.563 -37.32   0
       599    996.0779    154.5458 307.5182029  +6.6387373     2089.072     3257.377     4203.849     78.37489     156.1305     312.1678      1.994     7.13      825.475     55.02466     345.7257        25     2.129     0.871  73.11   0
       600    570.3280    157.5103 307.6949781  +6.6232725     822.6006     1176.907     1157.404     78.25118     156.3785     312.1678      1.588     4.18     828.8546     55.02466     129.4382         8     0.909     0.731  49.52   0
       601    578.7134    151.5741 307.6916942  +6.6260043     1210.896     1745.428     1827.654      78.3749     155.9442     312.0437      1.479     3.55     828.8018     55.02466     176.5825        13     1.100     0.790  78.15   0
       602    587.1379    149.4798 307.6882648  +6.6271513     2169.467     3214.695     3043.152     78.37489     156.1925     312.1368      1.521     2.96     828.8065     55.02466     324.8386        19     1.246     0.943 -82.87   0
       603    271.9722    147.5847 307.8192567  +6.6173532     32860.86     47928.13     50770.77     77.87885     155.9442     312.0747      1.542     2.95     834.2728     55.02466     4970.198        56     1.440     1.199 -85.73   0
       604    331.4953    149.3980 307.7944686  +6.6186055      1075.37     1539.803     1752.473     77.75434     155.8199     311.7952      1.506     2.93     832.5057     55.02466     150.0406        12     0.901     0.840  48.07   0
       605     17.0760    146.1898 307.9251896  +6.6093469     4683.978     7008.009     7479.315     77.87885     155.6955     311.9816      1.609     3.22     840.2151     55.02466     727.2818        32     1.592     1.049 -77.61   0
       606    703.6321    144.2984 307.6400428  +6.6331927     8995.061     12350.26     13182.76     78.25118     156.0063      312.292      1.470     2.69     828.7639     55.02466     1357.294        33     1.304     1.046  87.78   0
       607    181.1237    145.4840 307.8570674  +6.6151642     919.7921     1338.978     1357.593     78.37489     156.4404     312.2609      1.518     4.40     834.6755     55.02466     166.8578        11     1.155     0.844  88.84   0
       608    257.9832    142.4344 307.8252419  +6.6190090      886.441     1125.616      767.313     77.87885     155.9442     312.0126      1.564     5.49     834.3701     55.02466     104.5607        10     1.320     0.643 -86.55   0
       609    114.3418    141.3047 307.8849503  +6.6146411     5334.459     7564.079     7704.798     78.12727     156.1305      312.292      1.525     2.86     835.7122     55.02466      803.528        27     1.249     1.062  82.77   0
       610    642.2217    138.5327 307.6657491  +6.6335166     996.6512     1339.951     894.6846     77.87885     156.0684     312.1057      1.502     3.99     828.7132     55.02466      158.096        12     1.102     0.790 -80.66   0
       611    453.3596    138.7896 307.7442007  +6.6270778     1493.116     2057.439     2027.677     77.62964     155.9442     311.9194      1.453     3.24      827.958     55.02466     221.9563        15     1.132     0.821  87.55   0
       612    384.9384    137.3927 307.7726719  +6.6253572     4190.291     6647.414     7015.789     77.62963     155.9442     311.9505      1.710     3.29     829.9591     55.02466     592.3678        30     1.429     1.079  76.95   0
       613    576.0292    138.6658 307.6932436  +6.6312435     722.1947     1068.929     1409.676     78.00315     156.1305     312.1057      1.641     4.68     828.4911     55.02466     104.6671         7     1.162     0.536  61.47   0
       614    349.4899    136.1521 307.7874400  +6.6246786      3491.06      5046.93     5031.751     78.25118     156.0063      312.323      1.540     2.95     831.8202     55.02466     490.3447        25     1.209     1.092  82.21   0
       615    561.7111    135.7741 307.6992893  +6.6319573      768.997     880.3796     904.9937     78.37489     155.9442     312.0126      1.518     5.49     828.3005     55.02466     140.9604        11     1.344     0.633 -73.60   0
       616    103.8502    136.2071 307.8894809  +6.6163922       1903.5     2852.139     3129.716     77.75434      155.882     311.8262      1.598     3.27     835.7927     55.02466     280.8792        19     1.115     1.024 -85.48   0
       617    665.7061    133.8000 307.6561518  +6.6362570     776.5329     1186.903     1222.843     77.75434     155.7577     311.8262      1.522     3.90     828.4715     55.02466     140.3932         8     0.934     0.683 -58.85   0
       618    996.2327    130.4873 307.5189447  +6.6486752      1770.01     2332.889     2468.447     78.37489     155.9442     312.1678      1.417     3.18     824.1814     55.02466     297.2838        15     1.062     0.894  75.41   0
       619     41.9201    131.3326 307.9153719  +6.6163178     526.4066     739.6696     686.9774     78.37489     156.3785     312.1678      1.474     3.34     838.8376     55.02466     96.87573         5     0.772     0.419 -19.44   0
       620    663.1787    124.1094 307.6575276  +6.6401731     6764.812     9479.963     9535.621     78.25117     155.9442     312.0437      1.466     2.86     828.1113     55.02466     1093.925        31     1.277     1.079  77.12   0
       621    201.3308    125.1394 307.8493602  +6.6242432     5946.143     8555.737     8195.949     78.37489     156.1305     312.1678      1.547     3.00     834.4142     55.02466     798.4451        30     1.307     1.079 -78.89   0
       622     84.1235    124.8053 307.8980610  +6.6204346     2213.591     3099.352     3391.745     77.87885     155.6332     312.0126      1.456     3.09     836.3312     55.02466      310.615        18     1.089     0.981 -84.11   0
       623    811.0995    123.7734 307.5960849  +6.6452622     986.3409     1339.653     1270.603     78.25117      155.882     312.0747      1.263     3.48     827.2721     55.02466     195.8649         8     1.009     0.586 -82.20   0
       624    615.2344    121.3515 307.6775387  +6.6397056     10133.88     14510.21     16328.35     78.00316     156.1305     312.1057      1.559     2.89     828.3529     55.02466     1589.442        36     1.334     1.094 -88.09   1
       625    250.1040    121.5896 307.8292186  +6.6273495     935.2881     1264.772     1008.496     78.00315     155.7577     311.9505      1.472     3.81     834.2464     55.02466     130.6147        10     0.909     0.818 -45.68   0
       626     13.8772    120.0347 307.9274032  +6.6200366      1063.08     1624.807     1428.755     78.12727     156.1925     312.1678      1.600     3.80     840.4152     55.02466     166.1876        12     1.107     0.828 -76.02   0
       627    342.5344    116.8422 307.7909807  +6.6324168     3953.197     6245.508     6716.547     78.25117     156.0684     312.2299      1.697     3.27     832.0121     55.02466     585.9695        30     1.496     1.072 -61.65   0
       628    524.2462    116.2706 307.7155102  +6.6387530      1956.53     2701.895     2579.375     78.25118     156.0684     312.1678      1.456     2.78      827.626     55.02466     310.7601        13     0.950     0.831  54.23   0
       629    988.8041    115.7313 307.5225255  +6.6545193     819.0386     1210.133     1093.802     77.62963     155.7577     311.9505      1.331     3.45     823.6452     55.02466     163.5882         7     0.937     0.613 -21.50   0
       630    618.8654    112.8158 307.6763172  +6.6433512      57111.5      81878.2     85976.54     77.75434     156.0063     312.0747      1.495     2.91     828.1282     55.02466     8328.929        71     1.435     1.204  86.06   0
       631    297.9727    106.3580 307.8098467  +6.6352473     3825.728     5586.132      6209.58     77.87885     156.1305     312.0126      1.545     2.81     833.4465     55.02466     606.6193        25     1.243     1.001  83.33   0
       632      2.6062     89.5704 307.9331162  +6.6322330     6197.067        15387     25008.82     77.75434      141.138     254.5543      4.039     8.98     840.6738     55.02466     1068.933       143     4.808     1.807 -89.35  24
       633    493.4635    104.6873 307.7286887  +6.6425025     547.1619     730.4871     331.7594     78.25118     156.3165     312.1989      1.528     5.76     827.3727     55.02466     73.53223         7     1.048     0.890  84.72   0
       634    697.9222    100.7584 307.6438782  +6.6509770     824.9837     1012.787     912.2745     78.12727     156.1305     312.2299      1.214     2.51      827.028     55.02466      137.054         7     0.694     0.666  11.93   0
       635    669.0411     99.7244 307.6559118  +6.6504368     1412.716     1825.723     1694.415     78.12727     156.1305     312.1989      1.441     2.84     827.1407     55.02466     226.7452        11     0.944     0.737  76.40   0
       636    683.2105     96.7230 307.6501260  +6.6521504     3520.006     4686.825     4490.317     77.87885     155.7577     312.0126      1.421     2.81     826.9263     55.02466     574.4858        21     1.120     0.973  88.89   0
       637    561.7944     96.3790 307.7005804  +6.6482243      350.894     696.9454     1180.172     77.87885      155.882     311.9816      2.130     5.00     827.3958     55.02466     67.55322         5     1.103     0.642 -62.60   0
       638    424.9917     87.7635 307.7577051  +6.6471913     4574.981     6823.301     6708.836     77.62963      155.882     311.9505      1.535     3.07     827.1495     55.02466     661.5468        27     1.324     1.001  81.78   0
       639    897.5178     83.2731 307.5615404  +6.6648714     4368.016     5908.604     6212.191     78.49842     156.4404     312.1989      1.402     2.50     824.3083     55.02466     708.9738        25     1.209     1.030  73.85   0
       640    879.5831     84.0595 307.5689653  +6.6639474     2467.089     3424.622     3411.991     77.75434     156.0684     311.9194      1.452     2.81     824.4736     55.02466     388.8994        19     1.110     0.942 -84.27   0
       641    577.6863     83.5377 307.6944102  +6.6540585     703.3907     863.0455     473.1114      78.3749     156.3165     312.1678      1.238     3.43     826.9655     55.02466     128.2609         7     0.933     0.518  56.23   0
       642    589.7463     81.5323 307.6894673  +6.6552907     1924.361     2652.938     2295.521     78.25118     156.0684     312.0747      1.352     2.65      826.955     55.02466     330.6744        15     1.081     0.768 -82.54   0
       643    388.4873     79.3708 307.7731536  +6.6494303     2062.999     3001.743     2819.065      78.3749      155.882     312.0437      1.457     3.03     829.1175     55.02466       312.78        18     1.110     0.997  62.39   0
       644    235.3155     80.6595 307.8367440  +6.6437495     897.7916      1018.14     1539.373     78.25118     156.1925     312.2609      1.369     3.60     833.9951     55.02466     116.4484         9     0.975     0.644 -82.47   0
       645    136.2877     76.3645 307.8780285  +6.6421896      3500.73     4768.112     4699.461     78.25118     156.0063     312.1678      1.461     2.97     833.1883     55.02466     486.5056        23     1.318     0.946  79.42   0
       646     18.2414     74.2315 307.9271401  +6.6390925     13402.51     19764.49     21342.16     77.75434     156.0063     312.0126      1.574     2.90     838.4387     55.02466     2149.551        48     1.458     1.204  89.62   0
       647    284.6152     75.0362 307.8164529  +6.6477290     1502.839      2369.08     2861.034     77.87885     155.9442     311.9816      1.599     3.08     833.6838     55.02466      232.933        15     1.108     0.837  67.82   0
       648    545.0391     73.8097 307.7083012  +6.6569801      826.322     1003.071     572.3325     77.62963     155.9442     311.8884      1.371     3.39     826.2871     55.02466     173.9097         7     1.063     0.453  89.54   0
       649    753.2012     73.3329 307.6218333  +6.6641498      769.739     1096.069     721.0956     77.62963     155.6955     311.9505      1.525     3.14     825.2385     55.02466     147.8965         7     0.920     0.527  61.15   0
       650    557.9154     73.8861 307.7029490  +6.6573803     581.9939     794.7931     617.0186     78.00316     156.3165     312.2299      1.249     4.12     826.3649     55.02466     105.1589         7     0.888     0.546  47.14   0
       651    939.0792     72.8527 307.5446221  +6.6705618     720.2246     884.5251     1075.438     78.25117     156.1305     312.1678      1.381     3.20     823.2156     55.02466     116.6268         6     0.759     0.556 -38.57   0
       652    147.3674     73.0936 307.8735362  +6.6439130     576.1686     650.2159     275.4488     78.37489     156.0063     312.2299      1.334     3.40     832.9674     55.02466     81.30847         5     0.771     0.434  70.85   0
       653    819.8938     69.0043 307.5942698  +6.6681678     6680.172     9312.064      9282.61     78.00316     155.8199     311.9194      1.434     2.74     824.6459     55.02466     1174.991        28     1.299     0.986  84.75   0
       654    975.9362     71.4349 307.5293563  +6.6723778     474.9237     795.6145     241.0984     78.12727     156.1305     312.1678      1.525     4.15     821.6716     55.02466     92.41394         5     0.805     0.609 -82.47   0
       655    764.9704     69.2308 307.6170814  +6.6662372     3596.609     4953.143     4882.375     77.75434      155.882     311.9194      1.415     2.55     824.9821     55.02466     656.1963        21     1.198     0.899  81.53   0
       656    410.2851     70.1425 307.7644088  +6.6539721     1074.545     1547.961     1980.651     78.25117     156.1305      312.323      1.546     3.72     827.4901     55.02466     167.2325        11     1.070     0.725  43.23   0
       657     89.3371     69.8228 307.8977543  +6.6433088     572.5318     1036.074     966.6736     77.87885     156.1305     312.0747      1.770     3.47     833.7705     55.02466     86.89246         5     0.803     0.432 -73.57   0
       658    527.5645     67.5621 307.7157714  +6.6589734     1315.085     1713.432     2073.386     78.00316     156.0063     311.9505      1.473     4.00     826.0256     55.02466     196.6453        13     1.154     0.836  53.98   0
       659    751.6678     68.0737 307.6226471  +6.6662698     661.2176      778.866     530.7789     78.37489     156.2545     312.1368      1.349     3.15      824.934     55.02466      108.815         7     0.842     0.587  60.17   0
       660     58.5698     66.0794 307.9106624  +6.6438174     3337.623     4663.961      4831.15     78.12727     156.1925     312.1368      1.478     2.86     835.3678     55.02466     464.7502        26     1.204     1.086 -73.41   0
       661     43.0589     67.0922 307.9170719  +6.6428765     1018.721     1565.389     1249.778     78.12727     156.0684      312.323      1.579     3.08     836.3971     55.02466     173.5021        10     0.901     0.745 -84.76   0
       662    419.8307     65.7775 307.7605902  +6.6560947      1058.34     1744.219     2264.593     77.75434     155.9442     312.0126      1.811     3.57     826.9069     55.02466     160.6058        11     1.037     0.768  67.09   0
       663    647.2203     66.3870 307.6660984  +6.6634692     452.4858     608.5313     592.2559     78.00316     155.8199     312.0747      1.101     3.44      825.847     55.02466     92.07074         5     0.804     0.426  20.25   0
       664    582.4503     62.7249 307.6931313  +6.6628107     1439.999     1982.713     1850.423     78.25118     156.1925     312.1678      1.411     2.87     825.9728     55.02466     221.3751        13     1.023     0.809  74.45   0
       665      1.4330     61.5307 307.9345525  +6.6437690     2099.152      2630.46     3277.017     69.32233     125.7455     236.6444      1.186     3.13     838.5295     55.02466     432.3962        12     1.219     0.570  88.99  24
       666    759.5835     56.8265 307.6197362  +6.6711781     2153.475     3099.683     2628.538     77.87885     155.9442     312.0747      1.484     3.26     824.2505     55.02466     321.8462        17     1.174     0.857 -82.69   0
       667     73.2797     57.0301 307.9048576  +6.6480489     904.9299     1361.657     1538.471     78.12727     156.1305     312.1368      1.602     4.71     834.0122     55.02466     156.3143        12     1.314     0.686  86.41   0
       668    400.2810     56.5720 307.7690225  +6.6592386     1218.763     1617.395     1530.957     78.12727     155.9442     312.1368      1.357     3.21     828.0714     55.02466     187.7994        10     0.912     0.798  37.81   0
       669     97.5732     55.4336 307.8948193  +6.6495265     1062.891     1334.618     1214.864     77.75434      155.882     311.9505      1.301     3.42     832.5392     55.02466     179.8909        10     1.077     0.663  69.15   0
       670     86.2365     50.4202 307.8996984  +6.6512142     10337.74     14909.36     15427.96     77.87885     155.9442     311.9194      1.553     2.80     832.9014     55.02466     1541.637        38     1.368     1.097  85.66   0
       671    415.3424     50.2419 307.7629785  +6.6623577     2714.251     3868.662     4150.264     78.12727     156.1305     312.1989      1.548     3.18     826.9288     55.02466     400.8036        21     1.265     0.901  81.31   0
       672    236.8057     49.7497 307.8371686  +6.6565603     696.7144     850.6578     527.6578     77.75434     155.9442     311.7952      1.246     2.48     833.7758     55.02466     115.1381         6     0.706     0.574  43.17   0
       673    629.0437     42.5493 307.6744520  +6.6727016     20373.26     28548.25     29916.66     78.37489     156.0684     312.1989      1.496     2.81     824.8818     55.02466     3322.403        49     1.392     1.143  89.05   0
       674    252.9700     44.3647 307.8306350  +6.6593271     1696.596     2337.036     3255.982     77.87885      155.882     311.9816      1.499     3.21     833.7131     55.02466     296.2406        16     1.180     0.883 -54.38   0
       675    937.5015     42.4389 307.5462974  +6.6830655     511.1037     603.2383     803.6808     78.25118     156.0063      312.385      1.099     3.79     821.6646     55.02466     79.05524         6     0.986     0.419  72.16   0
       676    528.7922     38.6137 307.7162360  +6.6709657     5739.887     8035.651     8411.037     77.87885      155.882     312.0126      1.480     2.79     824.7716     55.02466     902.7101        28     1.236     1.038 -85.50   0
       677    247.0115     38.8609 307.8332962  +6.6613989     2093.359     3125.429     3963.924     77.62963     156.0063     311.8884      1.551     3.43     833.6946     55.02466     300.2661        17     1.289     0.797  88.59   0
       678    254.9596     34.6155 307.8301375  +6.6634188     9916.398     14535.78     15497.91     77.75434     155.9442     311.9505      1.542     2.94      833.671     55.02466     1575.288        35     1.375     1.095 -86.43   0
       679    615.4089     32.9742 307.6804390  +6.6761977     3276.747     5811.042     6452.593     77.87885     155.9442     312.0437      2.007     5.37     824.4723     55.02466      548.565        29     1.907     0.902  73.72   0
       680    434.3875     34.1930 307.7556069  +6.6696228     24565.94     35634.82     37066.22     77.87885     155.9442     312.0747      1.565     2.89     826.0685     55.02466      3653.74        51     1.410     1.163  87.57   0
       681    912.2923     34.3241 307.5570437  +6.6855737     2274.922     3057.589     3026.479     78.12727     156.2545     312.1678      1.434     2.59     821.8688     55.02466     420.4813        20     1.104     1.035  53.34   0
       682    314.7654     34.6301 307.8052904  +6.6654238     1054.095     1562.247     1524.239     77.87885      155.882     311.9194      1.679     3.51     832.6954     55.02466     151.3956         9     0.895     0.726  89.46   0
       683     20.4338     34.0036 307.9275904  +6.6557736     2481.337     3520.205     3279.115     77.50472     156.0063     311.9505      1.457     3.05      835.312     55.02466      340.384        17     1.039     0.980 -75.90   0
       684    547.6243     33.7688 307.7085749  +6.6735974     678.7352     918.4304     1123.953     77.75434     156.0063     311.9816      1.316     4.33     824.5558     55.02466     125.6862         7     0.886     0.603  17.82   0
       685    519.3728     34.1188 307.7203008  +6.6725054     643.9719     989.3884     868.5258     78.12727     155.9442     312.1678      1.426     2.10     824.5554     55.02466     143.3788         5     0.706     0.436  67.85   0
       686    242.8165     31.0858 307.8353016  +6.6644676     3197.324     4580.821     5035.803     77.87885      155.882     312.0747      1.529     2.90     833.6505     55.02466     508.7974        24     1.313     0.957  79.23   0
       687    295.9402     29.0825 307.8132987  +6.6670812     1193.136     1699.021     1598.956     78.37489     156.1925     312.1989      1.446     3.08     833.3978     55.02466     167.0912        10     0.901     0.723  81.82   0
       688    684.2151     23.7926 307.6521602  +6.6822932     2119.382     3198.221     3681.342     77.87885      155.882     312.0126      1.548     2.90      823.442     55.02466     381.4219        20     1.311     0.901  75.83   0
       689     57.8649     26.2951 307.9123010  +6.6602177     610.1452     756.2371     395.6595     78.25117     156.2545     312.1989      1.385     4.43     832.9415     55.02466     79.03424         7     0.894     0.625  31.05   0
       690    932.8737     24.3164 307.5488279  +6.6903929     1098.997     1347.037      1537.17     78.37489     156.4404     312.1989      1.282     3.16      820.975     55.02466     148.4149        11     0.949     0.762 -73.18   0
       691     89.2190     23.6539 307.8993645  +6.6623646     579.1352     590.0857     461.7388     77.75434     156.1305     311.9816      1.207     2.05     831.3939     55.02466     128.2053         5     0.707     0.434 -20.48   0
       692    195.5281     19.3757 307.8553431  +6.6677107     722.1472     1139.976     1051.824     77.87885     156.0063     312.1057      1.604     4.04     832.3871     55.02466     128.6193         6     0.990     0.472  56.84   0
       693    249.8529     18.4866 307.8328036  +6.6699056     878.2111      1334.44      1818.19     78.25117     156.0063      312.323      1.614     3.67     833.5872     55.02466     127.3372         8     0.905     0.634  52.63   0
       694    742.8983   1018.4702 307.5943857  +6.2735974     1323.366     1885.987     2036.972     78.12727     156.3165     300.9482      1.614     3.25     856.0474     55.02466     194.5393        11     1.041     0.744  83.66  16
       695    615.1667   1016.5742 307.6474773  +6.2701058     724.7556     1083.074     1164.789     77.75434     155.9442     311.9816      1.789     5.78     856.6503     55.02466     126.2997        10     1.238     0.864  69.08  16
       696    191.2797   1016.8602 307.8234385  +6.2557647     660.7297     948.1369     807.1356     78.37489     156.1305     311.2042      1.481     2.91     854.7862     55.02466     127.9165         6     0.809     0.735  73.74  16
       697    950.2775   1012.9235 307.5084762  +6.2828158     6686.654     10721.08     10527.97     78.49842     156.3785     312.2299      1.712     3.63     853.3055     55.02466     812.4532        37     1.449     1.206  74.77   0
       698    704.7703   1013.2560 307.6103897  +6.2744748     989.4236     1697.352     1916.233     78.00316     156.1925     312.0747      1.849     4.31     856.3566     55.02466     146.8071        10     1.039     0.779  52.47   2
       699     73.8950     12.7180 307.9061006  +6.6663629     519.2963     862.5395     1346.363     78.00316     156.4404      312.292      1.660     3.42     831.4584     55.02466     78.10345         5     0.981     0.344 -44.44   0
       700    710.0416   1010.9321 307.6082792  +6.2756106     2974.833      4439.55     4960.193     78.25117     156.0684     312.2299      1.557     3.73     856.2346     55.02466     422.4545        24     1.373     1.020  88.25   2
       701    234.7457   1012.7234 307.8055342  +6.2589337     1491.016     2147.907     2286.446     78.37489     156.1305     312.1678      1.464     3.31      854.886     55.02466     217.4853        14     1.044     0.930  84.21   0
       702    433.0465   1011.8246 307.7232431  +6.2659630     1089.454     1456.804     1532.024     77.87885     156.1305     312.0437      1.430     3.80     856.9505     55.02466     166.7114        12     1.119     0.718  73.00   0
       703    725.8071   1010.4304 307.6017509  +6.2763451     1142.886     1506.735     1791.192     77.62963     155.9442     311.9505      1.410     4.46     856.0082     55.02466     178.7249        10     1.125     0.612  79.69   0
       704    356.7478   1008.2954 307.7550364  +6.2648597      2123.61     2877.843     2986.593     78.12727     156.0684      312.416      1.437     3.26     856.4917     55.02466     331.0616        16     1.215     0.848  67.67   0
       705    966.6865   1006.0020 307.5018954  +6.2862211     612.6752     867.7742     33.71733     77.62963     155.7577     311.8884      1.378     4.44     852.5124     55.02466     91.70129         6     1.250     0.449 -84.23   0
       706    509.2179   1000.2679 307.6920097  +6.2732884     1016.233      1329.13     925.3036     77.75434     156.0684     312.1057      1.434     3.91     856.8552     55.02466     174.4363        11     1.174     0.661  85.68   0
       707    538.9478    998.6095 307.6797231  +6.2749695     4519.685     6677.635     7309.165     77.62963     156.0063     311.9194      1.561     2.80     856.8465     55.02466      729.363        27     1.319     0.983  84.90   1
