#   1 NUMBER                 Running object number                                     
#   2 X_IMAGE                Object position along x                                    [pixel]
#   3 Y_IMAGE                Object position along y                                    [pixel]
#   4 ALPHA_J2000            Right ascension of barycenter (J2000)                      [deg]
#   5 DELTA_J2000            Declination of barycenter (J2000)                          [deg]
#   6 FLUX_APER              Flux vector within fixed circular aperture(s)              [count]
#   9 FLUXERR_APER           RMS error vector for aperture flux(es)                     [count]
#  12 FLUX_RADIUS            Fraction-of-light radii                                    [pixel]
#  13 FWHM_IMAGE             FWHM assuming a gaussian core                              [pixel]
#  14 BACKGROUND             Background at centroid position                            [count]
#  15 THRESHOLD              Detection threshold above background                       [count]
#  16 FLUX_MAX               Peak flux above background                                 [count]
#  17 ISOAREA_IMAGE          Isophotal area above Analysis threshold                    [pixel**2]
#  18 A_IMAGE                Profile RMS along major axis                               [pixel]
#  19 B_IMAGE                Profile RMS along minor axis                               [pixel]
#  20 THETA_IMAGE            Position angle (CCW/x)                                     [deg]
#  21 FLAGS                  Extraction flags                                          
         1    428.8995     57.3986 307.7560040  +6.6697508      9383.03     28474.79     35766.46     90.59235     181.6197     363.3842      2.791     6.88     1164.939     64.10977     1034.786        85     2.197     1.975 -65.48   0
         2    417.2271     25.9008 307.7619263  +6.6823754     2705.921     7935.374     9555.398     91.17122     181.6197     363.6375      2.721     7.40     1166.862     64.10977      260.473        53     1.960     1.823 -63.27   0
         3     18.2937     25.6465 307.9279465  +6.6691511     4400.749     11497.05     13583.58     91.02685     181.8368     363.8544      2.624     6.03     1183.805     64.10977     517.6354        63     2.138     1.757 -71.14   0
         4    313.8284     20.8519 307.8051264  +6.6810119      5528.19     16253.47      20569.1     90.88224     182.0537     363.6013      2.753     6.64     1179.279     64.10977     597.5813        72     2.191     1.888 -63.06   0
         5    379.6947     20.6441 307.7777233  +6.6832956     920.6184     2464.628     3452.504     91.17122     181.9091     363.8544      3.022     7.73     1171.408     64.10977      118.856        14     1.511     1.108  35.37   2
         6    632.2846      9.5724 307.6729792  +6.6962843     4339.628     11735.31     14630.87     91.31536     181.6197     363.5652      2.689     6.63     1157.856     64.10977     426.5061        62     2.103     1.775 -60.90  19
         7    640.7457     14.0881 307.6693056  +6.6947001     5202.972     14258.12     17739.93     91.17122     181.7645     363.8544      2.729     6.95     1157.801     64.10977     475.5992        69     2.178     1.876 -77.45   3
         8    641.4787      5.5121 307.6692898  +6.6982678     1534.799     4160.899     5763.077     90.88225     182.1981     339.5083      2.940     8.39     1157.646     64.10977     171.5146        30     1.651     1.481 -79.28  19
         9    805.7613     14.0441 307.6006320  +6.7002028     891.6423     2196.453     2302.703     90.88224     181.8368     363.5651      2.166     4.65     1153.904     64.10977     102.2263         8     1.280     0.480 -66.42   0
        10    241.2181     11.1231 307.8356724  +6.6826068     2908.676     8108.819     10412.99     90.59235     181.6197     363.6736      2.738     7.05     1181.834     64.10977      321.668        59     2.180     1.821 -46.06  16
        11    402.1542      9.7539 307.7687450  +6.6885440     3438.375      10077.8     11856.52     91.17122     181.7645      363.746      2.681     6.95      1169.24     64.10977     346.9775        60     2.051     1.861 -82.81  16
        12    875.6589     11.1418 307.5716397  +6.7037222     860.0908     1938.869     1628.155     91.17122     181.9091      363.746      2.135     8.04     1151.748     64.10977     120.9575        14     1.594     1.133  35.90   0
        13    664.2438      7.1492 307.6597604  +6.6983486     8012.581     21403.47     31382.41     91.31536     181.8368     356.1827      3.126     7.87     1157.331     64.10977     814.2191        99     2.811     1.881 -44.74  24
        14    716.7383      8.2455 307.6378766  +6.6996410     965.9291     2321.843     2389.223     91.02685     181.7645     363.2394      2.690     9.39     1155.782     64.10977     128.3557        14     2.193     1.122 -33.96  18
        15     49.0831      3.3431 307.9158911  +6.6793964     1643.655     3969.002     3872.581     91.17122     173.6984     308.9213      2.385     8.28     1182.611     64.10977     184.1309        28     1.780     1.377 -53.43  24
        16    139.1834      1.8924 307.8784462  +6.6830102      1929.95     3356.665     3852.478     86.27946     153.9489     283.8955      1.838     6.73     1182.066     64.10977     258.5796        20     1.676     0.899  -2.10  24
        17    185.6049    987.9489 307.8257382  +6.2771584     742.6085     1326.054     991.8913     90.44705     181.6921     363.2756      1.812     5.77     1211.379     64.10977     94.33716         8     1.091     0.858  13.79   0
        18    738.4950   1020.8083 307.5947217  +6.2819921     6365.482     11467.07     12336.92     90.88224     180.4573     321.5627      1.918     4.09     1210.001     64.10977     698.3062        40     1.637     1.275 -65.00  24
        19    534.0789   1021.3858 307.6797053  +6.2749585     3020.405     5837.333     6531.849     90.73741     176.1794     313.1918      2.081     5.15     1212.299     64.10977     306.1407        35     1.665     1.335 -84.52  27
        20    531.2718   1013.6017 307.6811350  +6.2780814     6046.491     11834.62      13433.7     90.59235     181.4023      363.529      2.063     4.47     1212.099     64.10977     612.2346        48     1.720     1.482 -88.94  19
        21    504.0964   1022.6774 307.6921293  +6.2734271     979.1375     1471.004     1524.693     90.00975       160.72     291.7551      1.666     4.89     1212.279     64.10977     157.4277        13     1.101     1.081  -5.90  24
        22    284.3440   1020.2347 307.7835891  +6.2671140     10865.45     21474.49     24126.47     91.02685     181.9091     329.8409      2.144     4.50     1213.832     64.10977     1108.463        66     1.944     1.551 -53.13  24
        23    939.4667    984.6776 307.5123625  +6.3035881      6125.04     10298.88     10952.98     91.31536     181.9814     363.6736      1.847     3.87     1207.836     64.10977     797.9752        33     1.474     1.173 -72.37   0
        24    634.0803    972.4669 307.6397695  +6.2984968     3340.123     6488.586     6951.346     91.31536     182.1981     363.7098      2.066     5.12     1210.067     64.10977     353.8892        36     1.623     1.374 -59.62   0
        25    246.2506    973.0590 307.8010240  +6.2853348     2863.855     6295.548     6782.687     91.17122     181.9091     363.7098      2.280     5.53     1212.109     64.10977     290.5818        38     1.741     1.388 -76.33   0
        26    983.0082    972.2005 307.4946743  +6.3101862     577.1712     842.4216     1073.819     90.44705     181.5473     363.4928      1.644     4.60     1205.627     64.10977     96.30688         5     1.211     0.497 -70.40   0
        27    456.5251    971.2787 307.7136450  +6.2930801     863.8132     1862.905     1861.875     91.45928     182.1981     363.8183      2.303     7.14     1211.082     64.10977     109.6887        12     1.561     0.915 -82.25   0
        28    221.1324    990.0000 307.8108958  +6.2774970     738.7204     1437.134     1569.834     90.30152     181.3298     363.3842      1.930     3.59     1212.432     64.10977     123.0118         5     0.862     0.468  24.27   3
        29     15.1053    970.2488 307.8972337  +6.2787737     1583.259     2790.776     2990.974     91.02685     181.7645     363.8906      1.808     4.50     1210.239     64.10977     195.5056        18     1.276     1.025  66.33   0
        30    865.9482    969.4688 307.5434469  +6.3074347     755.7198     1365.329     1739.169     91.02685     181.7645     363.6375      1.956     4.22     1207.478     64.10977     99.33875         6     0.955     0.533  74.13   0
        31    989.4717    965.1370 307.4922235  +6.3133189     990.5779     1785.791     2236.402     91.17122     181.9091     363.7821      2.210     6.00     1204.899     64.10977     123.8571        11     1.403     0.722 -78.53   2
        32    558.4803    965.2698 307.6714502  +6.2989564     1182.153      2387.97     2440.467     91.45928     182.2703      363.746      1.960     7.71     1210.701     64.10977     116.4015        19     1.379     1.205  45.33   0
        33    913.3627    976.2265 307.5235020  +6.3062147      1801.95     3078.549     2905.408     90.73741     181.6921     363.4928      1.843     4.85     1207.718     64.10977     230.2275        21     1.545     0.911 -85.10   0
        34    282.4932    965.6492 307.7862038  +6.2896055     673.6761      1445.64     2454.036     91.02685     181.7645     363.8544      2.035     3.42     1212.285     64.10977     92.51428         5     1.097     0.308  20.26   0
        35    597.9358    960.9297 307.6551890  +6.3020620     781.9851     1325.408     1112.516     91.17122     181.9814     363.7098      1.918     5.80     1210.466     64.10977     121.5079         7     1.115     0.851 -52.33   0
        36    277.8162    959.3600 307.7883613  +6.2920480     1031.367     2214.003     2893.305     90.59235     181.6921     363.4928      2.533     6.78     1212.033     64.10977      120.652        13     1.348     0.958  85.89   0
        37    882.1264    951.5965 307.5373196  +6.3153559     5628.034     10002.38     10483.16     90.59235     181.4023      363.529      1.886     3.93      1206.58     64.10977     666.9193        37     1.587     1.219 -68.41   0
        38    418.2418    949.0740 307.7303143  +6.3009794     1506.846     3037.771     2933.581     91.02685     181.9814      363.746      2.086     6.59     1211.112     64.10977     164.1738        23     1.625     1.099 -62.19   0
        39    319.9872    947.4246 307.7712285  +6.2983860     6359.491     13418.57     15291.89     90.88224     181.6921     363.6375      2.245     4.84     1211.708     64.10977     628.0511        52     1.816     1.511 -65.23   0
        40    240.0074    946.2896 307.8045254  +6.2961868     4558.184     9816.317     11061.15     90.59235     181.5473     363.4204      2.240     4.99     1211.076     64.10977      461.406        49     1.796     1.551 -81.01   0
        41    568.4053    941.1627 307.6681356  +6.3092471     885.8986     1586.058     1263.065     90.15575     181.6197     363.4204      2.082     5.92     1209.943     64.10977     122.5461         9     1.058     0.933 -69.24   0
        42    897.9795    936.6409 307.5312294  +6.3220610     978.4787     1532.107     964.8452     90.73741     181.6921     363.4928      1.746     5.76     1205.794     64.10977      126.153        10     1.031     0.906 -19.18   0
        43    853.7768    935.3818 307.5496543  +6.3211153     661.9167     1229.727     1002.817     90.88224     181.8368     363.6375      1.860     5.54     1205.917     64.10977     108.0822         8     1.674     0.516 -59.67   0
        44    733.9137    930.0897 307.5996798  +6.3193235      1191.45     2471.644     2556.795     90.88224     182.4146     363.8544      2.171     6.47     1207.871     64.10977     149.0298        16     1.376     1.019 -70.48   0
        45    558.1797    930.2123 307.6727571  +6.3134314     540.4684     1122.457       577.09     90.88224     181.5473     363.6013      2.062     4.64     1209.666     64.10977     93.55493         5     1.294     0.472 -29.02   0
        46    965.7509    925.0944 307.5034327  +6.3290782     1139.756     2153.714     2875.721     91.02685     181.7645     363.8544      2.334     5.30     1203.174     64.10977     149.5045        12     1.220     0.871 -60.72   0
        47    652.9001    923.0959 307.6336062  +6.3195216     1747.146     3295.086     4404.884     91.17122     182.4866      363.529      2.381     5.56     1208.107     64.10977     199.2251        23     1.459     1.152 -86.20   0
        48     49.7489    919.8172 307.8845372  +6.3007687     2086.422      4453.84       4896.7     90.59235     181.9814     363.4566      2.174     5.45     1209.469     64.10977     232.4814        29     1.630     1.203 -67.54   0
        49    193.1494    918.5103 307.8249504  +6.3061001     1423.095     3237.888     3774.566     91.17122     181.6921     363.8544      2.253     8.89     1209.878     64.10977      136.882        27     1.615     1.365 -51.15   0
        50     67.3548    918.9208 307.8772465  +6.3017277     1394.075     2990.038     3315.946     91.17122     181.9091     363.7098      2.223     5.44     1209.317     64.10977     164.4402        25     1.490     1.312 -61.44   0
        51    930.8575    918.6086 307.5181620  +6.3306017     594.3685     1295.573      1393.95     90.44705     181.8368     363.3842      2.025     4.78     1204.477     64.10977     81.40808         6     1.172     0.551 -66.07   0
        52    647.4932    912.4086 307.6362148  +6.3237577     4584.067     9498.042     10543.84     90.73741     181.5473     363.4928      2.162     4.83     1207.623     64.10977     467.4279        43     1.710     1.453 -73.63   0
        53     20.4983    910.1345 307.8970286  +6.3037910     715.6207     1359.029     1478.079     91.17122     181.9814      363.746      1.977     6.79     1209.172     64.10977       113.37         9     1.300     0.996 -40.45   0
        54      8.3663    910.9616 307.9020455  +6.3030435     801.3769     1568.904     1421.778     90.88224     181.6921     363.2032      2.233     5.57     1209.277     64.10977     118.2323         8     1.292     0.677 -31.38  16
        55    885.1013    908.3925 307.5375344  +6.3333059     2319.323     4090.962     4015.868     90.88224     181.4748     363.4928      1.850     4.53     1203.978     64.10977     261.5758        22     1.350     1.100 -56.80   0
        56     65.4300    907.4224 307.8784365  +6.3064140     940.7252      2105.64     2299.633     90.44705     181.6197     363.4928      2.225     8.25     1208.861     64.10977     99.01404        17     1.740     1.092  75.18   0
        57    330.5744    905.6995 307.7682358  +6.3159787     10226.43     22367.57     26497.52     91.31536     181.6197     363.6013      2.370     5.04     1210.849     64.10977     993.5194        64     1.895     1.640 -70.40   0
        58    201.6614    903.6285 307.8219143  +6.3125330     702.3177      1622.56     2673.745     90.73741     181.9091     363.6375      2.513     3.88     1209.928     64.10977     118.7904         5     1.065     0.405  15.51   2
        59     94.1603    896.4879 307.8668597  +6.3118922     1008.822     2521.868     2589.164     91.17122     181.8368      363.746      2.445     8.06     1208.404     64.10977     121.0823        15     1.586     1.146  85.09   0
        60    809.4833    889.3060 307.5696243  +6.3386836     2256.018     4587.938     4623.743     90.88225     182.3424     363.8544      2.117     5.97     1203.953     64.10977     249.0573        27     1.663     1.155 -67.48   0
        61    875.4901    889.9716 307.5421506  +6.3405985      1657.52     2836.662     2806.451     91.31536     181.6197     363.6013      1.896     3.98     1202.843     64.10977     244.9344        19     1.254     1.032 -53.33   0
        62    846.0535    889.4097 307.5544118  +6.3398542     1526.282      2787.01     3339.016     90.44705     181.8368     363.3842      2.061     4.86      1203.24     64.10977     180.5667        18     1.238     1.044 -81.96   0
        63     77.3650    889.9885 307.8740641  +6.3140161      1533.69      3354.66     3662.514     90.59235     181.6921     363.4928      2.160     6.35     1208.203     64.10977     213.9189        21     1.484     1.177 -26.43   0
        64    545.6091    880.7766 307.6796517  +6.3334390     207067.1     456267.4     517339.1     90.73741     181.6921     363.5651      2.282     5.00     1208.547     64.10977     18484.71       183     2.078     1.816 -71.14   0
        65    389.8831    883.3879 307.7443254  +6.3271744     4711.995     10667.02     12480.52     90.73741     181.6197      363.529      2.328     5.15     1209.998     64.10977     436.5414        50     1.781     1.550 -72.72   0
        66    333.1460    881.8297 307.7679730  +6.3259268     7488.899     17354.51     19973.89     90.88224     181.9814     363.6013      2.343     5.30      1210.57     64.10977     678.8214        60     1.931     1.622 -78.85   0
        67    651.4362    877.8632 307.6357387  +6.3381623     2487.134     5208.712     5819.969     91.02685     181.9091     363.7098      2.122     5.13     1205.682     64.10977     256.9835        31     1.511     1.358 -54.13   0
        68    883.9094    876.6251 307.5390977  +6.3463923     4174.614     7539.335     9097.368     91.31536     181.6921      363.529      2.019     4.38     1201.872     64.10977     449.5814        30     1.524     1.173 -69.57   0
        69    626.1713    872.0585 307.6464415  +6.3397208     2221.222     4513.089     5268.655     90.73741     181.9814     363.6013      2.094     5.13     1205.787     64.10977     243.7462        28     1.514     1.253 -55.95   0
        70   1017.1633    870.8030 307.4838734  +6.3532140     4009.455     6936.314     7361.202     90.15575     181.6921     360.9875      1.811     3.86     1198.714     64.10977     523.5004        32     1.534     1.168 -70.72  16
        71    814.9345    870.5339 307.5679886  +6.3466209     1159.432     1993.426     2062.804     91.17122     181.9091      363.746      1.897     7.23     1202.757     64.10977     112.3383        19     1.302     1.124 -52.53   0
        72    619.0526    866.5853 307.6495864  +6.3417456     1366.466     3164.548     4158.215     90.44705     181.8368     363.4204      2.582     8.24     1205.625     64.10977     164.7146        22     1.741     1.140 -63.76   0
        73    902.7029    864.6200 307.5316850  +6.3519758     2525.765      4732.36     5116.103     91.02685     181.6921     363.4566      2.078     5.46     1200.776     64.10977      262.158        32     1.761     1.244 -77.41   0
        74    361.3594    860.8245 307.7569497  +6.3355463     1638.241      3789.22     4354.137     90.73741     181.7645     363.4566      2.396     8.76     1209.902     64.10977     175.9065        30     1.806     1.444  43.10   0
        75    497.1676    850.5497 307.7008171  +6.3443159     1804.431     4154.473     4912.182     91.02685     181.9091     363.6375      2.425     7.44     1207.955     64.10977     191.4452        34     1.834     1.459 -76.61   0
        76    841.4186    849.7205 307.5576739  +6.3560995      714.997     1210.881     1700.971     90.73741     181.5473     363.6375      1.992     4.94     1201.166     64.10977     105.5247         6     0.955     0.723 -61.60   0
        77    544.3416    846.4025 307.6813381  +6.3475995     3461.722     8215.441     11263.73     90.44705     181.6921     363.4204      2.771     7.25     1206.944     64.10977     336.0231        51     2.076     1.615 -34.23   2
        78    461.6234    845.0401 307.7157852  +6.3454088      901.772     1954.479     1764.504     90.73741     181.6921     363.4566      2.037     6.42     1207.968     64.10977     139.9934        11     1.554     0.744 -30.04   0
        79    879.4162    844.3767 307.5420503  +6.3595679     1044.742     2063.949     2318.365     90.88225     181.6921     363.6013      2.025     6.25     1200.341     64.10977     121.5692        14     1.187     1.029 -54.09   0
        80    103.9815    844.6107 307.8645327  +6.3336543     866.7955      1762.88     1418.085     90.73741     181.5473     363.5652      1.987     7.15     1207.288     64.10977     143.0856        13     1.473     0.971  -4.36   0
        81    514.6893    840.4958 307.6938692  +6.3490532      11581.6     26494.96     29642.96     91.17122     182.3424      363.746      2.338     5.16     1206.912     64.10977     1046.596        69     1.921     1.683 -64.36   0
        82    928.0577    838.4063 307.5220207  +6.3636476     2949.037     5461.227     6293.305     90.59235     181.7645     363.3842      2.025     4.34     1199.368     64.10977     350.2777        30     1.513     1.216 -67.83   0
        83    307.4454    829.2021 307.7804398  +6.3468140     1857.209     4135.113     4801.843     90.44705     181.4748     363.2756      2.389     6.52     1210.109     64.10977     189.8578        31     1.672     1.381  83.96   0
        84     25.9949    830.9202 307.8974279  +6.3367033     886.8364     1623.384     1815.521     90.73741     181.3298     363.4566      1.901     6.38     1206.844     64.10977     101.1495        10     1.254     0.912 -68.10   0
        85    772.7676    824.8888 307.5870613  +6.3640812     37277.39     76390.88     84838.36     91.31536     181.6921     363.7098      2.168     4.74     1200.683     64.10977     3787.408        92     1.952     1.609 -69.35   0
        86      7.2790    827.3224 307.9053330  +6.3375637     1304.535     2925.622     3028.334     91.45928     182.1981      357.436      2.177     6.48      1206.83     64.10977     182.7642        23     1.404     1.337 -27.78  16
        87    229.6143    801.6726 307.8137392  +6.3555913     776390.7      2452128      2991060     90.59235     181.6197     363.5652      2.783     5.44      1209.37     64.10977     64406.08       608     2.812     2.247 -82.99   4
        88    897.9903    820.0575 307.5351425  +6.3702323     6360.578     12387.01      13816.7     90.44705     181.8368     363.3842      2.064     4.37     1199.143     64.10977      663.765        47     1.698     1.409 -68.60   2
        89    894.9481    811.4537 307.5366970  +6.3736864     5080.362     9527.672     10114.79     91.31536     181.8368      363.746      2.008     4.26     1198.849     64.10977     608.2916        41     1.730     1.307 -59.04   2
        90    339.7384    817.1035 307.7674187  +6.3528898     11595.87     27807.06     32411.06     90.88224     181.9814     363.7821      2.416     5.41      1209.12     64.10977     1165.339        73     2.006     1.723 -69.66   0
        91    401.5962    814.9152 307.7417668  +6.3558560     12151.85     29463.33     34812.46     90.59235     181.4748     363.3842      2.455     5.60     1207.767     64.10977     1201.766        77     2.020     1.790 -71.55   0
        92    390.2097    816.4164 307.7464516  +6.3548563      789.975      1568.84     2032.575     90.88224     181.6197     363.5652      1.985     3.53     1208.042     64.10977     128.4866         5     0.993     0.663 -61.44   0
        93    938.4572    813.6537 307.5185270  +6.3742198     1641.629     2813.608     3276.154     91.31536     181.9091     363.7098      1.991     5.35     1198.105     64.10977     215.1162        21     1.507     1.030 -71.70   0
        94    635.4827    810.8525 307.6446313  +6.3653196     3964.094     8532.801     9843.894     91.17122     181.9091     363.7821      2.293     5.26     1202.408     64.10977     381.3491        43     1.729     1.500 -63.46   0
        95    424.2456    808.7596 307.7325549  +6.3591540     963.0964     2216.167     2666.084     91.02685     181.9091      363.529      2.326     6.88         1207     64.10977     108.3529        13     1.318     1.006 -34.40   0
        96   1017.6457    802.8707 307.4859531  +6.3812990     581.5589     1033.863     959.6978     91.17122     181.9091     357.8037      2.133     3.38     1194.557     64.10977     101.8851         5     0.767     0.431  70.97  16
        97    404.5099    797.6117 307.7411394  +6.3631025        29471     71545.55     83009.55     90.88225     181.5473     363.4928      2.451     5.55     1207.009     64.10977     2763.801       100     2.065     1.822 -69.56   0
        98    670.7126    800.5986 307.6303244  +6.3707275     1486.049      2764.83     2640.232     90.30152     181.4023     363.3842      1.941     5.28     1201.604     64.10977     184.4358        21     1.244     1.221 -18.08   0
        99    522.1904    796.6760 307.6922278  +6.3674083      3925.03     9330.375     10937.95     90.73741     181.4023     363.4928      2.383     5.79     1203.818     64.10977      394.696        49     2.023     1.534 -70.52   0
       100    439.0369    795.1781 307.7268619  +6.3652583     2336.636     6161.687     7541.951     90.73741     181.6197     363.4566      2.584     6.89     1205.721     64.10977     235.8389        45     1.859     1.660  65.29   2
       101    435.4931    788.5699 307.7285589  +6.3678706     1153.076     2868.008     3445.929     91.31536     181.6197     363.6013      2.378     7.95      1205.51     64.10977     167.8441        19     1.686     1.047 -44.22   2
       102    767.3578    793.0143 307.5903839  +6.3770717     7320.109     15694.37     17468.01     90.30152     181.6921     363.4204      2.221     4.86     1198.804     64.10977     709.0925        56     1.829     1.555 -72.45   0
       103    133.4946    785.6082 307.8542573  +6.3590185     1704.287     4262.533     4916.789     90.73741     181.4748     363.4566      2.431     6.94     1206.536     64.10977     194.8879        36     1.783     1.491 -74.78   3
       104    125.3237    785.3364 307.8576646  +6.3588577     6497.542     15763.74     19114.03     91.45928     181.9091     363.6736      2.501     5.52     1206.406     64.10977     680.8351        64     1.928     1.770 -83.02   3
       105    117.9525    782.6788 307.8608202  +6.3597094      1809.36     4220.145     6356.417     91.17122     181.9814     363.6736      3.249    11.32     1206.264     64.10977     190.7518        36     2.483     1.438  69.85   3
       106    118.4876    775.8503 307.8608289  +6.3625486     1149.251     2332.543     2696.907     91.17122     181.6921     363.8544      2.424     6.72     1206.077     64.10977     143.9235        13     1.336     1.005  55.37   3
       107    787.8513    786.6630 307.5820740  +6.3803763     791.2805     1665.309     1673.595     91.17122     181.8368     363.6736      2.451     4.12     1198.137     64.10977     127.9158         8     1.100     0.616 -74.44   2
       108    701.0196    819.2827 307.6170903  +6.3640146     13419.12      30104.4     35100.84     90.73741     181.5473     363.6375      2.342     5.16     1201.705     64.10977     1297.464        66     1.990     1.597 -62.39   3
       109    912.8511    781.5119 307.5302570  +6.3866516     4512.778     8582.523     9964.568     91.17122     181.6921     363.8544      2.077     4.48     1196.915     64.10977     465.6718        37     1.642     1.305 -72.65   0
       110    961.9957    781.6053 307.5098133  +6.3882420     1208.015     2048.812     2911.187     90.44705     181.5473     363.5652      1.845     6.59      1195.64     64.10977     136.6625        15     1.234     0.987  68.72   0
       111    694.7883    816.0556 307.6197906  +6.3651409     53445.96     121017.3     138294.3     90.44705     181.8368      363.348      2.309     5.04     1201.711     64.10977     5175.031       106     2.031     1.721 -66.60   3
       112    668.3793    779.0771 307.6320198  +6.3795422     1169.324      2738.91     3214.879     90.73741     181.6197     363.6736      2.416     9.95     1200.237     64.10977     129.0089        25     2.069     1.334 -55.58   0
       113    936.3257    772.6603 307.5207907  +6.3910872      2295.61     4139.268     4124.779     91.45928     181.9091     363.7098      1.948     4.29     1195.933     64.10977     273.1375        24     1.371     1.116 -63.53   0
       114    967.1817    772.4888 307.5079625  +6.3921807      1284.09     2505.992      2368.09     90.88224     181.6197     363.6013      2.014     5.23     1194.975     64.10977     175.1013        15     1.316     0.879 -48.94   0
       115    555.2214    778.1639 307.6791144  +6.3761565      1401.95     3106.319     3382.431     90.59235     181.6197     363.4204      2.173     8.58     1201.807     64.10977     161.5596        24     1.595     1.338  33.96   0
       116    232.6466    769.3876 307.8135703  +6.3690318     1445.303     3784.378     7215.794     90.44705     181.6921     363.4204      6.813    10.60     1206.908     64.10977     164.5299        35     2.253     1.391  66.76   0
       117    806.7920    770.2148 307.5747495  +6.3878012     713.5576     1415.662     1890.026     90.73741     181.6197      363.529      2.251     4.49     1196.802     64.10977     79.76367         5     0.773     0.742  30.37   0
       118    951.4332    760.6256 307.5149113  +6.3965606     1930.478      3386.36       3622.6     90.59235     181.6921     363.4928      1.889     5.01     1194.823     64.10977     230.4553        22     1.490     0.985 -81.63   0
       119    906.8898    773.2196 307.5330151  +6.3898803     2213.744     4091.755     4496.544     91.02685     181.6197      363.529      1.972     5.47     1196.383     64.10977     236.0447        26     1.442     1.203 -51.95   0
       120   1023.8062    754.9208 307.4850003  +6.4013154     2146.896     2986.189     2734.945     76.76057     141.7623     270.7589      1.287     4.45     1192.818     64.10977     523.6715        11     1.515     0.390 -87.56  24
       121    992.8626    754.3837 307.4978890  +6.4005124     1337.277     2537.833     2360.704     90.59235     181.8368      363.529      1.971     6.31     1193.486     64.10977     151.0337        19     1.489     1.072 -81.03   0
       122    794.9418    752.3561 307.5802791  +6.3947868     712.6447     1395.589     1398.965     91.02684     181.8368     363.7821      2.093     6.37     1195.632     64.10977     105.5833         6     1.447     0.788 -30.64   0
       123    881.0320    749.5533 307.5445657  +6.3988014     1036.788     2234.038       2937.1     90.73741     181.9091     363.6013      2.377     7.20     1195.009     64.10977     135.2858        14     1.276     1.138  70.52   0
       124    837.5711    741.5151 307.5629129  +6.4006809     1205.562      2628.95     2385.672     91.17122     181.5473      363.529      2.192     7.19     1194.679     64.10977     167.3673        19     1.751     1.159  82.02   0
       125     37.0353    740.7971 307.8958915  +6.3743081     1494.886     3518.224     3738.797     90.15575     181.6921     363.4566      2.408     6.89     1205.086     64.10977     165.5153        25     1.495     1.365  87.63   0
       126    649.4365    728.9555 307.6415872  +6.3996220     3400.306     8107.663      8675.38     90.88224     181.8368     363.5651      2.347     5.82     1197.194     64.10977      344.332        42     1.731     1.555 -82.04   0
       127    597.5112    728.5909 307.6631968  +6.3980459     725.8407     1863.184     2854.131     90.73741     181.5473     363.4566      3.032     7.07     1197.705     64.10977     94.91406         9     1.503     0.932  83.86   2
       128    509.5807    728.7916 307.6997626  +6.3950370     560.2717     709.4316     790.3592     90.88224     181.6197      363.529      1.729     3.79     1200.062     64.10977     106.8556         5     0.815     0.685 -17.45   0
       129    112.6003    725.1295 307.8649954  +6.3833080     1918.182     4739.166      5603.21     90.59235     181.3298     363.4928      2.518     5.71      1204.54     64.10977     248.3699        37     1.628     1.596   8.73   0
       130    986.3441    723.9548 307.5016222  +6.4128694     1829.752     3368.573     3568.955     91.17122     181.9091     363.7098      1.871     4.24     1192.102     64.10977     286.5862        22     1.395     1.085 -79.67   0
       131    622.0000    724.9617 307.6531335  +6.4003599     890.9452     2488.796     2761.613     90.00975     181.6197     363.4566      2.311     5.91     1197.193     64.10977     114.6136        10     1.514     0.649 -83.78   2
       132    766.2946    720.9709 307.5932507  +6.4068037      12257.1     27257.97     31185.77     91.31536     181.6197     363.6013      2.321     5.16      1193.89     64.10977     1188.711        67     1.926     1.637 -70.60   0
       133    896.3566    720.8017 307.5391580  +6.4111895      2594.33     5307.842      5574.35     90.44705     181.5473      363.348      2.044     5.56     1192.968     64.10977     281.7014        29     1.494     1.310 -72.70   0
       134    465.1392    721.0834 307.7185070  +6.3967421     792.7515     1764.197     1236.237     91.31536     181.9814      363.746      1.987     5.24      1201.16     64.10977     108.3358         7     1.262     0.614  24.31   0
       135    240.0742    714.9507 307.8123229  +6.3917714     3070.488     7892.629     10110.83     91.17122     181.9814      363.746      2.731     6.16     1203.046     64.10977     345.1503        50     1.915     1.680 -57.24   0
       136    646.8453    713.8892 307.6431726  +6.4057609     3759.658     9291.846     10683.22     91.17122     181.7645     363.8544      2.418     5.82     1196.208     64.10977     337.9747        50     1.858     1.623 -69.01   0
       137    906.5942    706.0657 307.5353950  +6.4176177     898.1333      1575.61     1706.769     90.59235     181.6197     363.4928      1.822     5.99     1191.903     64.10977     126.7068        12     1.185     0.852 -61.71   0
       138    718.5020    702.3123 307.6137577  +6.4129257     2153.091     4998.636     5701.326     91.17122     182.4146      363.746      2.295     6.86     1193.605     64.10977      234.488        34     1.658     1.503 -76.30   0
       139    984.8080    698.7031 307.5031092  +6.4232523      6756.44     12631.13     13936.85     90.88224     181.4748     363.4928      2.018     4.25      1190.57     64.10977     760.1094        45     1.667     1.393 -60.56   0
       140    923.2591    699.3201 307.5286899  +6.4209574     1612.767     3293.032     3250.878     91.31536     181.9091     363.6736      2.197     5.86     1191.284     64.10977     174.2791        26     1.562     1.249 -89.30   0
       141    674.2028    701.7363 307.6322031  +6.4116917     554.3201     1188.996     797.1785     90.44705     181.6921     363.4566      2.102     5.13     1195.012     64.10977     89.69128         6     1.114     0.668  81.72   0
       142      2.7116    700.2175 307.9115423  +6.3899258     982.8678     2320.708     2886.323     90.88224     165.6366     298.3964      2.668     6.64      1203.94     64.10977     144.4897        12     1.845     0.670 -85.94  18
       143     62.4102    694.0806 307.8869216  +6.3944583     13629.23     33937.88     39871.83     90.73741     181.5473      363.529      2.487     5.62     1203.702     64.10977      1528.28        85     2.083     1.857 -81.07   0
       144    524.1094    694.6977 307.6948700  +6.4096076      1092.53     2597.811     2832.374     91.17122     182.4146     363.7098      2.317     7.05     1197.931     64.10977     131.2607        18     1.522     1.247 -47.75   0
       145    492.9264    691.4739 307.7079490  +6.4099014     627.1426     1418.726     1636.832     91.45928     182.1981     363.8183      2.036     5.12     1198.587     64.10977     100.2817         7     1.755     0.422   9.00   0
       146    913.9290    689.9904 307.5328844  +6.4245030     625.5417     1232.515     1728.439     90.59235     181.4748      363.529      2.234     3.12     1190.771     64.10977     96.58972         5     0.631     0.594  -0.85   0
       147    708.1128    685.9052 307.6186316  +6.4193598     2075.952     4562.753     5046.475     91.17122     182.3424     363.7821      2.235     5.89     1192.944     64.10977      216.577        32     1.694     1.313 -74.93   0
       148    730.1797    684.3227 307.6095062  +6.4207467     2326.562     5249.884     6046.035     90.73741     181.6197     363.6736      2.306     5.67     1192.229     64.10977     238.3723        32     1.558     1.394  71.68   0
       149    561.8953    682.1165 307.6795778  +6.4160634      1824.96     4408.664     5214.964     91.02685     182.3424     363.8183      2.318     8.84     1196.335     64.10977     213.2596        28     1.562     1.398 -76.13   0
       150   1002.9843    680.2448 307.4961684  +6.4314812     3511.953     6879.694     7350.285     90.59235     181.6921     363.4566      2.024     4.74     1189.227     64.10977     373.2081        32     1.597     1.254 -61.21   0
       151    222.6936    681.7701 307.8206744  +6.4049004     981.0488     2452.175     3091.368     91.31536     181.6197     363.6013      2.635     8.11     1200.998     64.10977      121.923        17     1.773     1.036 -65.57   0
       152    968.4253    679.0786 307.5105828  +6.4308181     5779.316     11232.34     12302.28     90.88224     181.8368     363.6736      2.085     4.64     1189.489     64.10977     636.0167        45     1.708     1.423 -73.05   0
       153    304.6131    680.2319 307.7866541  +6.4082700     603.5565     1321.883     1749.126     90.59235     181.6197     363.6375      2.060     4.45     1200.814     64.10977     87.71277         5     1.205     0.467 -29.92   0
       154    688.1691    677.6083 307.6272066  +6.4221252       606.62     1504.726     1243.466     90.59235     181.6921     363.4566      2.117     5.34     1192.949     64.10977     80.64136         5     1.411     0.570  39.09   0
       155    127.1630    673.0278 307.8607035  +6.4053213     12133.83     31594.23     37437.86     90.59235     181.5473     363.4566      2.520     5.82      1201.97     64.10977     1331.362        83     2.110     1.821 -72.43   0
       156    414.0088    673.6107 307.7413767  +6.4146533     1436.064     4081.206     4918.882     90.59235     181.6921     363.6375      2.538     9.59     1200.041     64.10977     178.0702        33     1.760     1.512 -62.14   0
       157    794.6249    673.8466 307.5830526  +6.4272154     794.2147     1548.801       1867.7     90.73741     181.9091     363.5651      1.749     5.69     1191.001     64.10977     97.09998        10     1.345     0.679 -89.72   0
       158    963.4090    662.1601 307.5132378  +6.4376424     5008.409     10231.15      11583.1     90.44705     181.6921     363.4204      2.198     4.41     1188.333     64.10977     601.9226        47     1.655     1.572 -62.40   0
       159   1018.6707    657.2032 307.4904171  +6.4415214     68209.87     130132.5     143221.2     90.59235     181.4748     348.3043      2.032     4.34     1186.806     64.10977     7969.228       105     1.891     1.555 -70.83  24
       160    557.0387    657.5483 307.6824265  +6.4260529     23813.69     62714.62     73751.11     90.88224     181.9091     363.6736      2.539     5.96     1195.406     64.10977      2276.03        98     2.126     1.878 -64.19   0
       161      8.6047    661.2565 307.9104126  +6.4062202     913.2635     1642.591     1585.992     90.44705     181.7645     363.3842      2.065     6.08     1203.001     64.10977     113.9418         9     1.155     0.900 -41.78   0
       162    164.6675    654.3802 307.8457360  +6.4142791     1242.436     3277.199     2948.634     90.73741     181.9091     363.6013      2.480     8.92      1200.17     64.10977     128.2261        26     1.649     1.347 -60.00   0
       163     59.0214    648.1796 307.8898868  +6.4133096     625.3448     1145.204     1665.452     90.88224     181.8368     363.6375      2.283     3.84     1201.989     64.10977     90.61279         5     0.834     0.506  56.19   0
       164    454.3374    641.4239 307.7256893  +6.4292958     29681.12     81525.54      97144.2     90.73741     181.9091     363.6013      2.625     6.16     1196.635     64.10977     3007.302       109     2.180     1.956 -69.60   0
       165    128.6001    637.0406 307.8613247  +6.4202381      777.762     1682.557      1592.91     90.30152     181.4748     363.3118      2.401     7.50      1200.14     64.10977     121.1189        10     1.704     0.924  67.30   0
       166    299.6386    631.3928 307.7903747  +6.4282830     1004.561     2841.536     3443.565     90.30152     181.6197     363.3842      2.625     9.73     1197.937     64.10977     129.0449        21     1.720     1.534  37.77   0
       167    726.2980    624.8597 307.6131231  +6.4451869     2773.264     6872.369     7539.248     90.88224     181.8368     363.8544      2.395     6.11     1189.144     64.10977     262.9417        43     1.765     1.592 -74.16   0
       168    779.7816    620.0370 307.5910378  +6.4489559     7736.971     18117.92     20497.11     90.73741     181.6921     363.4566      2.367     5.23     1188.505     64.10977      790.854        61     1.932     1.654 -70.45   0
       169    997.3943    620.8151 307.5004895  +6.4558518     694.8322     1354.407     1375.334     90.73741     181.5473      363.529      2.099     6.28     1183.661     64.10977      109.626         8     1.335     0.831 -47.25   0
       170   1019.6965    618.9941 307.4912733  +6.4573430     1442.495     2899.371     3768.214     90.88224     181.5473     336.6294      2.388     5.26     1182.319     64.10977     168.6268        23     1.465     1.152 -26.73  16
       171    603.6526    618.2099 307.6643637  +6.4438576      1495.64     3789.218     4184.016     90.44705     181.7645     363.4204      2.447     8.64     1191.964     64.10977     171.3989        26     1.619     1.286 -26.28   0
       172    855.8080    603.1904 307.5599793  +6.4584400     1628.621     3679.976     4050.095     90.59235     181.6921     363.6013      2.342     6.69     1187.488     64.10977      185.292        25     1.522     1.253  54.61   0
       173    814.6461    600.7745 307.5771832  +6.4580723      1523.32     3078.253     4330.821     90.73741     181.9814     363.5651      2.517     6.58     1187.493     64.10977     201.6373        20     1.473     1.023 -30.42   0
       174    242.9235    595.8866 307.8151663  +6.4410603     3720.677     10011.53     12443.45     91.17122     182.2703     363.7821      2.706     6.29     1197.595     64.10977     396.9366        56     2.046     1.720 -87.06   0
       175    795.0872    591.9833 307.5856152  +6.4610554     86958.71     210290.6     243989.9     90.88224     181.6197     363.6013      2.434     5.55      1187.25     64.10977     8779.886       171     2.388     1.913 -44.46   0
       176    176.9160    590.5635 307.8428023  +6.4410553     26738.27     75083.38     93272.96     91.17122     181.9091     363.6736      2.706     6.37     1198.087     64.10977     2525.751       128     2.345     2.015 -72.59   0
       177    100.8850    586.9496 307.8745495  +6.4400075     2897.359     8248.866     10311.93     91.17122     181.8368     363.7821      2.691     6.54     1197.782     64.10977     339.5215        54     1.965     1.806 -79.62   0
       178    965.9171    583.2961 307.5148440  +6.4703112     898.8976     1739.076     1878.902     91.02685     182.3424     363.8183      2.050     5.72     1183.108     64.10977     114.3256         9     1.162     0.793   4.42   0
       179    831.6055    579.3299 307.5708498  +6.4674958     2660.412     5660.516     6197.634     90.59235     181.4748      363.529      2.226     5.10     1186.427     64.10977     310.3232        32     1.524     1.379 -67.16   0
       180    350.3573    577.6525 307.7710950  +6.4521788     7435.255     21908.51     26741.13     91.17122     181.9814      363.746      2.717     6.68     1194.302     64.10977     782.5897        74     2.136     1.893 -73.97   0
       181    153.2976    576.6306 307.8530982  +6.4460228     886.8698     1947.964      3226.93     91.31536     181.6197     363.7821      2.773     5.39     1197.639     64.10977     113.9136         9     1.240     0.661 -87.80   0
       182    785.5427    572.6974 307.5902347  +6.4687072     3091.333     7436.802     8370.989     91.02685     181.8368     363.9267      2.410     6.10     1186.614     64.10977     297.6172        41     1.827     1.436 -63.45   0
       183    516.5970    572.4820 307.7021188  +6.4598544     2900.789     8319.688     10321.09     90.44705     181.4748     363.3842      2.714     6.72     1191.201     64.10977     299.3864        56     2.014     1.800  85.59   0
       184    163.7328    565.6031 307.8491311  +6.4509276     2942.344      8461.19     9954.393     90.44705     181.5473     363.4928      2.621     6.62      1197.28     64.10977     344.5992        53     2.000     1.672 -70.38   0
       185     35.4199    564.5811 307.9025376  +6.4470600     2577.985      6443.99     7469.605     90.88225     181.8368     363.6375      2.468     6.03      1197.53     64.10977     279.4431        44     1.879     1.526 -84.00   0
       186    561.7807    564.5689 307.6835904  +6.4646279     1174.063      2780.37     3392.632     90.59235     181.6921     363.5652      2.477     7.86     1189.864     64.10977     120.9814        18     1.725     1.002  50.00   2
       187    258.9828    562.1623 307.8096274  +6.4555303     37034.29     109610.5     133969.2     90.73741     181.7645     363.4204      2.706     6.70     1195.572     64.10977     4326.913       126     2.278     2.020 -69.06   0
       188    803.0019    564.7132 307.5832405  +6.4725858     728.2901     1646.847     1392.405     90.44705     181.4748     363.3842      2.367     6.22     1186.221     64.10977     98.35742         7     1.411     0.772  55.60   0
       189    781.9933    554.2770 307.5923312  +6.4762004     8313.765     20634.95     23945.57     90.73741     181.3298      363.529      2.445     5.54     1185.937     64.10977     844.5262        62     1.960     1.677 -73.43   0
       190    958.7315    555.1481 307.5187789  +6.4817035     993.2822     1987.768     2586.062     91.02685     181.7645     363.6375      2.431     6.30     1182.151     64.10977     164.8553        11     1.349     0.993  84.53   0
       191    485.6672    552.8590 307.7156473  +6.4669323     19017.08     53802.54     67563.98     91.31536     181.8368     363.7098      2.755     6.18     1190.709     64.10977     1630.991       110     2.234     2.118 -47.40   0
       192    198.6262    547.7996 307.8352196  +6.4594491     679.0388     2000.946     3033.935     90.73741     181.5473     363.4928      3.161     7.60     1196.108     64.10977     102.9698        10     1.548     1.043   0.77   2
       193    645.3686    547.8820 307.6493816  +6.4743031     1398.717     3803.661     4786.101     91.02685     181.7645     363.7098      2.991     9.12     1187.394     64.10977     150.7125        35     1.853     1.451 -47.53   0
       194    559.0253    566.9920 307.6846548  +6.4635350     819.0588     1630.348     2745.077     90.73741     181.6921      363.529      3.182     5.99     1190.066     64.10977     123.7385         8     1.227     0.821 -59.78   3
       195    708.1703    548.6221 307.6232316  +6.4760847     641.5944     1354.752     1476.256     90.44705     181.6197     363.4928      2.332     3.47     1186.472     64.10977     81.58069         5     0.781     0.446 -17.34   0
       196    384.7509    542.4844 307.7579769  +6.4678561     675.1887      1910.62      1999.36     91.17122     181.9091     363.7821      2.890     5.27     1192.114     64.10977     95.29016         6     1.506     0.521 -21.04   2
       197    130.0082    540.6761 307.8640034  +6.4600996     11512.69     32354.41     39444.44     90.73741     181.3298     363.4566      2.652     6.27     1195.932     64.10977     1388.992        91     2.210     1.930 -75.53   0
       198    314.8085    541.7787 307.7870951  +6.4658151     1629.773      4988.49     6071.755     90.73741     181.6921     363.4566      2.687     8.33     1193.166     64.10977     180.8834        41     1.797     1.727 -51.05   0
       199    857.3721    540.4832 307.5614378  +6.4844017     927.9168     2115.769     2450.903     91.02685     181.6921     363.6375      2.244     6.83     1184.011     64.10977     133.9713        13     1.816     1.017 -60.95   0
       200    495.3414    540.8431 307.7120287  +6.4722192     943.4525      2540.01     2775.495     91.02685     181.9091     363.8183      2.507     8.70     1189.708     64.10977     116.1492        17     1.706     1.256 -37.91   0
       201     96.5417    539.5427 307.8779626  +6.4594492     1316.269     3069.611     4171.269     91.31536     181.9091      363.746      3.081     9.82     1195.623     64.10977     153.0354        25     1.983     1.356  57.67   2
       202    955.3066    534.5447 307.5208960  +6.4901030     3273.604     6630.386     7090.625     91.02685     181.9091     363.9267      2.181     4.88     1181.335     64.10977     358.3782        37     1.687     1.361 -75.29   0
       203    529.2418    527.4025 307.6983801  +6.4789012     765.1965     1788.015     1964.528     90.44705     181.5473     363.3842      2.283     6.65     1187.862     64.10977     119.8508         9     1.756     0.706  84.14   0
       204    426.9995    521.6692 307.7411055  +6.4778647     17592.72     52950.32     64716.21     90.59235     181.3298     363.4928      2.730     6.83     1189.526     64.10977     1899.478       102     2.250     1.991 -67.73   0
       205    634.9315    521.1508 307.6546245  +6.4850008     5589.219      15115.2     17943.02     91.02685     181.8368     363.7098      2.610     6.20     1185.698     64.10977      513.139        64     2.057     1.766 -72.40   0
       206    192.2712    519.3408 307.8388267  +6.4709951     8587.975     24990.86     30205.82     91.31536     181.9091     363.7821      2.701     6.63     1193.344     64.10977      900.817        82     2.142     1.967 -84.80   0
       207    158.2859    521.0355 307.8529062  +6.4691595     735.4212     1902.577     2122.724     91.17122     181.7645     363.7098      2.482     6.99     1194.105     64.10977     94.38867        10     1.601     0.855 -35.91   0
       208    968.1110    519.8286 307.5160637  +6.4966079     726.2205     1334.698     1321.989     91.31536     181.6197     363.6013      1.753     5.63     1180.141     64.10977     97.00525         8     1.394     0.641 -61.54   0
       209    556.4940    518.2432 307.6873524  +6.4835928     1164.636     3483.927     3548.657     91.17122     181.8368     363.8544      2.593     9.90      1186.74     64.10977     164.1061        30     1.754     1.557 -50.62   0
       210    930.4911    514.8574 307.5318812  +6.4974150     2892.258     5994.485     6735.862     91.02685     181.8368     363.8183      2.124     5.01     1181.259     64.10977     314.1847        35     1.672     1.319 -75.27   0
       211    603.8156    513.6320 307.6678222  +6.4870725     3088.087      8542.33     10333.61     90.73741     181.6197     363.6013      2.646     6.65     1185.616     64.10977     294.9055        49     1.912     1.680 -57.96   0
       212    953.1603    507.1300 307.5227101  +6.5013593     2085.222     4578.571     4657.018     91.02684     181.9091     363.7821      2.190     5.67     1180.042     64.10977     258.6134        33     1.547     1.494 -73.19   0
       213    514.8275    505.8163 307.7051049  +6.4873403      2787.66     5810.352     6722.693     90.73741     181.6197     363.6013      2.235     6.94     1186.333     64.10977     318.8229        28     1.916     1.020  67.05   3
       214    517.5285    504.0513 307.7040409  +6.4881595     2952.641     5844.516     6726.639     91.02685     181.9091      363.746      2.124     6.49     1186.141     64.10977     341.3225        27     1.752     1.039  58.19   3
       215    363.1057    504.5408 307.7682634  +6.4828117      1101.67     2795.457     4203.489     91.02684     181.9091     363.8544      2.956     7.72     1188.506     64.10977       128.37        17     1.684     0.989  69.90   0
       216    872.1693    500.3098 307.5566332  +6.5014917     1730.392     3896.769     4584.594     91.31536     181.6921     363.6736      2.261     7.52     1181.485     64.10977     209.7155        30     1.931     1.164 -52.50   0
       217    879.6968    494.7933 307.5536871  +6.5040207     1254.109     2558.433      2319.53     90.88224     181.4748     363.4204      2.096     7.61     1181.091     64.10977     151.0315        18     1.326     1.223  -8.74   0
       218    918.7950    492.8311 307.5374874  +6.5061282     741.2263     1362.595     1606.505     90.44705     181.7645     363.4566      1.953     7.11     1180.418     64.10977     102.3596         9     1.449     0.977 -36.81   0
       219    702.6227    490.6424 307.6274926  +6.4998566       1318.1     2705.759     3232.131     90.73741     181.7645     363.4928      2.277     7.07     1182.769     64.10977     187.0685        18     1.789     0.893 -82.81   2
       220    705.4673    490.1086 307.6263272  +6.5001717     972.8021     1633.953     2043.564     91.02685     182.0537      363.746      1.978     5.44     1182.683     64.10977     155.3148         9     1.318     0.633 -66.58   3
       221    373.6813    491.0092 307.7643214  +6.4887552     1181.474     1928.609     2980.827     90.73741     181.4748      363.529      1.928     5.99     1186.957     64.10977      153.326        13     1.490     0.678  51.74   3
       222    376.1470    488.6775 307.7633745  +6.4898009     1594.493      3492.54     4531.325     91.31536     181.9091     363.7098      2.697     8.84     1186.727     64.10977     183.0347        24     1.800     1.221  48.16   2
       223     66.3343    488.4768 307.8922588  +6.4795375      826.743     1725.661     2240.388     91.31536     181.9091     363.6736      1.889     4.83     1193.354     64.10977     110.3392         6     1.522     0.434   9.74   2
       224    601.0000    485.5602 307.6699402  +6.4985776     3677.537     7887.324     9860.374     90.00975     181.4748     363.3118      2.343     7.30     1183.802     64.10977     411.8577        35     2.185     1.002 -87.86   3
       225    604.0000    485.0420 307.6687096  +6.4988915     3682.919     7057.047     8634.257     90.30152     181.4748     363.2394      2.076     7.10     1183.693     64.10977      413.851        28     1.934     0.974  88.86   3
       226    765.3335    482.0402 307.6016937  +6.5054942       8300.1     21362.93     26787.46     91.17122     181.8368     363.8183      2.647     6.21     1181.792     64.10977     785.5779        83     2.404     1.763 -59.53   0
       227    285.8494    482.1397 307.8011588  +6.4894899     1261.353     3337.606     4004.482     91.17122     181.8368     363.7821      2.656     9.21     1186.785     64.10977     151.4486        23     1.922     1.231  43.00   2
       228    366.5470    479.0945 307.7676920  +6.4934402     632.1409     1857.781     2597.152     91.02684     181.7645      363.999      2.446     4.50     1185.873     64.10977     94.33264         5     1.400     0.411 -77.90   0
       229    950.2170    476.8042 307.5249538  +6.5137920     1094.463     2371.067     2035.158     90.73741     181.5473      363.529      2.099     7.17     1178.641     64.10977     141.8267        16     1.220     1.180  54.68   0
       230    103.7367    474.2780 307.8771815  +6.4866547     2122.202      4405.85     5784.659     91.45928     181.9814     363.7098      2.496     7.24     1192.207     64.10977      255.816        28     1.715     1.367 -84.81   3
       231    101.0000    474.9662 307.8782966  +6.4862789     1406.737     2691.627     3499.646     90.00975     181.6197     363.3842      2.024     6.32     1192.407     64.10977     177.6433        13     1.768     0.634 -86.27   3
       232    740.6029    473.1726 307.6122807  +6.5083367     1253.512     3094.613      2996.44     90.59235     181.6197     363.4928      2.355     8.56     1181.247     64.10977     155.8353        25     1.544     1.324 -86.20   0
       233   1004.0563    471.8521 307.5027214  +6.5176223     2726.233     6255.848     6814.664     91.17122     181.9091     363.6736      2.355     5.33     1176.081     64.10977     296.8157        37     1.632     1.475 -89.46   0
       234    339.4415    469.6509 307.7792871  +6.4964380     1329.203     3748.812     4433.467     91.17122     181.9091     363.7098      2.731     9.72     1185.454     64.10977     151.5341        25     1.925     1.369 -32.94   2
       235    261.6322    471.4462 307.8115948  +6.4930998     750.1497     1709.195     2057.483     90.88225     181.9091     363.6013      2.718     3.69     1186.678     64.10977     125.0751         6     1.197     0.489  -4.79   0
       236    694.4990    466.6241 307.6316815  +6.5095105     748.0014     2013.013     2558.189     91.31536     181.6197     363.4928      2.692     7.84     1181.225     64.10977     117.2111        13     1.476     1.165  -6.50   0
       237    805.0770    455.9176 307.5860388  +6.5176073      1160.25     2205.726      2260.44     91.31536     182.1981     363.8544      1.923     5.89     1179.985     64.10977     152.4316        13     1.378     0.806  64.86   2
       238    808.3386    455.0141 307.5847123  +6.5180889     637.5498     1185.187     1278.538     90.59235     181.7645     363.4566      2.164     4.00      1179.87     64.10977     99.22974         5     0.685     0.669   1.83   3
       239    703.5707    453.9503 307.6283344  +6.5150486     6802.453     18793.72     22358.03     90.73741     181.9814     363.6013      2.592     6.14     1180.247     64.10977     674.8289        70     2.042     1.838 -73.51   0
       240    623.5764    450.2982 307.6617371  +6.5138981     1107.035     2900.526     3926.474     91.31536     181.6197      363.529      2.905     7.78     1180.902     64.10977     135.5956        17     1.713     0.988  74.13   0
       241    597.0407    445.1867 307.6729490  +6.5151273     6962.819     20295.83     29330.33     90.59235     181.6921     363.4204      3.129     7.66     1180.766     64.10977     783.0392       105     2.666     2.104  38.33   0
       242    928.8426    443.5913 307.5349626  +6.5268065     2362.508      5008.82     5492.397     90.59235     181.6921     363.4204      2.151     5.50     1177.577     64.10977     277.1062        31     1.570     1.362 -71.39   0
       243    368.0633    440.0475 307.7683811  +6.5096239     11675.51     35516.42     44187.39     91.02685     181.7645      363.746      2.769     6.90     1182.727     64.10977     1348.587        93     2.283     1.981 -72.26   0
       244    115.3652    440.1848 307.8734996  +6.5011296     1063.713      2865.93     3650.363     90.73741     181.6197      363.529      2.762     6.97     1189.759     64.10977     171.6053        15     1.645     0.828 -56.15   2
       245    883.5577    439.5703 307.5539381  +6.5269661      979.053      2196.81     2987.503     90.73741     181.8368      363.529      3.059     6.69     1177.721     64.10977     103.1832        15     1.797     0.699 -33.52   2
       246    883.0000    435.9843 307.5542908  +6.5284293     494.7495     1195.997     2526.837     90.59235     181.4748     363.3842      2.885     3.99     1177.478     64.10977     85.79346         5     1.195     0.381  82.25   3
       247    897.5617    434.0760 307.5482967  +6.5297008     2843.063     6439.504     6897.297     91.02684     181.9814     363.7098      2.269     5.71     1177.238     64.10977     278.4812        38     1.724     1.468 -70.84   0
       248     48.7612    436.1434 307.9013433  +6.5005718     815.0643     1535.048     2454.931     91.17122     181.9814     363.7098      2.801     6.04      1191.51     64.10977     101.9347         9     1.319     0.778 -87.75   0
       249    225.6792    430.6741 307.8279312  +6.5087451     5786.016     17361.83     21636.18     91.45928     182.1981     363.7821      2.790     7.06      1184.28     64.10977     660.4463        73     2.176     1.913 -77.75   0
       250    125.8973    419.3124 307.8698256  +6.5101054     2312.629     6672.157     8325.181     91.17122     182.4146      363.746      2.765     7.43     1188.299     64.10977     272.6501        51     2.049     1.720  63.16   0
       251    149.2858    415.6886 307.8602187  +6.5123844     1169.838     3008.111     4141.593     90.88225     182.1981     363.8544      2.902     8.58     1187.609     64.10977     147.3302        16     2.081     0.987 -47.61   2
       252    372.0968    409.6884 307.7677294  +6.5223019      933.488     2329.201     2261.555     91.17122     182.4146      363.746      2.595     6.59     1180.171     64.10977     121.5426        10     1.269     0.961 -35.16   0
       253    958.2391    410.1244 307.5238573  +6.5416091     691.5047     1284.861      1420.07     91.02685     181.9091     363.7821      2.081     4.69     1173.768     64.10977     101.0953         5     1.127     0.720  11.34   0
       254    425.3159    403.4492 307.7457998  +6.5266540     2853.929     9045.496     11468.44     91.17122     181.9091     363.8183      2.881     7.72     1178.452     64.10977     349.9515        59     2.184     1.763 -53.12   0
       255     21.7772    404.7355 307.9136337  +6.5126454     1602.494     4295.848     5417.222     90.73741     181.9091     363.5652      2.746     7.30     1191.519     64.10977     242.7421        36     1.911     1.599 -56.88   0
       256    765.6487    400.5944 307.6043050  +6.5391567     6225.981     16596.91     19625.39     90.44705     181.6921      363.348      2.559     6.04     1176.346     64.10977     579.6547        63     1.988     1.765 -63.77   2
       257    758.3352    402.5610 307.6072815  +6.5381012     1003.073     2580.635     3476.002     91.17122     181.8368     363.8183      2.843     8.03     1176.436     64.10977      116.455        16     1.447     1.245 -53.54   3
       258   1009.5664    395.4490 307.5029954  +6.5493736     2612.985     5206.037     5967.269     91.02685     181.9091     363.6375      2.133     5.19     1169.327     64.10977     289.0374        28     1.499     1.269 -60.98   0
       259    471.7039    388.7052 307.7269990  +6.5342915      1001.02     2089.531     2795.981     91.17122     182.6307     363.5652      2.168     7.85     1176.349     64.10977     135.4492        15     1.896     0.909  67.22   3
       260    475.2851    386.7694 307.7255745  +6.5352106     1187.008     2616.854       3367.5     91.17122     181.6921     363.5652      2.925    10.09     1176.102     64.10977     164.6415        21     2.260     1.256  45.22   2
       261    446.9897    387.0038 307.7373384  +6.5341711     961.0258     2315.674     2682.178     90.59235     181.5473     363.6013      2.769     7.05     1176.731     64.10977      116.297        13     1.457     0.956 -84.41   2
       262    831.0451    383.4374 307.5776743  +6.5484169     17439.63      43384.2     51543.77     90.88224     181.9091     363.6013      2.508     5.67     1174.623     64.10977     1734.917        87     2.164     1.763 -72.51   0
       263    687.5114    369.4995 307.6378615  +6.5494083     36390.35     99870.43     119519.8     91.17122     182.4146     363.6736      2.647     6.20     1174.672     64.10977     3302.713       116     2.229     1.946 -64.94   0
       264    603.1227    376.4966 307.6727355  +6.5437109     1084.161     3179.417     3813.006     90.88224     182.1259     363.7821      2.662     9.78     1174.949     64.10977     142.6949        26     1.779     1.501  75.13   0
       265    550.9030    367.0089 307.6947814  +6.5458933     1161.477      2685.11     3162.216     90.88224     181.4748     363.4928      2.510     7.34     1174.103     64.10977     139.0333        18     2.116     0.713 -63.06   2
       266    548.6960    365.5764 307.6957480  +6.5464117      892.559     1767.463     2116.257     91.31536     181.6197     363.5651      2.150     5.52     1174.011     64.10977     141.2817         8     1.477     0.898 -71.99   3
       267     67.5542    369.7491 307.8957768  +6.5286320      697.476     1547.723     1595.906     91.31536     181.7645      363.746      2.325     6.10     1188.726     64.10977     99.89343         7     1.533     0.684 -22.43   0
       268     87.4670    365.4033 307.8876401  +6.5310935     2793.878     7937.375     9235.283     90.44705     181.5473     363.4928      2.647     7.31     1187.984     64.10977     352.8827        51     2.084     1.694 -68.69   0
       269    532.3943    362.8264 307.7026231  +6.5470052     2923.744     6718.778     8233.228     90.59235     181.6921     363.4928      2.458     6.82      1173.74     64.10977     273.8291        34     2.129     1.142  81.53   3
       270    535.2648    362.0094 307.7014564  +6.5474383     2535.634     4214.936      5226.84     90.59235     181.6921     363.5651      1.820     5.37     1173.649     64.10977     296.6096        23     1.626     0.938  84.40   3
       271    396.2365    357.8079 307.7594402  +6.5445423     10135.48     31691.13     40047.38     90.44705     181.6921     363.4204      2.827     7.02     1175.438     64.10977     1068.065        90     2.275     1.979 -71.52   0
       272    263.9797    360.4112 307.8143757  +6.5390543     1114.071     2873.162     3780.982     90.73741     181.5473     363.6013      2.861     7.39     1179.693     64.10977     134.9691        16     1.630     0.938  89.81   2
       273    505.4321    354.2207 307.7141312  +6.5496630     562.5458     1093.992     1823.826     90.59235     181.6921      363.529      2.685     4.47     1172.924     64.10977     80.73291         5     1.181     0.480  32.31   0
       274    485.2892    348.1549 307.7227164  +6.5514984     3352.177     10629.35     13277.79     91.17122     181.7645     363.7821      2.892     7.47     1172.482     64.10977     337.2703        58     2.054     1.822 -67.18   0
       275    753.2517    347.3426 307.6112562  +6.5607475     1371.651     2757.621     3686.723     91.17122     181.9091     363.7098      2.394     6.45     1172.913     64.10977     167.2258        19     1.518     1.002  62.79   2
       276    755.8655    345.4301 307.6102331  +6.5616246     1047.268     2150.299     2957.701     90.88224     181.9091     363.6375      2.353     6.00     1172.732     64.10977     185.6973        11     1.613     0.629  34.95   3
       277    375.1442    332.4425 307.7690730  +6.5543193     2846.204     9098.443     11168.13     91.02685     181.8368      363.746      2.808     7.68     1174.432     64.10977     302.4652        57     2.055     1.857  89.56   0
       278    232.1758    333.0128 307.8285347  +6.5493124     1067.798     2543.862      2961.15     90.88224     181.6921     363.6375      2.537     7.44     1179.968     64.10977     138.5767        16     1.427     1.087 -64.04   0
       279    742.9932    328.0288 307.6161750  +6.5683868      24762.5     67854.22     80903.87     90.59235     181.6921     363.4928      2.577     6.04      1171.39     64.10977     2300.037       105     2.186     1.908 -69.74   0
       280    415.1628    328.1416 307.7525686  +6.5574305      958.598     2742.008     3631.278     91.17122     181.9814      363.746      2.921     9.17     1173.305     64.10977     123.3827        21     1.560     1.505 -51.54   2
       281    402.4976    323.5057 307.7579947  +6.5589238     1017.033     2583.624     2866.361     91.17122     182.5587      363.529      2.689     9.66     1173.405     64.10977     119.8859        18     1.993     1.306 -59.12   2
       282    977.4393    325.1464 307.5187248  +6.5773571     1189.259     2408.487     2563.022     91.02685     181.9814     363.7098      2.060     7.03     1165.882     64.10977     126.2855        16     1.189     1.165 -87.51   0
       283    918.6506    323.7000 307.5432342  +6.5760059     1384.867     3049.432     3685.653     91.17122     181.9091     363.8906      2.252     7.13     1169.009     64.10977     171.3925        22     1.484     1.237 -85.79   0
       284    177.6953    315.0858 307.8518078  +6.5548992     1113.686     2992.806     3718.538     91.17122     182.3424     363.7821      2.701     8.58     1181.759     64.10977     162.1373        26     1.621     1.594  67.23   0
       285    741.5276    312.6737 307.6173020  +6.5746826     2776.284     7925.491     9501.645     91.45928     182.0537     363.7821      2.704     6.75     1170.123     64.10977     291.1837        51     1.885     1.780  78.11   0
       286    758.5629    311.6406 307.6102489  +6.5756753     1079.399     2487.034     3328.295     90.88225     181.9091     363.5652      2.525     8.27     1170.145     64.10977     132.5123        16     1.911     1.001 -46.55   2
       287    757.0331    308.6666 307.6109856  +6.5768533     1011.939     1735.646     2966.621     91.02684     181.9814     363.6736      2.339     6.50     1169.897     64.10977     129.2971        14     1.406     0.844 -38.45   3
       288    348.4500    304.2554 307.7811322  +6.5650750     792.6478     2184.381     3645.637     91.17122     181.9091      363.746      3.635     8.63     1174.438     64.10977     125.4618        11     1.454     1.432  40.94   2
       289    996.0358    301.1950 307.5117919  +6.5878698      3661.59     8103.033     9067.647     90.15575     181.6197     363.4566      2.247     5.17     1163.384     64.10977     419.6455        45     1.752     1.542 -76.03   0
       290    474.2250    302.4311 307.7288640  +6.5700216       888.07     2227.719     3048.876     90.59235     181.7645      363.529      2.695     5.77     1169.527     64.10977     113.1118         8     1.138     0.823   1.08   2
       291    235.4565    298.7291 307.8283305  +6.5635868     1957.609     4419.609     5568.429     91.31536     181.8368     363.6736      2.560     9.52     1178.212     64.10977     222.0474        29     2.436     1.038  78.43   3
       292    238.5089    297.4586 307.8271035  +6.5642137     2386.416     4565.382     5803.255     91.02685     181.8368     363.8544      2.228     6.01      1177.94     64.10977     280.6588        26     1.857     1.062  86.08   3
       293    372.3480    287.5086 307.7717556  +6.5727913     798.0134     1571.234     1940.274     91.02685     181.6921     363.9267      2.127     4.36     1172.967     64.10977       92.698         6     1.147     0.471  -9.26   0
       294    140.6073    283.7333 307.8683003  +6.5666133     773.7133     2269.075     2834.054     90.59235     181.6197      363.529      2.613     9.29     1183.599     64.10977     103.2229        16     1.643     1.465 -20.25   0
       295    550.9620    278.6369 307.6977395  +6.5824083     899.0788      2700.72     3533.032     90.88224     181.7645     363.5652      2.772    10.42     1167.207     64.10977     117.3142        20     1.810     1.673 -39.55   2
       296    893.1914    277.9264 307.5553669  +6.5940743     856.7507     2356.717     2750.026     90.73741     181.4023      363.529      2.864     6.96     1166.618     64.10977     118.5353        11     1.484     1.038 -89.48   0
       297    713.7029    276.7767 307.6300888  +6.5885899     2380.431     6426.056     7965.244     91.31536     181.6197     363.4928      2.656     6.74      1167.39     64.10977     249.4485        44     1.844     1.646 -76.22   0
       298    654.1804    277.3895 307.6548345  +6.5863580     1018.328     2283.844     2729.768     90.73741     181.5473     363.5651      2.531     7.45     1166.907     64.10977     140.1752        15     1.401     1.110 -22.04   0
       299    214.0627    264.0550 307.8384055  +6.5771983     886.3896     1784.032     2713.342     91.31536     181.8368     363.6736      2.400     3.83     1178.691     64.10977     137.5631         8     0.952     0.659  -4.07   0
       300    856.0654    260.3337 307.5714067  +6.6001115     892.5683     2379.918     2743.435     91.17122     181.9091      363.746      2.698     6.19     1166.349     64.10977     117.1869        11     1.419     0.760 -27.97   2
       301    746.4301    261.4008 307.6169895  +6.5960303     883.5232     1949.551     2580.076     90.44705     181.6921     363.4928      2.554     6.44     1167.187     64.10977     112.6576        11     1.435     0.811 -16.28   0
       302    447.4556    252.0285 307.7417047  +6.5899546     8909.084     28242.96     36097.02     90.88224     181.9814     363.6013      2.877     7.15     1167.393     64.10977     902.9091        93     2.369     1.995 -59.98   0
       303    773.2235    251.1040 307.6061877  +6.6011748     6532.399     17446.17     21362.13     91.31536     181.6197     363.5651      2.634     6.16     1167.009     64.10977     633.6406        68     2.097     1.779 -56.07   0
       304    135.8105    245.5256 307.8715909  +6.5822388      1021.24     2867.962      3070.21     90.73741     181.4748      363.529      2.622     9.14      1183.59     64.10977     139.7611        24     1.716     1.358 -48.96   0
       305    909.6326    240.8484 307.5497729  +6.6099396     784.7755     1732.139     2290.361     90.88224     181.9091     363.6375      2.494     7.09     1163.814     64.10977     100.3419         9     1.409     0.999  56.45   0
       306    571.3904    237.8515 307.6906161  +6.5999397     1849.853     5593.764      6374.58     90.59235     181.7645     363.3842      2.708     9.17     1164.136     64.10977     193.2443        40     1.957     1.559 -56.87   0
       307    535.3394    237.8041 307.7056181  +6.5987592     846.6882     2480.557     2886.521     90.44705     181.6921     363.4204      2.589     7.32      1163.89     64.10977     128.4395        14     1.607     0.933  76.18   2
       308    878.3440    234.2278 307.5630150  +6.6116372     6046.712     14632.55     16382.13     90.73741     181.9814     363.6013      2.407     5.59     1164.142     64.10977     659.9336        60     1.916     1.717 -59.41   0
       309    377.3175    237.2536 307.7713871  +6.5937208     777.4447     1725.948     1761.274     91.17122     181.9091     363.7821      2.285     6.80     1170.392     64.10977     100.7211        10     1.429     0.908 -72.18   0
       310    931.9446    234.7251 307.5406946  +6.6132096     1460.659     3222.125     3392.564     91.02685     181.8368     363.6736      2.289     7.31     1162.904     64.10977     191.0314        24     1.684     1.260 -49.65   0
       311    964.8786    232.0060 307.5270819  +6.6154249     5917.422     13153.26     14828.29     90.73741     181.3298     363.4566      2.270     5.07     1162.115     64.10977     658.7378        55     1.842     1.567 -64.32   0
       312    676.5042    232.5297 307.6470583  +6.6056352     1253.004     3506.371     3991.126     91.02685     181.9814     363.7098      2.665     9.98     1165.176     64.10977     132.3368        29     1.784     1.558  74.64   0
       313      4.6910    231.2908 307.9266269  +6.5837333     11651.22     32335.99     39026.66     91.17122     182.4866     328.9625      2.692     6.31     1192.262     64.10977     1260.426        84     2.220     1.880 -77.70  24
       314    486.6517    227.9610 307.7262089  +6.6012046       795.02     2099.239     3339.545     90.88224     181.9091     363.6736      3.342     4.80     1163.073     64.10977     118.0964         7     1.214     0.537 -31.65   2
       315    497.3884    223.6617 307.7218867  +6.6033385      1102.79     3042.556     3851.255     90.59235     181.6921     363.4566      2.686     9.54     1162.801     64.10977     134.5291        26     1.918     1.324 -67.48   0
       316    869.0027    222.5155 307.5672961  +6.6161665     1192.252     2815.322     3971.612     90.44705     181.4748     363.3842      2.845     7.91     1163.701     64.10977     143.8458        20     1.633     1.119 -81.53   0
       317    816.8970    223.4089 307.5889477  +6.6140680     901.6468     2473.422     3172.946     90.88224     181.4748     363.4928      2.677     8.17     1165.311     64.10977     123.4174        14     1.752     1.114 -62.38   0
       318    728.4928    220.2325 307.6258402  +6.6124442     18831.91     50826.73     60856.88     91.31536     181.7645      363.746      2.625     6.25     1165.489     64.10977     1862.398        91     2.145     1.897 -68.30   0
       319    333.1524    220.0218 307.7903462  +6.5993672     2761.134     6465.655     9454.285     90.73741     181.9091     363.5651      2.730     8.49     1172.168     64.10977     318.1532        43     2.611     1.339 -68.78   3
       320    330.0000    220.0111 307.7916582  +6.5992664     2238.783      4395.79     5950.444     90.59235     181.4748     363.4566      2.330     7.89     1172.383     64.10977     281.2343        25     2.234     0.804 -83.84   3
       321    962.0095    218.7438 307.5287216  +6.6208095     1692.722     3610.239     4216.991     90.44705     181.8368      363.348      2.233     5.73     1161.633     64.10977     193.1899        22     1.435     1.261 -54.07   0
       322    896.4033    217.2277 307.5560722  +6.6192604     4350.438      9979.42     11363.04     90.59235     181.6197      363.529      2.334     5.50     1162.785     64.10977     439.0341        48     1.840     1.536 -74.39   0
       323    440.0344    216.7689 307.7459840  +6.6042754     1975.541     5859.427     6792.124     90.73741     181.6197     363.4566      2.721     7.99     1165.995     64.10977     230.5098        46     1.984     1.783 -77.46   0
       324   1000.0979    218.6743 307.5128747  +6.6221006     1011.312     1941.748     2001.943     90.73741     181.9814     363.6736      1.964     7.11     1161.163     64.10977     121.9407        12     1.456     0.973 -33.79   2
       325     97.5087    208.2739 307.8887897  +6.5963489     2326.262     6469.004     8004.699     91.17122     182.0537      363.746      2.761     7.52     1184.894     64.10977     266.6139        48     2.026     1.702 -75.16   0
       326    243.0053    205.8956 307.8283328  +6.6021944     2676.376     7872.404     9480.632     90.88224     181.5473     363.4566      2.725     7.07     1177.833     64.10977     319.4917        55     2.131     1.737 -74.40   0
       327    267.7892    204.6952 307.8180613  +6.6035179     13310.33     41754.57     52787.31     90.73741     181.4748     363.4566      2.824     6.99     1176.577     64.10977     1522.594        93     2.295     2.008 -64.61   0
       328    916.0925    205.5148 307.5482733  +6.6247530     739.5362      1393.83     2035.595     90.88224     182.4146     363.8183      2.321     5.59     1161.784     64.10977     101.2212         6     1.181     0.746 -39.40   0
       329    391.7751    200.0920 307.7666280  +6.6095570     19882.36     61433.87     77823.03     91.31536     181.6197      363.529      2.819     7.06     1168.267     64.10977     2223.801       109     2.322     2.060 -69.45   0
       330    147.6439    203.3204 307.8680978  +6.6000719     1470.026     3087.349     4226.763     91.17122     181.9091     363.7098      2.526     8.75     1182.619     64.10977     185.5005        19     1.858     1.150  45.51   3
       331    149.6288    201.3139 307.8673399  +6.6009673      1571.48       2926.6     4439.563     91.31536     181.5473      363.529      2.301     9.23     1182.523     64.10977     189.6669        20     2.121     1.121  51.02   3
       332    296.5311    197.8514 307.8063339  +6.6073051     7567.919     21876.01     29740.55     91.02685     181.7645     363.6375      3.036     7.54     1174.953     64.10977     797.5269       107     2.963     2.109 -13.42   0
       333    730.9691    196.0828 307.6256236  +6.6225045     15422.11     41752.99     50088.16     91.17122     181.6921     363.5651      2.590     6.13     1164.141     64.10977     1463.513        88     2.167     1.884 -68.86   0
       334     48.0047    193.6844 307.9098817  +6.6007204     4139.611     11465.43      14353.8     90.59235     181.4748     363.3118      2.694     6.36     1188.961     64.10977     469.3115        64     2.158     1.799 -80.41   0
       335     83.2038    191.6871 307.8953040  +6.6027233     766.9722     1404.954     1422.699     90.59235     181.5473     363.3842      2.039     4.58     1185.719     64.10977     113.2942         5     0.848     0.702  61.23   0
       336    990.2397    176.8838 307.5183815  +6.6390409     1557.012      3310.44     3595.915     91.17122     181.8368     363.6375      2.272     6.96     1159.878     64.10977     170.9176        27     1.662     1.335 -75.16   0
       337    266.6493    170.9575 307.8196777  +6.6174191     12342.58     37971.46     48367.84     91.17122     181.8368     363.6736      2.841     6.93     1177.557     64.10977     1392.179       100     2.317     2.067 -65.07   0
       338    581.0094    173.7581 307.6887766  +6.6267415      768.963     1841.031     2736.496     90.44705     181.6921     363.4204      3.335     8.25     1162.156     64.10977     122.5662        13     1.535     1.239  11.46   0
       339     11.8316    169.6313 307.9257485  +6.6094473     1884.276     5283.788     6275.444     90.59235     181.6197     363.4204      2.576     7.41     1192.497     64.10977      236.411        41     1.915     1.594 -71.57  16
       340    698.2514    167.3532 307.6402063  +6.6332875     3748.894     10087.31     12101.89     91.31536     181.7645     363.7821      2.606     6.58     1162.395     64.10977     350.5835        51     1.970     1.649 -56.91   0
       341    109.1854    164.8438 307.8854039  +6.6146829     2215.995     6386.502     8227.639     90.44705     181.6921     363.4204      2.714     6.71     1183.285     64.10977      305.766        47     1.929     1.698 -74.81   0
       342    381.5027    161.0141 307.7722237  +6.6253601     1207.337     2394.401     3453.675     91.02685     181.6197     363.4566      2.467     7.43      1167.71     64.10977     159.4972        15     1.852     0.835 -74.07   3
       343    378.0033    161.6544 307.7736581  +6.6249788     1450.458     3076.355     4098.889     90.44705     181.6921     363.3118      2.501     8.77     1168.153     64.10977     171.2795        22     1.923     1.117 -72.24   3
       344    344.3638    159.4969 307.7877286  +6.6247480     1296.053      3925.55     4459.966     91.17122     181.7645     363.8906      2.572    10.14     1171.508     64.10977     160.7379        33     1.835     1.563 -50.39   0
       345     99.9204    160.3811 307.8894102  +6.6162168     832.8497       1525.3     2164.415     90.73741     181.5473     363.6375      1.659     5.51     1183.373     64.10977     113.1926        10     1.208     0.710 -73.22   0
       346    990.5049    152.8288 307.5190796  +6.6489888     927.6727      1619.85     1729.855     91.31536     181.6197     363.6375      2.017     4.73     1158.574     64.10977     122.9418         9     1.129     0.908  42.10   0
       347    196.1346    148.6609 307.8497736  +6.6242757     2466.732      7018.75     8417.451     91.17122     181.8368      363.746      2.695     6.96     1181.755     64.10977     289.0603        52     2.086     1.650 -78.33   0
       348     79.3977    148.9809 307.8983361  +6.6202403     827.1906     2320.142     3355.594     90.73741     181.4023     363.4204      3.096     7.32     1185.263     64.10977     104.1255        14     1.791     0.838 -72.58   2
       349    659.2151    146.8242 307.6571423  +6.6404717      2470.05     5049.618     6696.032     90.88224     181.6921     363.6375      2.376     6.06     1161.436     64.10977     279.1093        24     1.644     1.014 -77.45   3
       350    656.1899    146.7961 307.6584021  +6.6403827     2180.222     4439.385     6366.622     90.59235     181.5473     363.5651      2.602     8.19     1161.449     64.10977      282.705        28     2.318     0.883  85.52   3
       351    612.9438    137.0979 307.6767251  +6.6429512     22117.33     60858.07     88443.68     91.02685     181.9091     363.9629      3.271     9.40     1161.293     64.10977     2128.792       174     3.956     1.995 -67.84   0
       352    336.9436    140.4368 307.7914610  +6.6323754      1626.22     4987.989     6996.119     91.17122     181.9091      363.746      2.994     9.22     1172.501     64.10977      173.474        46     2.092     1.792 -37.97   0
       353    520.4769    139.4002 307.7151251  +6.6389219      828.049      1653.88     2430.909     90.30152     181.1847     363.3842      2.618     6.16     1161.409     64.10977     128.1957        10     1.368     0.779 -41.50   0
       354    293.9366    130.2022 307.8097030  +6.6351686     1560.618     4084.607     6169.287     90.44705     181.6197     363.4566      3.234    10.04     1176.339     64.10977     185.4479        31     2.054     1.572  69.46   2
       355    677.7870    119.5084 307.6503351  +6.6523754     1496.966     3962.862     4874.696     90.88225     181.6197     363.4566      2.666     8.68      1159.98     64.10977     174.3721        34     1.901     1.526  89.46   0
       356    419.7169    110.8865 307.7580170  +6.6473453     1831.416     5192.847     5593.769     90.88224     182.1259     363.7821      2.597     8.04     1163.963     64.10977     213.5226        40     1.880     1.536 -48.29   0
       357      1.7826    111.5109 307.9319023  +6.6331234     718.7665     1662.509     3596.469     85.35994     152.0578     281.8964      5.406     6.96     1191.235     64.10977     120.7224        10     1.351     1.004 -85.66  24
       358    891.7518    106.1429 307.5617453  +6.6650040     2263.255      5027.25     5661.217     91.17122     181.9091     363.8544      2.308     5.95     1156.098     64.10977     258.4963        35     1.715     1.454 -32.16   0
       359    873.6048    107.0928 307.5692652  +6.6640095     1133.811     2796.668     3330.816     90.73741     181.5473     363.4204      2.452     8.12     1156.526     64.10977       138.62        20     1.635     1.128  75.81   0
       360    583.9033    105.6203 307.6898720  +6.6549904      792.416     2043.181      2739.13     91.02685     181.6921     363.4928      2.871     8.27     1160.283     64.10977     124.5233        13     1.688     1.132  -6.42   0
       361    382.1908    103.8360 307.7738709  +6.6490070     737.2969     1899.956     2229.348     90.59235     181.6197     363.4566      2.626     4.61      1168.36     64.10977     102.8999         7     1.337     0.451  45.37   2
       362    382.4809    100.2650 307.7738709  +6.6504921     628.5545     1463.617     2254.983     91.45928     181.9814     363.7098      3.310     4.28     1168.406     64.10977     85.08777         5     1.045     0.499  86.17   3
       363    131.0569     99.9951 307.8785019  +6.6422069     1510.369     4463.157     5390.078     90.44705     181.7645     363.3842      2.633     8.89      1182.71     64.10977     206.7727        36     1.749     1.636 -57.07   0
       364     12.9037     97.8613 307.9277382  +6.6391351     5792.931     16252.78     21001.81     90.88224     181.9814     363.7821      2.865     6.31     1189.717     64.10977     745.3221        74     2.239     1.856 -61.29  16
       365    748.0175     95.3540 307.6219235  +6.6646897      585.967     1521.967     2171.146     90.59235     181.7645     363.4204      2.813     5.52     1158.546     64.10977     90.17639         7     1.969     0.436  59.62   0
       366    814.4041     91.9548 307.5944112  +6.6682991     3234.754     8187.663      9974.11     90.44705     181.5473      363.348      2.593     5.88     1157.214     64.10977      340.514        49     1.831     1.686 -72.97   0
       367    759.4293     92.3559 307.6172755  +6.6663076     1583.549     4104.309     5005.092     90.73741     181.9814     363.5652      2.527     8.43     1158.256     64.10977     179.8491        31     1.597     1.458 -70.70   0
       368     53.2175     89.7190 307.9112398  +6.6438486     1411.137      4063.43     4692.574     90.73741     181.5473     363.6013      2.652    10.11     1186.405     64.10977     159.9382        32     1.874     1.522 -75.41   0
       369    752.6627     80.2019 307.6205010  +6.6711045     936.7126     2411.574     3112.498     90.44705     181.6921     363.4204      2.851     6.59     1157.838     64.10977     139.2914        11     1.520     0.989  34.62   2
       370     80.9764     73.8200 307.9002285  +6.6513462     4284.953     12251.21     14989.16     90.88224     181.6921     363.6375      2.716     6.76     1184.281     64.10977     449.0519        64     2.123     1.838 -71.41   0
       371    408.9391     75.3233 307.7637043  +6.6616795     1040.392     1933.798     2550.536     91.45928     181.9814     363.6736      2.186     6.74     1165.913     64.10977     136.1785        14     1.491     0.854  64.63   2
       372    411.7979     72.6048 307.7626066  +6.6628980     1034.323      1875.21     2082.272     90.44705     181.4023     363.4566      1.878     7.03     1165.622     64.10977     128.6929        13     1.420     0.975  36.65   2
       373    623.5660     65.6875 307.6747142  +6.6728093     8471.685     23193.37     28032.12     91.17122     181.7645     363.7098      2.667     6.37     1159.106     64.10977     792.9811        74     2.161     1.827 -67.53   0
       374    523.3766     61.8002 307.7165391  +6.6710803     2121.207     6351.972      7791.95     90.73741     181.5473     363.4928      2.743     8.01     1160.387     64.10977     231.2384        47     1.859     1.785  82.68   0
       375    249.4609     57.8688 307.8306590  +6.6635688     3903.662     11918.38      15982.9     91.31536     181.8368     363.7098      3.618     7.11     1181.031     64.10977     437.6353        70     2.329     1.877 -57.54   2
       376    242.7369     62.4712 307.8333012  +6.6614427     989.6759     2741.476     5391.965     91.17122     181.9091     363.7821      3.909     5.01     1181.124     64.10977     143.3501        11     1.281     0.856 -65.83   3
       377    799.3445   1020.3889 307.5694322  +6.2841855     1013.294     1612.718     1404.914     90.44705     181.8368       327.52      1.694     4.85     1210.515     64.10977     133.4561         9     1.140     0.585  75.39  16
       378    609.4829     56.9610 307.6808694  +6.6759462      1573.83     4073.603     6325.774     91.17122     181.8368     363.6736      3.136     8.17     1159.182     64.10977      188.833        23     1.601     1.209 -40.50   2
       379     15.3667     57.8879 307.9280701  +6.6557326     1163.844       2546.5     3171.551     91.31536     181.8368     363.7098      2.497     7.37     1186.389     64.10977     157.0413        17     1.352     1.126 -41.36   0
       380    237.7097     54.4922 307.8356634  +6.6645713     1326.294     4119.783     6044.936     91.17122     182.4866      363.746      3.401     8.66     1181.348     64.10977     159.7041        36     1.801     1.727 -42.82   0
       381    679.2863     47.2134 307.6521490  +6.6822955     843.3858     2192.508     2703.362     90.73741     181.6921     363.6013      2.638     8.13     1157.797     64.10977     133.3257        13     1.558     1.185 -56.13   0
       382    167.1008     40.0675 307.8655347  +6.6681715     4814.087     13884.17     17613.01     91.17122     182.0537     363.6736      2.729     6.87     1181.606     64.10977     588.5905        64     2.109     1.810 -75.78   0
       383    512.7387     37.8506 307.7217750  +6.6806212     1245.106      2509.06     2867.635     91.17122     181.8368      363.746      2.103     7.36       1160.6     64.10977     134.2661        18     1.607     0.943 -68.73   3
       384    509.7524     37.9704 307.7230137  +6.6804722      1025.42     2330.875     2863.488     90.73741     181.9814     363.6013      2.113     6.41     1160.723     64.10977     141.9631        12     1.995     0.579  85.55   3
       385    912.5341     37.3341 307.5554116  +6.6941236     2406.416      5353.25     5686.617     91.17122     181.9091      363.746      2.191     6.56     1152.626     64.10977     242.2544        37     1.806     1.424 -56.82   0
       386    713.2134     36.3979 307.6383945  +6.6878921     973.6205     2564.144     3199.414     90.73741     181.5473     363.4928      2.743     9.24     1156.818     64.10977     105.2943        21     1.889     1.260 -34.26   0
       387    906.5751     57.2216 307.5572225  +6.6857089     1237.458     2414.098     2540.088     90.73741     181.6921     363.6375      2.096     7.03     1153.489     64.10977     176.7946        18     1.399     1.184  67.96   0
       388    977.1860     33.6384 307.5286293  +6.6977943     1464.005     3001.708     3578.735     90.73741     181.6921     363.3842      2.303     5.80     1148.132     64.10977     189.3566        24     1.482     1.259  87.42   0
       389    696.7725     30.2191 307.6454449  +6.6898984     3439.342     9202.705     10817.25     90.73741     181.6921     363.6013      2.569     6.24     1157.017     64.10977      387.649        52     1.941     1.678 -81.13   0
       390    616.8339     29.6166 307.6787329  +6.6874887     1755.571     4585.248     5430.381     90.73741     181.6197      363.529      2.464     8.02     1158.488     64.10977      189.611        36     1.895     1.422  70.04   0
       391    408.5373   1020.3728 307.7319427  +6.2711971     943.4233     1550.393     1631.373     90.73741     181.9091     328.0416      1.685     5.90     1211.998     64.10977     101.6492        11     1.135     0.864   3.49  16
       392    899.7701   1014.0996 307.5278822  +6.2901154     7829.873      12656.2     13630.37     91.17122     181.6197     363.7821      1.742     3.72     1209.659     64.10977      899.282        36     1.478     1.147 -71.48   0
       393    873.3016   1010.3917 307.5390136  +6.2907698     10562.76     18641.35     20556.39     90.88225     181.4748     363.4566      1.925     4.06     1209.544     64.10977     1312.722        57     1.750     1.391 -72.24   0
       394     87.7952     21.9690 307.8991498  +6.6729967     1131.156     2938.457     3751.968     90.44705     181.7645     363.4566      2.638     7.76     1183.503     64.10977     134.8054        20     1.680     1.010 -40.52   2
       395    995.1398   1009.8284 307.4883662  +6.2950406     4447.777     7536.008     7649.355     90.73741     181.9814     363.6013      1.786     3.83     1208.147     64.10977     624.4197        34     1.533     1.168 -65.49   0
       396     78.5254     20.5889 307.9030541  +6.6732567     614.8954     1568.574     2034.857     90.73741     181.4748     363.4928      2.495     4.20     1183.485     64.10977     88.05884         5     1.256     0.401  35.09   0
       397    586.3027   1010.7350 307.6583480  +6.2810965     1056.865     2093.221     1748.827     91.17122     181.9814      363.746      2.029     7.13     1212.109     64.10977     154.5928        14     1.313     1.084 -67.59   0
       398    517.8734   1009.5717 307.6868424  +6.2793006     3039.864      6142.14     7767.368     91.02685     181.9091     363.6375      2.378     5.38     1211.967     64.10977     288.2491        38     1.611     1.527 -47.64   0
       399    627.2127   1008.9008 307.6413980  +6.2832147     1122.729     1863.844     1692.939     90.88224     181.6197     363.4204      1.731     4.86       1211.4     64.10977      131.224        13     1.164     0.914  81.28   0
       400    470.9689   1005.9615 307.7064684  +6.2792309     1731.793     3419.551     3642.871     90.73741     181.6197      363.529      2.071     6.55     1211.772     64.10977     181.1298        21     1.313     1.184 -75.63   0
       401    905.1369    997.9125 307.5261942  +6.2969816     37682.34     65341.91      70258.1     91.02685     182.1259     363.7098      1.866     3.86      1208.84     64.10977     4560.026        74     1.740     1.382 -68.79   0
       402    212.8221    996.5007 307.8141315  +6.2745337     1220.767     2356.108     2649.005     91.17122     181.6197     363.4566      1.999     7.44     1212.446     64.10977     175.7379        19     1.508     1.027  79.56   0
       403    802.9445    991.8364 307.5688954  +6.2961025     1862.566     3307.752     3504.193     91.02685     181.9091      363.746      1.864     4.94      1209.26     64.10977     210.6014        20     1.411     0.973 -73.59   0
       404    751.1909    989.7673 307.5904867  +6.2952394     5229.679     9951.581     11404.71     90.59235     181.6921      363.529      2.068     4.37      1209.25     64.10977     621.5038        45     1.795     1.337 -65.73   0
       405    221.1891    987.4633 307.8109580  +6.2785470     698.3582     1386.457     1196.339     90.59235     181.6921     363.5652      1.642     3.76      1212.32     64.10977     123.6191         6     0.949     0.428  18.25   3
       406     46.0989    987.2073 307.8837716  +6.2728035     2067.467     3724.237     3612.183     90.88224     181.4748     363.4928      1.891     5.23     1210.245     64.10977     231.3881        26     1.529     1.256  70.14   0
