#   1 NUMBER                 Running object number                                     
#   2 X_IMAGE                Object position along x                                    [pixel]
#   3 Y_IMAGE                Object position along y                                    [pixel]
#   4 ALPHA_J2000            Right ascension of barycenter (J2000)                      [deg]
#   5 DELTA_J2000            Declination of barycenter (J2000)                          [deg]
#   6 FLUX_APER              Flux vector within fixed circular aperture(s)              [count]
#   9 FLUXERR_APER           RMS error vector for aperture flux(es)                     [count]
#  12 FLUX_RADIUS            Fraction-of-light radii                                    [pixel]
#  13 FWHM_IMAGE             FWHM assuming a gaussian core                              [pixel]
#  14 BACKGROUND             Background at centroid position                            [count]
#  15 THRESHOLD              Detection threshold above background                       [count]
#  16 FLUX_MAX               Peak flux above background                                 [count]
#  17 ISOAREA_IMAGE          Isophotal area above Analysis threshold                    [pixel**2]
#  18 A_IMAGE                Profile RMS along major axis                               [pixel]
#  19 B_IMAGE                Profile RMS along minor axis                               [pixel]
#  20 THETA_IMAGE            Position angle (CCW/x)                                     [deg]
#  21 FLAGS                  Extraction flags                                          
         1    183.3104     19.7203 307.8650151  +6.6681264     11534.43     16446.47     17008.74       78.061     156.4944     312.4925      1.521     3.27     834.8544     55.06546     1624.408        36     1.439     0.973  67.68   0
         2    928.8771     17.4598 307.5553035  +6.6940549      4384.94     6337.916     6542.362     78.43301     156.3083     312.3682      1.539     3.66     821.0989     55.06546     755.2059        24     1.405     0.824  64.01   0
         3    729.7293     15.9638 307.6381038  +6.6880150     2034.599      3101.87     3088.631      78.1852     156.2462     312.4614      1.531     3.68      822.666     55.06546     304.9014        16     1.339     0.710  65.60   0
         4    465.6766     16.4988 307.7478024  +6.6789454     1956.743     2872.472     2508.345     77.93659     156.4324     312.3993      1.550     3.29     825.9089     55.06546     287.8242        15     1.207     0.712  70.36   0
         5    993.6884     13.6678 307.5284999  +6.6977840     2125.212      3287.99     3552.784     78.43301     156.4324     312.3993      1.626     3.43     816.6416     55.06546     292.8018        19     1.227     0.909  81.70   0
         6    788.6413     13.0380 307.6137231  +6.6911937     534.3527     759.0433     668.7778     78.06099     156.3083      312.275      1.827     5.17     821.4657     55.06546     102.1825         6     1.375     0.549  69.60   0
         7    713.0323     10.1924 307.6452358  +6.6898388     7908.805     11203.59      11486.7       77.812      156.122     312.2129      1.466     3.56      822.834     55.06546     1218.857        26     1.391     0.847  68.89   0
         8    633.2260      9.5120 307.6784195  +6.6874474     4077.457     5769.374     6127.232     78.43301     156.0598      312.244      1.541     3.77     823.8495     55.06546     545.3906        23     1.372     0.834  61.72   0
         9    335.3203      9.2957 307.8022085  +6.6775418     1053.822     1529.373     1618.419       78.061     156.4944     312.4925      1.505     4.33       834.92     55.06546     150.1788        10     1.164     0.580  81.55   0
        10    389.0593      7.4918 307.7799408  +6.6800917     845.2183     1083.672     686.9996      78.1852     156.1841      308.398      1.465     3.85     831.7142     55.06546     125.7511         9     1.087     0.559  63.32  16
        11    433.3874      5.6291 307.7615851  +6.6823491     6730.869     9759.333      10181.7       77.812     155.9976     292.6417      1.560     3.52      827.898     55.06546     944.2222        27     1.407     0.906  64.82  16
        12     34.3790      5.1754 307.9273853  +6.6691146      9008.92     13161.81     13895.61     77.93659     156.0598     287.9623      1.528     3.42     835.4055     55.06546     1290.532        35     1.461     0.991  70.21  24
        13    680.2656      4.6933 307.6590359  +6.6910121     1006.293     1453.365     1485.357      78.3092     156.4324     282.4509      1.576     4.31     823.4673     55.06546     153.2415        10     1.099     0.761  49.44  16
        14    509.2260      2.7827 307.7301696  +6.6860690     946.4327     1623.598     1459.858     77.93659     143.1532     257.4709      1.689     5.28     824.3217     55.06546     142.2277        14     1.292     0.789  65.93  24
        15    330.3209      1.6661 307.8045432  +6.6805235     9347.305     10955.48     11633.61     72.25125     129.1869     240.5598      1.113     2.44     834.8209     55.06546     2107.802        19     1.051     0.759  11.84  24
        16    103.6310      1.7354 307.8987288  +6.6728681     1954.054     2369.876     2213.518     72.51935     130.0851     241.4455      1.135     2.54      836.251     55.06546     450.4596        12     0.852     0.841  56.46  24
        17    425.0868      1.8150 307.7651627  +6.6836450     761.0867     914.5446     1347.696     73.58195     131.1992     242.9279      1.199     3.78     828.4102     55.06546     129.5072         6     0.932     0.441  50.35  24
        18     95.2419      1.2597 307.9022304  +6.6727819     596.8643     582.4201     440.3819     67.38716     123.1892     234.0172      0.964     1.81     836.4285     55.06546       168.98         5     0.683     0.425  11.53  24
        19    547.1076    993.9583 307.6810709  +6.2781420     8801.211     13196.92     14329.62      78.3092     156.1841     312.4925      1.572     3.65     858.4813     55.06546     1219.037        39     1.504     1.073  66.39   1
        20    753.8548   1022.1334 307.5942868  +6.2734298     1217.483     1682.154     1719.632      78.3092     144.2337      258.674      1.480     3.69     856.6831     55.06546     206.9579        15     1.238     0.830  61.65  24
        21    577.1362   1023.6835 307.6676043  +6.2668761     1423.184      1823.06     1863.562      68.1033     124.0526      234.845      1.193     2.82      858.606     55.06546     318.3149         8     1.019     0.464   2.42  24
        22   1011.1219    990.1766 307.4885427  +6.2952142     4289.825     7671.873     7814.124     77.93659     156.0598     312.3372      1.896     4.25     851.0547     55.06546      520.671        35     1.648     1.162  65.07   0
        23    889.3467    990.7933 307.5390831  +6.2908958     11922.38      19891.7     21255.44       77.812     156.0598     312.1196      1.790     3.81     852.7535     55.06546     1539.712        47     1.581     1.267  56.91   0
        24    533.4266    989.8162 307.6868904  +6.2793936     4288.291     6637.326     7582.611     77.93659     156.0598     312.3061      1.724     3.58     858.5929     55.06546     570.2893        30     1.486     1.091  62.64   0
        25    602.1074    990.9144 307.6583383  +6.2812409     1567.981     2423.784     2559.741      78.1852     156.6803     312.4925      1.692     3.89     857.9904     55.06546     274.6036        17     1.397     0.775  61.33   0
        26    318.8130    992.1970 307.7759126  +6.2712119     1601.593     1479.555     867.0075     77.93659     155.9354      312.275      0.865     2.66     858.5418     55.06546     480.0845         5     0.876     0.326  52.81   0
        27    642.9688    988.7615 307.6414455  +6.2834977     1353.597     2046.721      2732.76     77.93659     155.9976      312.244      1.801     3.46     857.8044     55.06546     204.5298        13     1.134     0.722 -89.18   0
        28    799.0905    987.7678 307.5766585  +6.2891297     710.6426     1219.746      1263.64     78.43301     156.0598     312.4304      1.702     5.46     853.3997     55.06546     102.1151         9     1.267     0.664  33.20   0
        29     67.7421    987.8937 307.8802929  +6.2645476     979.8584     1562.946     1444.987      78.1852     156.2462     312.5856      1.696     3.76     855.1745     55.06546     136.7413         9     0.873     0.765  15.24   0
        30    486.5626    986.0872 307.7064728  +6.2793624     2426.796     3315.853     3074.482      78.3092     156.1841     312.3993      1.475     3.65     859.0951     55.06546     315.8575        18     1.273     0.823  65.15   0
        31    921.1125    978.3358 307.5263114  +6.2970994     42192.34     68730.32     73531.19      78.3092     156.4324     312.4304      1.748     3.77     851.9464     55.06546     5402.088        79     1.743     1.264  63.13   0
        32    228.4023    976.3546 307.8139825  +6.2747150     1712.861     2407.425     2210.442     77.68719     155.8732     312.0264      1.521     4.11     857.9981     55.06546     240.9164        15     1.223     0.766  62.22   0
        33    116.6532    975.4922 307.8604060  +6.2713132     759.3253     1002.755     1134.936      78.1852     156.1841     312.5546      1.561     5.39     855.5565     55.06546     112.1034        10     1.169     0.990  69.69   0
        34    627.4263    974.6779 307.6483718  +6.2887917     849.9613     1432.803      1090.54      78.1852     156.1841     312.3682      1.610     4.80     857.6271     55.06546     121.6876         9     1.188     0.559  60.37   0
        35    819.2339    972.1904 307.5688175  +6.2962339     2362.574     3860.551     3696.802     77.81199     156.0598      312.244      1.690     4.00     853.2139     55.06546     365.4741        23     1.400     0.996  55.07   0
        36    767.2628    969.9178 307.5904722  +6.2954351     6697.133     10703.17     12095.19     78.43301     156.2462     312.3993      1.753     3.69     854.7355     55.06546     876.2369        38     1.579     1.085  64.35   0
        37    553.8191    969.0208 307.6791230  +6.2886621     934.5754     1734.843     2219.371     78.06099     156.1841     312.3061      2.093     4.71      858.101     55.06546     147.7103         9     1.287     0.563  70.30   0
        38    236.7086    968.7493 307.8107905  +6.2781338     1519.177     2125.367     1983.606      78.1852     156.0598     312.5856      1.534     4.21     857.9099     55.06546     207.1919        15     1.134     1.031  83.34   0
        39    201.0296    968.2410 307.8256206  +6.2771445     819.7287     1117.085     337.0094     77.93659      156.122      312.275      1.594     5.93     857.2861     55.06546     119.3553        10     1.141     0.866  74.00   0
        40     61.6761    967.1514 307.8835121  +6.2729064     2898.031     4378.615      4492.57      78.1852     156.3083     312.3993      1.578     3.22     854.9991     55.06546     412.7739        23     1.299     1.018  59.16   0
        41    955.5096    965.0847 307.5124734  +6.3037181     6490.875     10783.53     11495.31     78.06099     156.5564     312.5235      1.756     3.72     851.1443     55.06546     833.3356        36     1.577     1.117  54.98   0
        42    211.4283    960.9488 307.8215494  +6.2805045      511.188     853.2303     892.1172     77.93659     156.3704     312.3061      1.525     3.95      857.376     55.06546     83.45312         5     0.906     0.493  87.13   0
        43    638.1764    959.8155 307.6444078  +6.2952875     702.8134     1151.844     784.0221     78.06099     156.0598     312.3061      1.465     3.91      857.272     55.06546     95.75629         6     0.779     0.563 -40.45   0
        44    929.3496    956.8436 307.5236113  +6.3062474     2169.818     3495.378     2095.999     78.43301     156.2462     312.4304      1.686     4.35     851.5965     55.06546      248.135        21     1.418     0.949  66.32   0
        45    788.7676    953.4362 307.5820963  +6.3029584     1315.822     2217.943     2725.869     77.93659     155.9976     312.1507      1.887     4.60     853.6903     55.06546     176.3802        16     1.452     0.770  58.31   0
        46    649.9952    952.7440 307.6397383  +6.2986025     4812.739     7083.235     7554.953     77.68719     156.0598     312.1196      1.559     3.73     856.9969     55.06546      695.142        29     1.497     0.948  57.54   0
        47    262.1134    952.8947 307.8007778  +6.2855328     4532.583     6517.662     6687.331      78.3092     156.6184     312.4614      1.505     3.46     857.7363     55.06546     664.9446        24     1.424     0.859  66.28   0
        48    999.4322    952.3094 307.4946641  +6.3104578     677.4564     1135.281     1203.812     78.43301     156.0598     312.4304      1.838     4.74     849.8599     55.06546     95.86664         9     1.326     0.481  84.45   0
        49    472.2206    951.3412 307.7135967  +6.2932261     1210.643     1608.299     1691.583     77.93659      156.122     312.2129      1.413     3.40     858.5321     55.06546     189.9472        12     1.047     0.742  58.03   0
        50     30.6477    949.9667 307.8969747  +6.2789560     2232.396     3330.125     3435.416     78.06099     156.2462     312.3372      1.634     3.32     854.8507     55.06546     349.2584        22     1.437     0.932  76.69   0
        51    881.6462    949.1151 307.5436773  +6.3078454     890.9627     1060.266      801.363      78.3092     156.1841     312.3993      1.383     4.24     852.3743     55.06546     115.8961         9     0.877     0.778   0.41   0
        52    973.7944    946.9998 307.5054870  +6.3117946     584.9578     772.9693     692.1924     77.68719     155.9354     312.2129      1.296     3.91     850.3369     55.06546     80.30023         6     0.952     0.461 -53.85   0
        53    297.9106    946.1441 307.7861431  +6.2895222     863.5377     1383.078     1679.876      78.3092      156.122     312.5235      1.856     3.85      857.767     55.06546     130.4185        10     1.046     0.673  82.21   0
        54    953.1343    946.0671 307.5140966  +6.3114903     678.9905     1108.138     965.0817      78.3092     156.2462     312.4304      1.835     1.98     850.8654     55.06546     113.8312         5     0.901     0.695  87.66   0
        55    574.4149    945.2840 307.6713699  +6.2991516      1667.37     2400.521     2421.459     77.93659     155.9976     312.3061      1.491     3.69     857.6458     55.06546     238.7548        16     1.190     0.834  60.34   0
        56    449.9010    946.4719 307.7230275  +6.2944879     2758.102     2727.793     2821.241     78.06099     156.3704     312.3993      0.687     0.88     858.2665     55.06546     1216.221         5     0.506     0.374  75.93   0
        57   1006.1718    944.1675 307.4921383  +6.3140440     695.8315     1430.018     1844.119       77.812     155.9976     312.2129      2.350     5.68     849.3929     55.06546     99.13147        10     1.139     0.966  56.41   0
        58    614.0698    941.6724 307.6550266  +6.3019707     1466.876     2034.472     1675.115     78.43301     156.3704     312.3993      1.485     3.91     857.2825     55.06546      184.726        14     1.117     0.808  72.55   0
        59     63.7353    942.7178 307.8834828  +6.2830626     730.4752     1172.319     1658.601     78.43301     156.3704     312.4304      1.535     3.55     854.8062     55.06546     126.4171         6     0.768     0.532  41.99   0
        60    293.6967    939.1756 307.7881276  +6.2922575     1492.621     2160.689     2624.593     78.43301     155.9976      312.275      1.612     4.66     857.6417     55.06546     227.8961        13     1.367     0.644  68.06   0
        61    561.4777    937.2382 307.6770120  +6.3020399     663.2336      964.035     870.9279      78.1852     156.3083     312.3993      1.649     4.67     857.6384     55.06546     80.88245         9     1.255     0.492  85.69   0
        62    760.5786    935.1912 307.5944128  +6.3095485     1022.246     1281.715     1453.472     77.93659     156.0598     312.1818      1.409     3.14     854.1896     55.06546     162.9952        11     1.034     0.675  43.52   0
        63    898.0623    931.8923 307.5374384  +6.3155040     6986.267     10933.51     11521.45      78.3092     156.3083     312.4614      1.650     3.75     851.8925     55.06546     948.1097        34     1.490     1.048  63.09   0
        64    107.4054    930.5307 307.8657640  +6.2895635     530.7125     659.3565     652.8712       77.812     155.8732      312.244      1.152     4.73     854.7731     55.06546     88.15918         6     1.337     0.474  50.26   0
        65    434.0031    929.0165 307.7302159  +6.3011610      2159.31     3170.246     3084.783     77.93659     155.8732      312.244      1.507     3.69     857.8809     55.06546     339.0814        18     1.302     0.808  67.62   0
        66    335.6402    927.4144 307.7711096  +6.2985215     10045.35     14543.15     15221.55       77.812     156.0598     312.1507      1.559     3.44     857.6523     55.06546     1375.222        35     1.467     0.998  64.83   0
        67    255.7582    926.4565 307.8043081  +6.2962339     7634.936     10832.39     11398.07      78.1852     156.1841     312.4304      1.544     3.43     857.2764     55.06546       1009.5        29     1.436     0.920  67.29   0
        68    768.5939    920.9030 307.5915643  +6.3157153     623.5129     1005.204     1331.533     78.06099     155.9354     312.2129      1.610     4.37     853.8848     55.06546     111.4875         7     1.329     0.409  56.47   0
        69    583.6910    920.8373 307.6683403  +6.3095550     1211.416     1692.869      1511.55     78.43301     156.1841     312.4304      1.527     4.76     857.1522     55.06546     173.4664        16     1.387     0.823  55.79   0
        70    913.9234    916.9470 307.5313533  +6.3222038     1050.818     1790.474     1962.217     78.43301     156.2462     312.3993      1.645     5.28      851.442     55.06546     180.8765        13     1.312     0.693  46.45   0
        71    870.4268    915.9865 307.5494463  +6.3211479     897.5338     1724.645     1471.313     78.06099     156.0598     312.3372      1.802     5.00     852.2076     55.06546     123.8947        14     1.452     0.800  49.18   0
        72    146.5413    916.9991 307.8499725  +6.2964664     611.5016     965.0867     1165.483     77.68719     155.9354     312.0885      1.739     5.35      854.884     55.06546     93.34235         8     1.075     0.750  62.43   0
        73    412.6634    914.7255 307.7395574  +6.3063451     580.3233     950.3237     1389.125     78.55663     156.2462     312.3682      1.719     2.74     857.2958     55.06546     103.7025         5     0.734     0.440  72.82   0
        74    981.1038    912.3465 307.5036125  +6.3263451     807.8958     1424.878     1462.118      78.1852     156.2462     312.6477      1.742     5.95     849.1736     55.06546     127.2626        11     1.339     0.745  66.98   0
        75    750.0703    910.0442 307.5996201  +6.3195789      1777.96     2881.065     2956.493      78.3092     156.2462     312.4304      1.698     3.81     854.1903     55.06546     244.4171        22     1.432     0.973  69.74   0
        76    574.4742    911.0214 307.6724973  +6.3132987     769.5598     1238.069     1126.964     77.93659      156.122     312.3372      1.814     4.94     856.9238     55.06546     120.1437        10     1.305     0.574  64.66   0
        77      1.3247    907.5533 307.9105827  +6.2954778     747.5955     873.0954     1401.636     67.81776     124.0526     234.8863      1.215     3.87     854.5354     55.06546     141.0925         6     0.919     0.467 -87.89  24
        78    981.4913    905.7943 307.5036710  +6.3290632     1184.482     1938.177     2521.829     77.93659     155.9354     312.1507      1.921     4.18     849.0055     55.06546     148.1626        14     1.098     0.933  64.52   0
        79    625.8660    906.4011 307.6513141  +6.3169272      618.043     1053.425     749.8642     77.68719     155.8732     312.1818      1.688     4.72     856.3197     55.06546     91.55225         7     1.026     0.615  88.21   0
        80    614.3705    906.6246 307.6560797  +6.3164500     675.2931     973.5442     1511.716       77.812      156.122      312.244      1.856     4.70     856.5538     55.06546     142.1977         9     1.286     0.488  51.80   0
        81    535.3000    905.8030 307.6889383  +6.3141406     1122.351      1681.99     2246.192     78.06099     155.9976     312.0575      1.518     3.86     856.9755     55.06546     164.2356        14     1.220     0.765  74.84   0
        82    668.7946    903.4362 307.6335891  +6.3195882     2700.556      3864.79     4055.853       77.437     155.9976     312.2129      1.531     3.69     855.4986     55.06546     384.9501        18     1.333     0.764  63.21   0
        83   1019.8042    902.5768 307.4878701  +6.3316695     602.4954     751.1058     1010.666     77.93659     155.9976     288.0297      1.443     2.83     847.3766     55.06546     92.21344         5     0.720     0.456  19.90  16
        84    959.3979    901.3132 307.5129949  +6.3301760     630.4781     863.2466     1313.141     77.68719     155.8732     312.1196      1.305     2.94     849.7487     55.06546     111.3569         5     0.742     0.426  66.63   0
        85     65.3569    899.4617 307.8842714  +6.3009745     2893.535     4255.163     4368.094      78.3092     156.1841     312.4925      1.613     3.62     854.4679     55.06546     414.0891        24     1.344     0.956  67.28   0
        86    829.7258    899.8168 307.5668884  +6.3264639     838.0622     1241.503     1563.853       77.812     155.9976      312.275      1.358     3.45     852.7876     55.06546     165.9434         7     1.072     0.423  59.59   0
        87    566.2426    900.6487 307.6762639  +6.3173052     444.6609     506.6689     824.6455      78.3092     156.1841     312.3372      1.072     3.45     856.6672     55.06546      84.0473         5     0.757     0.455 -13.77   0
        88    208.8272    898.4879 307.8247370  +6.3062030     2276.519     3398.085     3223.227     78.43301     155.9976     312.3061      1.635     4.02     856.0035     55.06546     344.9941        20     1.345     0.938  72.41   0
        89     82.8241    898.7593 307.8770430  +6.3018524     2077.107     3210.043     2416.132     77.93659     156.0598     312.1818      1.559     3.36     854.4679     55.06546     367.0715        20     1.345     0.868  52.62   0
        90    946.9601    898.7098 307.5182467  +6.3308357     697.8792     1138.955     897.5006      78.3092     156.2462     312.4304      1.605     4.19     850.1927     55.06546     100.3621         7     1.148     0.436  58.02   0
        91    347.9623    894.6409 307.7670981  +6.3124653     965.8711     1601.096     2114.388     78.06099     156.2462      312.275      1.888     5.41     857.3622     55.06546     145.0969        12     1.352     0.611  71.17   0
        92    243.0292    895.2283 307.8106465  +6.3086982     823.3242     926.9786     759.1932     77.81199     155.9976     312.1507      1.236     3.10     856.6326     55.06546     158.1512         8     1.029     0.585  61.19   0
        93    663.4652    892.5439 307.6361679  +6.3239067     7549.558     10785.89     11224.57     78.43301     156.1841     312.3993      1.568     3.36     855.3568     55.06546     1009.778        32     1.390     1.005  67.99   0
        94    801.0644    893.6558 307.5789961  +6.3280497     916.9398     1039.492      693.185     78.43301     156.2462     312.3993      1.349     4.81      853.304     55.06546     120.9686         9     1.053     0.622  52.64   0
        95     23.4551    890.6729 307.9019653  +6.3031918     1244.319     1780.031     1832.231      78.1852      156.122     312.3372      1.533     4.07     854.4079     55.06546     177.4994        11     1.130     0.711 -85.30   0
        96    901.0405    888.7983 307.5376460  +6.3333948     2855.738     4390.404     4320.108     77.56219     155.9976     312.1818      1.585     3.86     851.3484     55.06546     429.5469        25     1.449     0.936  62.21   0
        97    453.0171    890.5824 307.7236152  +6.3176659     659.5114     873.8081     589.2769     78.06099     155.9354     312.3372      1.441     3.65     856.5929     55.06546     124.6633         6     1.080     0.433  71.79   0
        98     36.2926    889.1973 307.8966853  +6.3042333     1104.763     1635.892     1415.177       77.812     155.9354     312.1196      1.545     4.39     854.3929     55.06546     163.5948         9     1.096     0.607  73.60   0
        99    346.4036    885.6926 307.7680468  +6.3161072      17285.3     24998.58     26581.49     77.93659     155.9354     312.1507      1.557     3.51     857.2724     55.06546     2302.742        42     1.496     0.995  64.05   0
       100     80.9572    886.7892 307.8782226  +6.3067312     1316.001     1959.152     1586.582       77.812     156.0598     312.1196      1.503     4.28     854.3779     55.06546     193.1125        15     1.367     0.726  71.14   0
       101    396.8300    885.1047 307.7471291  +6.3180424     716.1579     1100.235     1512.433     78.43301     155.9976     312.3993      1.586     4.39      856.577     55.06546     129.8254         7     0.926     0.635  72.33   0
       102    217.5261    885.3015 307.8215703  +6.3119391     1381.272     1613.017     1140.818     77.93659     156.3083     312.3682      1.316     3.49     855.9205     55.06546     200.1802        11     1.030     0.729  67.28   0
       103    676.4039    877.5348 307.6312996  +6.3305361     651.9785     1051.909     1778.045     77.56219     155.9976     312.1818      1.567     4.73     854.7933     55.06546     89.50281         8     1.166     0.544  50.67   0
       104    424.1702    876.6836 307.7360608  +6.3224363     1230.484     1681.745     1717.791      78.3092     156.0598     312.3061      1.314     3.30     856.0182     55.06546     223.7224        12     1.140     0.663  62.94   0
       105    109.6842    876.2851 307.8666502  +6.3120344     1738.929     2650.936     2763.367       78.061     156.3704     312.4925      1.635     4.32     854.3732     55.06546     213.2837        16     1.326     0.803  60.60   0
       106    677.8474    872.7734 307.6308602  +6.3325501     999.4907     1677.446      2100.23     77.93659     156.3083     312.3372      1.703     4.44     854.6619     55.06546     183.1829        12     1.273     0.682  71.94   0
       107    504.9192    873.5076 307.7026394  +6.3264553     759.3928     1207.174     1601.132     78.06099     156.4944     312.4614      1.689     3.27     855.9478     55.06546     149.6787         7     1.044     0.490  70.32   0
       108    891.6141    870.5829 307.5421707  +6.3406003     1961.166     2972.116     2774.304       78.061     155.9354     312.3372      1.586     3.78     851.3373     55.06546     268.1372        19     1.348     0.846  60.75   0
       109    862.4100    870.0779 307.5543143  +6.3398335     2138.922     3046.978     3332.165     77.93659     155.9354      312.275      1.523     3.62     851.9822     55.06546     285.4327        19     1.307     0.847  68.00   0
       110    825.5612    869.4286 307.5696370  +6.3388704     3250.608     4835.152     5517.732       77.812     155.9976      312.275      1.649     3.49      852.759     55.06546     431.4351        24     1.490     0.860  58.80   0
       111     93.1670    869.7984 307.8737272  +6.3141564     2551.298     3671.294     3902.203     77.56219     156.0598     312.1507      1.499     3.67     854.2504     55.06546     351.5671        19     1.350     0.813  63.87   0
       112    341.5887    867.8786 307.7706464  +6.3232998     580.3751     856.9528     1571.223     77.93659     155.9354      312.275      1.964     5.13     857.1107     55.06546     78.48785         8     1.183     0.629 -73.71   0
       113    561.5062    860.9433 307.6795659  +6.3335387     357824.5       518818     543003.6      78.1852     156.2462     312.5856      1.525     3.40     855.4412     55.06546     48655.22       175     1.658     1.244  64.58   0
       114    456.1915    867.8075 307.7230639  +6.3271747     574.8011     907.9844     1700.649     77.68719     156.0598      312.275      1.864     4.24     855.7219     55.06546     73.86444         6     1.217     0.420  60.02   0
       115    405.7696    863.4880 307.7441454  +6.3272666     8290.135     11742.28     12795.82     78.43301     156.0598     312.3372      1.537     3.39     855.7705     55.06546     1155.612        30     1.380     0.961  65.31   0
       116    649.2893    863.8994 307.6430164  +6.3352579     1107.808     1575.291     1453.384      78.3092     156.6803     312.3682      1.418     3.62     854.8784     55.06546     214.7604        12     1.251     0.613  59.72   0
       117    348.9876    861.9090 307.7677754  +6.3260127      13026.4     18801.97     19538.52     78.06099     155.9976     312.2129      1.509     3.55     856.9187     55.06546     1945.137        38     1.455     0.992  64.44   0
       118    899.9862    857.1501 307.5391445  +6.3464256       5349.5     8216.458     8761.381     77.68719     156.1841     312.1196      1.588     3.77     850.8676     55.06546     757.5449        31     1.536     1.016  56.83   0
       119    667.2925    858.1993 307.6357324  +6.3382137     3716.909     5591.733     5906.847       77.812     155.8109     312.0885      1.575     3.55      854.478     55.06546     535.3632        23     1.373     0.909  62.28   0
       120    894.8228    857.3121 307.5412832  +6.3461863     693.1611     1138.109     1281.366      78.3092     156.0598      312.275      1.702     4.83     850.9861     55.06546     119.2108         9     0.967     0.685  66.49   1
       121    739.1266    855.3093 307.6060015  +6.3418101     801.0272     1213.915     1030.539      78.3092     156.4944     312.4304      1.470     5.00     854.0383     55.06546     95.59277         9     1.231     0.574  67.44   0
       122    642.2184    852.2823 307.6463429  +6.3398173     3483.805     5047.778     5020.326     77.93659     155.9354     312.3372      1.493     3.55      854.686     55.06546     551.2001        23     1.359     0.864  65.17   0
       123    830.6863    851.4006 307.5681135  +6.3464846     1581.356     2235.039     2293.338     77.56219     155.7486     312.0885      1.614     4.21     852.2606     55.06546     196.0404        17     1.313     0.846  53.71   0
       124    184.9455    851.6724 307.8362328  +6.3247270     541.5085     808.3629      1026.47      78.1852      156.122     312.3372      1.919     4.95     854.7603     55.06546     101.5303         6     1.291     0.538  80.25   0
       125    632.7795    851.1737 307.6502995  +6.3399590      1036.21     1622.438     2066.287     77.93659     156.0598     312.3061      1.668     4.41     854.7705     55.06546     160.4761        10     1.172     0.727  65.74   2
       126    635.1099    846.8164 307.6494783  +6.3418359     2176.217      3370.74     3877.117     78.06099     155.9976     312.3061      1.596     4.30     854.6348     55.06546     312.6486        16     1.383     0.710  68.17   2
       127    957.6558    850.4091 307.5154234  +6.3511337     799.7284     1443.414     1525.291     77.68719     156.1841     312.1196      1.792     4.67     848.7103     55.06546     134.8928         8     1.259     0.492  69.02   0
       128    918.7195    845.0873 307.5317699  +6.3520312     3260.665      4961.75     5142.102     78.06099     156.4944     312.5235      1.589     3.71     850.0374     55.06546     460.4368        23     1.434     0.871  70.25   0
       129    328.8861    845.6407 307.7766702  +6.3320539     1008.436     1472.525     1739.515      78.3092     156.1841     312.4304      1.529     2.96     856.4213     55.06546     200.0406        11     1.034     0.665  70.24   0
       130    376.8737    840.8860 307.7569050  +6.3356278     2881.731     4045.489     3934.906     78.43301     156.5564     312.3993      1.507     3.66     855.5346     55.06546     456.1221        22     1.578     0.819  57.87   0
       131    513.1595    830.6495 307.7006599  +6.3444251     3298.915      4734.94      4828.16     78.43301     156.2462     312.3372      1.503     3.36     854.3044     55.06546     499.6649        22     1.280     0.911  68.45   0
       132    857.8106    830.0600 307.5575660  +6.3562012     1083.058     1577.731     1958.382     77.68719      156.122     312.1196      1.487     3.54     851.2191     55.06546      184.486        10     1.054     0.651  66.64   0
       133    579.0016    828.7172 307.6733849  +6.3474291     745.8294     942.1665     590.9843     77.56219     155.8109     312.1196      1.454     5.53     854.2227     55.06546     154.9606         8     1.155     0.747  36.52   0
       134    559.9149    826.7339 307.6813771  +6.3476085     6548.922     9438.732      10175.8     78.43301     156.4944     312.4614      1.531     3.55      854.114     55.06546     1026.049        25     1.364     0.867  62.62   0
       135    271.4489    826.9106 307.8011509  +6.3378571     744.8679     971.5605     799.9536      78.3092     156.0598     312.4925      1.469     5.79      855.785     55.06546      122.824        10     1.399     0.675  53.22   0
       136    566.8448    825.9429 307.6785262  +6.3481672     1380.628     1882.805     2237.846      78.3092     156.2462     312.4304      1.431     3.28     854.0875     55.06546     207.9932        12     1.044     0.744  59.24   0
       137    477.6921    825.6968 307.7155539  +6.3452808     1616.509     2296.882      2463.83      78.3092     156.7422     312.3682      1.461     3.78     854.1735     55.06546     254.2142        15     1.277     0.711  73.26   0
       138    119.2624    824.9106 307.8644088  +6.3335656     1531.347     2333.181     2377.398      78.3092     156.3704     312.4614      1.573     4.19     853.2922     55.06546     214.1757        18     1.357     0.853  60.92   0
       139    895.6460    824.8450 307.5420297  +6.3596179     1399.086     2043.936     1672.769      78.3092     156.2462     312.3993      1.443     4.78     850.0768     55.06546     229.5731        15     1.476     0.630  60.48   0
       140    695.5669    823.8232 307.6251466  +6.3533520     750.3604     1214.534     1043.917       77.812     156.0598     312.2129      1.532     5.01     853.7751     55.06546     95.79901         9     1.257     0.564  60.02   0
       141    530.5892    820.6425 307.6937592  +6.3491407     21272.36     30407.13      31868.3     77.68719     156.0598     312.1507      1.537     3.37     853.8801     55.06546     3113.476        42     1.480     0.970  62.62   0
       142    371.7880    822.7006 307.7596295  +6.3429648     822.9898     1077.921     1022.829     78.06099     155.9976     312.1818      1.218     4.47      854.927     55.06546     115.3489         8     1.063     0.535  56.60   0
       143    944.2299    818.8824 307.5220548  +6.3637015     3857.948     5955.209     6304.983      78.1852     156.0598     312.3682      1.612     3.63     848.4955     55.06546     613.3582        28     1.576     0.887  69.67   0
       144    177.2288    820.3777 307.8404934  +6.3373869     532.3158     840.8243      363.918       77.812     156.0598      312.275      1.719     4.94     854.0821     55.06546     76.68445         5     1.085     0.637  61.97   0
       145     40.8834    811.0112 307.8974224  +6.3366653     1486.376     2190.674     1999.213     77.93659     155.9976      312.244      1.471     4.22     852.7097     55.06546     217.6776        13     1.247     0.670  74.14   0
       146    323.1873    809.2501 307.7802633  +6.3468860     3687.967      5325.54      5276.48     77.68719     156.1841     312.1196      1.516     3.47     855.0302     55.06546      512.826        23     1.334     0.868  67.77   0
       147    788.7923    805.1891 307.5870603  +6.3641628     58287.73     85293.91     88960.99     77.93659     156.0598     312.3372      1.529     3.46     851.8239     55.06546     8409.862        71     1.570     1.093  62.01   0
       148     23.2663    807.2764 307.9048634  +6.3376138     2317.378     3323.252     3658.263     78.43301     156.3083     312.3682      1.574     3.75     852.6355     55.06546      326.049        18     1.365     0.782  58.02   0
       149    727.4277    806.7619 307.6124894  +6.3614615     581.3497      945.666     1149.751     77.93659     155.9976      312.244      1.664     4.12     853.4204     55.06546     77.90918         7     1.010     0.479  81.97   0
       150    245.5588    781.5701 307.8134307  +6.3557052     761720.8      1685539      1868632     77.93659      156.122      312.244      2.257     4.88     854.1456     55.06546     63870.98       611     2.834     2.026  80.09   4
       151    717.0385    799.7893 307.6170377  +6.3639927     22688.18     33635.77     36101.05     77.81199     156.0598     312.1196      1.567     3.51     853.3068     55.06546     3406.768        48     1.642     0.995  64.60   3
       152    710.7179    796.2369 307.6197817  +6.3652478     94237.99       135400     141723.7      78.3092     156.2462     312.3682      1.543     3.41     853.0971     55.06546     13718.33        82     1.590     1.094  64.88   3
       153    432.2386    803.3484 307.7351803  +6.3529826     674.6078       944.42     1298.699       78.061     156.2462     312.3682      1.461     3.75     853.2276     55.06546     104.4177         5     0.916     0.441  47.02   0
       154    335.4174    803.0049 307.7753955  +6.3498748     1468.914     1592.775     1606.022     77.93659     155.8732      312.244      0.834     1.89     854.6898     55.06546        573.3         5     0.828     0.346 -48.85   0
       155    914.0565    800.4379 307.5352027  +6.3703091     8858.582     12915.07     13694.63      78.3092     156.3083     312.3993      1.569     3.56     848.7844     55.06546     1265.718        32     1.480     0.949  62.84   0
       156    533.3502    801.0952 307.6932704  +6.3573031     562.6786     653.7505     532.7637      78.1852      156.122     312.5546      1.310     3.50     853.0886     55.06546     102.0698         5     0.828     0.428  72.71   0
       157    355.5984    797.1060 307.7672145  +6.3529877     21534.29     31559.24     33343.09       77.812     155.9354     312.0575      1.535     3.44     854.2043     55.06546     2925.362        49     1.530     1.055  64.45   0
       158    417.4409    794.9396 307.7416081  +6.3559577     23734.43     34142.77     36086.08      78.3092     156.2462     312.4925      1.515     3.33     852.9642     55.06546     3277.765        49     1.501     1.047  62.70   0
       159    404.7255    797.0995 307.7468152  +6.3546393     1573.423     2145.606      2691.78       77.812     156.3704     312.3061      1.472     3.34     853.2491     55.06546     254.5083        13     1.157     0.735  66.96   0
       160    644.0449    796.6520 307.6474539  +6.3628452     969.2776     1352.157     1509.935      78.3092     156.1841     312.3993      1.567     3.78     853.1727     55.06546     158.5034         9     1.087     0.535  59.62   0
       161    954.6614    794.0764 307.5185541  +6.3742909     2119.805     3115.499     3207.892     78.55663     156.2462     312.3993      1.577     3.63     847.6317     55.06546     322.1931        19     1.333     0.847  64.09   0
       162    910.9970    791.8729 307.5367602  +6.3737430     6800.753     10434.79     11098.33       77.812     155.8109      312.244      1.623     3.67     848.6605     55.06546     986.9854        32     1.523     0.970  59.37   0
       163    883.6443    792.7858 307.5480882  +6.3724527     851.2098     1036.185     1358.428     77.68719     156.0598     312.1507      1.435     4.25      849.564     55.06546     119.7098         7     1.194     0.430  49.11   0
       164    651.5843    790.8821 307.6445171  +6.3654796     6947.338     10043.06     10493.89     77.93659     155.9354      312.275      1.522     3.50     852.8654     55.06546     1033.415        30     1.460     0.910  62.73   0
       165    391.0161    790.6811 307.7527242  +6.3568290     471.9295     726.2567     761.1929     77.93659     155.9354      312.244      1.777     4.16     853.3185     55.06546     94.14642         6     1.114     0.444  73.12   0
       166    440.3410    788.7114 307.7323087  +6.3592972     1828.351     2604.967         2605      78.1852     156.2462     312.4925      1.511     3.94     852.8535     55.06546     269.4714        16     1.248     0.962  71.05   0
       167    165.7741    788.4405 307.8463279  +6.3501864     977.2542     1148.812     649.2578     77.93659     156.0598     312.2129      1.383     3.95     853.0396     55.06546     154.8251        12     1.138     0.724  81.25   0
       168    739.8133    785.8287 307.6080491  +6.3705180     577.6115     1115.763     760.2803     77.93659     155.9976     312.3061      2.009     5.27     852.3914     55.06546     82.44519         7     1.219     0.644 -88.43   0
       169    604.5587    783.0157 307.6643091  +6.3671527     929.8068      1240.11     1327.088     77.81199     155.9976     312.1818      1.357     4.29      852.381     55.06546     139.7645        10     1.190     0.576  63.45   0
       170    130.7969    781.7054 307.8610789  +6.3517902     1038.504     1611.465     1165.054     78.06099     155.9354     312.1507      1.606     4.49     852.3776     55.06546     185.1092        14     1.594     0.666  74.90   0
       171    879.2031    782.6226 307.5502732  +6.3765003     701.4885     998.1471     713.3022     77.93659     155.9354     312.2129      1.733     4.44     849.4089     55.06546      142.365         7     1.110     0.506  63.67   0
       172    686.5679    780.9778 307.6303227  +6.3707394      2485.37     3771.298     3745.813     77.81199     156.0598     312.2129      1.533     3.44     852.2941     55.06546     386.4676        20     1.318     0.872  69.27   0
       173    155.7846    781.7026 307.8507034  +6.3526320      1110.64     1522.811     1174.732      78.3092     155.9976     312.1818      1.429     2.47     852.6819     55.06546      173.924         9     0.857     0.642 -69.29   0
       174    420.3885    777.6409 307.7409668  +6.3631982     56600.39     82344.52      86206.1     77.68719     156.0598     312.1196      1.555     3.38     852.5356     55.06546     7707.735        68     1.535     1.110  62.42   0
       175    963.4753    779.4755 307.5153831  +6.3806130     772.3328     1061.181     818.1875     78.55663     156.4944     312.4925      1.493     5.25     847.0874     55.06546     96.87665         9     1.208     0.644  37.94   0
       176     72.8160    779.4852 307.8852290  +6.3507553      460.489     787.1071     422.5282     77.93659     155.9976     312.3061      1.739     3.75     851.9459     55.06546      83.5965         5     1.069     0.377  84.86   0
       177    538.1075    776.5975 307.6921191  +6.3675763     7634.931      10861.8     11104.82       77.812     155.9354     312.0885      1.521     3.47      852.036     55.06546      1139.89        28     1.471     0.860  67.49   0
       178    454.9584    775.2565 307.7266920  +6.3653422     4775.566     6768.509     7189.183      78.1852     156.1841     312.4304      1.495     3.52     852.5057     55.06546     733.8338        25     1.416     0.849  60.00   2
       179    451.5053    768.6431 307.7283486  +6.3679567     2351.298     3422.804     3571.666      78.3092     156.1841     312.5235      1.512     3.46     852.3415     55.06546     350.1685        19     1.369     0.748  66.80   3
       180    783.3406    773.3254 307.5903936  +6.3771355      12517.9     18115.13      18894.9     78.55663     156.2462     312.3682      1.561     3.56     850.7109     55.06546     1730.512        38     1.452     1.002  62.67   0
       181     12.7768    769.4057 307.9104995  +6.3528945     1346.712     1907.653     2056.625       77.812     155.9976      312.275      1.498     3.12     851.8269     55.06546     216.7191        11     1.009     0.700  57.98   0
       182    805.2242    767.4918 307.5815018  +6.3802754     1295.236     1663.354     1472.998     78.43301     156.0598      312.244      1.561     4.52     850.0339     55.06546     204.3831        11     1.205     0.640  63.50   0
       183    149.1705    765.4490 307.8539987  +6.3591195     3299.631     4852.639     5109.158     77.93659     156.3083     312.3061      1.626     3.48     852.1063     55.06546     496.3949        24     1.343     0.930  62.86   0
       184    133.3669    756.1092 307.8608763  +6.3624436     1897.135     2788.033     3223.051     78.43301      156.122     312.3993      1.468     3.84     851.7396     55.06546      287.099        16     1.365     0.725  69.20   3
       185    141.1147    765.2227 307.8573513  +6.3589419     12192.67     18039.97     19139.41      78.3092     155.9976     312.3061      1.551     3.44     852.0376     55.06546     1800.973        38     1.499     0.985  62.11   2
       186    133.3515    762.6932 307.8606603  +6.3597250     3046.161     4669.044     5310.498      78.1852      156.122     312.5235      1.732     3.61     851.9179     55.06546     448.3467        24     1.552     0.908  49.91   3
       187    928.8882    761.8881 307.5303355  +6.3867196     6608.333     9951.735     10288.28     78.06099     156.7422     312.4925      1.586     3.71     847.3039     55.06546     951.2197        30     1.458     0.944  60.13   0
       188    978.2365    761.7905 307.5098456  +6.3884068     1525.657     2248.633     2889.128       77.812     155.9976     312.1507      1.515     3.85     846.3537     55.06546     232.4008        13     1.178     0.751  58.46   0
       189    684.3819    759.3865 307.6319558  +6.3795802     1810.461     2574.649     2931.761     77.93659     155.9354     312.3061      1.539     3.63     851.0233     55.06546     282.4169        14     1.167     0.796  64.61   0
       190    571.3408    758.8021 307.6789173  +6.3760365     2610.009     4007.432     3697.048     77.68719     155.9354     312.1196      1.606     3.51      851.186     55.06546     374.9846        21     1.420     0.865  66.21   0
       191    419.2602    758.2983 307.7420868  +6.3711457     1268.063     1787.535     2233.586       78.061     156.1841     312.5235      1.653     4.57     852.0233     55.06546     173.4484        13     1.212     0.718  62.86   0
       192    703.1627    757.4072 307.6242232  +6.3810258     451.7647     756.3464     472.1651     77.56219     156.0598     312.1507      1.618     4.52     850.8896     55.06546     108.1047         6     1.206     0.481  42.22   0
       193    952.7360    753.3239 307.5207191  +6.3910513     3184.771     5021.424     4912.743     78.55663     156.2462     312.3682      1.662     3.80     846.6046     55.06546     425.5244        24     1.448     0.926  56.86   0
       194    923.0923    753.7241 307.5330160  +6.3898966     3125.257     4735.714     4968.511      78.1852     156.4324     312.3993      1.668     3.90     847.2642     55.06546     442.7665        23     1.507     0.874  62.41   0
       195    675.6250    753.3484 307.6357951  +6.3817799     1686.635     2476.547      2665.56     77.93659     156.2462     312.3061      1.611     3.72      850.681     55.06546     231.2728        17     1.285     0.793  54.74   0
       196    983.4612    753.0775 307.5079677  +6.3921783     2069.383      3085.92     3357.909     78.55663     156.3083     312.3682      1.567     3.58     846.0212     55.06546     268.9788        17     1.242     0.841  61.87   0
       197    822.8123    751.5306 307.5747335  +6.3874527     1076.814     1773.346     2058.941       77.812     156.0598      312.275      1.643     3.21     849.2792     55.06546     174.3091        12     1.123     0.696  64.04   0
       198    898.1005    749.5613 307.5435341  +6.3907808     784.2698     1115.388     1785.565      78.3092      156.122     312.6166      1.698     3.56     847.8422     55.06546     150.7303         9     0.959     0.637  74.65   0
       199    248.0647    748.2422 307.8135147  +6.3695484      2227.07     3342.933     4397.674      78.3092     156.1841     312.4304      1.646     4.96      852.606     55.06546     337.4824        18     1.422     0.809  58.18   0
       200    940.9015    743.2670 307.5259707  +6.3948084     1137.732     1651.351      1572.18      78.3092     156.3704     312.3993      1.518     4.59     846.5789     55.06546     166.5325        14     1.308     0.798  62.41   0
       201    267.9414    743.2785 307.8054284  +6.3722656     810.2956     1048.271      1045.31     78.43301     156.2462     312.3372      1.410     4.05     852.8256     55.06546      130.317         9     1.062     0.714  54.86   0
       202    163.3130    742.9068 307.8488875  +6.3689014     841.4589     1112.123     1028.684      78.3092     156.6803     312.4925      1.341     3.89     851.5299     55.06546     120.9452         9     1.077     0.607  78.41   0
       203    914.7210    742.2119 307.5368783  +6.3943700     1077.346     1600.788     1665.056     77.93659     155.9354      312.244      1.669     3.37     847.1571     55.06546     208.7608        10     1.041     0.621  67.58   0
       204    967.4496    741.0720 307.5150192  +6.3966006     2540.496     3810.726     3985.921      78.3092     156.3083     312.4304      1.542     3.40     846.0195     55.06546     372.9042        21     1.297     0.930  50.38   0
       205    687.0131    740.0075 307.6315142  +6.3876688     982.0523     1534.417     2469.906     77.93659     156.0598     312.3061      1.518     3.34     849.9201     55.06546     188.0909         9     1.104     0.532  65.00   0
       206   1009.0519    734.4771 307.4979633  +6.4007113     1590.199     2490.792     2512.867     78.43301     156.3083     312.3993      1.715     3.70     845.0189     55.06546     244.7703        18     1.286     0.920  60.33   0
       207    478.4283    735.6842 307.7182782  +6.3824664     506.1092     771.4229     886.7537      78.3092     155.9354      312.275      1.609     3.42      851.462     55.06546     83.14294         5     1.100     0.307  68.45   0
       208    407.9056    735.3517 307.7475749  +6.3802380     793.3315     950.7368     1186.656      78.1852      156.122     312.5235      1.312     4.44     851.4368     55.06546     131.7158         8     1.173     0.478  63.18   0
       209    635.5684    733.9710 307.6530806  +6.3884390     880.1514     1323.448     1197.109     77.81199     155.9976     312.1507      1.635     4.49     849.9581     55.06546     126.5959        12     1.118     1.001  83.52   0
       210    904.0355    734.0307 307.5415901  +6.3973908     437.2928     566.1019     667.0211     77.93659     155.9976     312.1818      1.321     3.76     847.2513     55.06546      76.3576         5     0.648     0.627  -2.25   0
       211    810.5913    733.3933 307.5804171  +6.3945323     1312.111     1653.429     1944.768     77.68719     156.0598      312.244      1.398     3.76     848.7882     55.06546      207.093        13     1.113     0.793  58.53   0
       212    940.9207    731.9864 307.5263407  +6.3994662     4166.416     4160.644      4383.16     77.93659     155.9976     312.1818      0.427     1.83     846.3528     55.06546     3272.238         6     0.360     0.295  36.33   0
       213    896.7435    730.2518 307.5447450  +6.3987074     1638.583     2486.936     2615.532      78.3092     156.2462     312.3993      1.577     4.20     847.3516     55.06546     269.8252        17     1.481     0.730  58.02   0
       214    871.3384    725.5670 307.5554524  +6.3997931     1080.203     1690.616     2055.928       78.061     156.3083     312.3372      1.659     3.83     847.8863     55.06546     158.9462        13     1.192     0.748  58.53   0
       215    853.8466    721.8232 307.5628421  +6.4007544     1491.576     2211.479     2374.933     77.93659     156.2462      312.275      1.447     3.99     848.0577     55.06546     249.1884        16     1.382     0.709  58.97   0
       216    117.1206    719.6295 307.8688549  +6.3769568     1041.325     2104.227     2142.253      78.1852     156.2462     312.3682      2.222     6.96     850.8674     55.06546     142.5964        18     1.962     0.691  68.06   0
       217     52.8528    720.5414 307.8955109  +6.3744168     2723.144     3994.871     3936.945      78.3092     156.2462     312.3993      1.538     3.69     851.0759     55.06546     378.7979        23     1.327     0.960  77.14   0
       218    571.1370    715.8068 307.6804480  +6.3937801     612.1338     843.1624     617.9036     77.68719     156.0598     312.1818      1.540     4.51     849.9399     55.06546     97.16431         7     0.970     0.596  15.64   0
       219    708.3955    711.7431 307.6235840  +6.4000531     472.9962     724.8609     656.6346     77.68719      156.122     312.1196      1.340     4.14     849.3178     55.06546     80.72552         6     0.923     0.530  47.94   0
       220    665.4664    709.1512 307.6414988  +6.3996866     6876.893     9762.258     10576.78      78.1852      156.122     312.3993      1.501     3.43     849.5334     55.06546     993.5815        27     1.395     0.863  65.11   0
       221    612.2404    708.4818 307.6636251  +6.3981809     1423.857     2160.168     2808.128      78.3092     156.3083     312.3372      1.676     4.15     849.8365     55.06546      211.913        14     1.304     0.795  62.18   0
       222    523.1089    708.9719 307.7006229  +6.3949923      980.559     1365.414     1117.931     78.43301     155.9976      312.275      1.468     5.21     850.1824     55.06546     146.4338        12     1.286     0.748  52.87   0
       223    533.8727    708.8700 307.6961564  +6.3953952     754.9454     994.3632     728.7526     78.43301     156.3704     312.3993      1.464     2.31     850.0236     55.06546     157.5794         6     0.725     0.544  57.92   0
       224    128.5663    705.0191 307.8645957  +6.3833736     3912.865     5862.105     6189.006     77.81199     156.0598     312.2129      1.608     3.55     850.5233     55.06546     504.0038        23     1.433     0.891  57.28   0
       225   1002.5054    704.5225 307.5016852  +6.4128597     2583.449     3808.234     4023.608       78.061     156.4324     312.4614      1.631     3.95     844.4401     55.06546     345.9417        21     1.383     0.894  70.32   0
       226    639.6520    704.9529 307.6523602  +6.4005557     2267.688     3462.129     4012.203     78.43301     156.1841     312.4304      1.639     3.99     849.6414     55.06546     336.1878        19     1.396     0.947  38.18   0
       227    315.0433    705.0644 307.7871579  +6.3896241     795.4841     1077.524     1091.385      78.3092     156.1841     312.3993      1.393     4.51     851.0449     55.06546     128.6787         9     1.200     0.499  59.67   0
       228    782.3759    701.2796 307.5932123  +6.4068472     21438.48     30848.37      32146.7     77.93659     155.9976     312.3993      1.526     3.52     848.4998     55.06546     2940.117        44     1.503     0.978  63.72   0
       229    250.8405    704.6688 307.8138323  +6.3876303     716.5306     976.7436      1119.15      78.1852     156.2462     312.4925      1.512     4.50     850.6913     55.06546     97.12958         8     1.153     0.499  58.40   0
       230    481.4915    701.5272 307.7181561  +6.3966705     1634.863     2163.976     2559.978      78.1852     156.4324     312.4304      1.603     3.59     850.6137     55.06546     222.1556        13     1.153     0.721  68.65   0
       231    912.4088    701.0286 307.5392190  +6.4112953     3899.587     5467.647     5753.469     77.93659     156.0598      312.244      1.517     3.49     846.5277     55.06546     535.3177        20     1.265     0.861  62.36   0
       232    510.1892    701.3873 307.7062434  +6.3976905     1043.787     1444.311     1732.363     78.06099     155.9976     312.3682      1.667     4.89     850.2219     55.06546      156.715        11     1.277     0.604  59.16   0
       233    327.3696    701.4072 307.7821625  +6.3915479      691.936     895.8873     1020.575       77.812     156.0598     312.1818      1.234     3.45     850.7686     55.06546     136.6669         5     0.759     0.452  18.32   0
       234    283.4297    701.2706 307.8004139  +6.3901283     536.7025     609.4477     106.4791      78.1852     156.2462     312.3682      1.252     3.50     850.9938     55.06546     89.33173         5     0.775     0.457  72.33   0
       235    662.8743    694.1485 307.6430794  +6.4057936     7408.018     10818.76     11452.24      78.3092     156.3083     312.4304      1.520     3.45     849.4025     55.06546     1125.235        32     1.427     0.965  63.46   0
       236    255.8829    694.8894 307.8120684  +6.3918370     6646.431     9599.176     10017.05     78.06099     156.4944     312.4304      1.501     3.28     850.2953     55.06546     1044.493        28     1.386     0.905  66.38   0
       237    645.2117    695.1003 307.6503825  +6.4048094     1020.851     1436.089     1786.879     78.06099     155.9976     312.1818      1.422     3.66      849.513     55.06546     138.2931         9     0.943     0.666  74.09   0
       238    358.1362    694.1211 307.7696318  +6.3955891     771.7487     1119.247      1165.97     78.55663     156.3083     312.3993      1.474     5.48     850.3736     55.06546     108.9395         9     1.369     0.619  69.95   0
       239    922.9368    686.9278 307.5353195  +6.4174684      1362.01     1844.069     1800.823      78.3092     156.2462     312.4614      1.396     3.48     846.1392     55.06546     203.7777        13     1.177     0.667  73.65   0
       240    734.6312    682.6048 307.6136673  +6.4129605     3836.345     5813.779     6082.306     77.68719      156.122     312.1818      1.625     3.60     848.4938     55.06546     582.6184        25     1.403     0.889  63.89   0
       241   1000.9642    679.1624 307.5031747  +6.4232783     9265.356     14087.74     14459.83     78.06099      156.122     312.1818      1.591     3.63     843.8712     55.06546     1265.997        40     1.515     1.091  67.88   0
       242    939.4418    679.5309 307.5287128  +6.4210732     2469.049     3808.001      3422.61      78.1852     156.2462     312.4614      1.602     3.79     845.6755     55.06546     351.8154        21     1.390     0.865  61.35   0
       243    690.0464    682.8987 307.6321731  +6.4113475     1083.834     1441.265     1223.028      78.3092      156.122     312.5856      1.385     3.80     849.0386     55.06546     169.0685        10     1.155     0.643  65.56   0
       244     20.1029    678.8264 307.9105208  +6.3905349     1867.514     2801.169     3288.108     78.43301     155.9976     312.3372      1.610     3.73     851.3538     55.06546     270.4127        16     1.307     0.830  49.55   0
       245    436.6799    676.8174 307.7375975  +6.4053687     563.0387     931.2797     1220.131     77.93659     155.9354     312.3061      1.779     3.86     849.9899     55.06546     86.33936         6     1.316     0.324  74.75   0
       246     78.2985    673.8806 307.8865219  +6.3945365     27106.85     39540.38     41075.99      78.1852     156.6184     312.4614      1.529     3.35      850.425     55.06546     3795.173        55     1.526     1.065  64.12   0
       247    539.5901    674.8320 307.6949274  +6.4096391     2204.127     3170.062     2788.939       77.812     155.9976      312.244      1.543     3.75     849.5349     55.06546     287.7544        21     1.280     0.992  78.76   0
       248    276.6558    674.6274 307.8041257  +6.4009000     603.8682     773.9228     652.6744     77.93659     156.3083      312.244      1.466     4.04      849.517     55.06546     85.45227         5     1.176     0.397  37.35   0
       249    508.0697    671.9525 307.7081143  +6.4097714     1488.023     2120.373     2403.903      78.3092     156.1841     312.4304      1.522     3.59     849.6871     55.06546     218.4142        13     1.196     0.717  72.98   0
       250    929.4595    671.0776 307.5331418  +6.4242299     1071.273     1468.261     721.2482     78.43301     156.2462     312.3682      1.412     4.24     845.8137     55.06546     182.8884        10     1.158     0.715  89.68   0
       251    548.7245    668.6157 307.6913431  +6.4125116     1140.878     1621.602     1750.556       77.812     155.9976      312.275      1.548     4.78     849.3566     55.06546     155.1928        10     1.081     0.662  71.75   0
       252    724.2723    666.3300 307.6185159  +6.4193330     3663.884     5154.479     5513.104     78.43301     156.3704     312.3682      1.504     3.65     848.2985     55.06546     491.6349        21     1.306     0.841  65.34   0
       253    746.3181    664.4406 307.6094237  +6.4208504     4587.877     6496.148     6573.994      78.3092     156.3083     312.3372      1.525     3.46     848.0402     55.06546     635.3266        24     1.325     0.869  61.99   0
       254    413.9094    663.0412 307.7475178  +6.4102921     1517.906     2217.489     2615.318      78.3092     156.2462     312.4304      1.596     3.71     849.5898     55.06546     213.9526        13     1.194     0.689  80.16   0
       255    577.6978    662.3237 307.6795224  +6.4160800         3496      5065.78     4770.134     77.93659     156.4944     312.3993      1.515     3.46     849.1278     55.06546     562.2461        23     1.365     0.854  56.78   0
       256   1019.3029    660.5897 307.4961804  +6.4315578      5168.14     7877.936     8190.705       78.061     155.8732     293.2379      1.656     3.65     842.7342     55.06546     728.2285        30     1.573     0.921  63.13  16
       257    238.3717    661.9048 307.8204533  +6.4048656     1908.927     2618.062     3161.435     78.43301     155.9976     312.3372      1.516     3.66     848.8724     55.06546     268.0977        17     1.340     0.768  54.19   0
       258    984.5850    659.4763 307.5106365  +6.4308593     8447.198     12242.37     12818.39       77.812     155.9976      312.244      1.577     3.57     843.7058     55.06546     1198.437        35     1.469     0.974  63.59   0
       259    321.9846    661.0980 307.7857580  +6.4080082     1371.124     2184.791      2019.23      78.3092     155.9976     312.1507      1.642     3.92     849.1974     55.06546     206.5388        13     1.234     0.667  72.70   0
       260    538.7077    660.4443 307.6957779  +6.4155494     758.0542     1137.521      1340.47      78.3092     156.1841     312.5235      1.492     3.79     849.1235     55.06546     141.3585         6     1.251     0.329  59.36   0
       261    704.5217    658.2493 307.6269897  +6.4220083     1079.306     1463.926      1449.21      78.3092     156.3083     312.3682      1.468     4.45     848.3575     55.06546     169.6049         9     1.195     0.474  81.73   0
       262     95.8573    656.4415 307.8798198  +6.4023270     1067.162     1295.014     1220.217      78.1852     156.2462     312.4304      1.339     3.22      849.776     55.06546     161.0006        10     0.953     0.686 -87.84   0
       263    429.8491    653.9245 307.7412054  +6.4145907     2933.517     4273.895     4948.883      78.1852     156.3083     312.3993      1.545     3.50     849.3367     55.06546     447.8433        20     1.349     0.821  58.34   0
       264    811.5121    653.6090 307.5827120  +6.4275020      1317.33     1753.813     2061.194     77.93659     155.9354     312.1818      1.520     4.42     847.2206     55.06546     185.8547        15     1.440     0.710  58.39   0
       265    143.0444    652.8090 307.8603473  +6.4054147     25503.37     37250.67     38363.09       77.812      156.122     312.1507      1.526     3.45      849.358     55.06546     3812.426        48     1.495     1.043  61.68   0
       266    362.3499    648.2969 307.7694266  +6.4146485     766.8816     1060.414     1005.158      78.1852     156.1841     312.5546      1.310     4.76     848.8336     55.06546     139.8942         8     1.037     0.619  82.35   0
       267    979.5041    642.4339 307.5133176  +6.4377258     7235.743     11112.05     11729.94     78.43301      156.122     312.5235      1.690     4.01     843.2584     55.06546      970.181        32     1.613     0.936  53.86   0
       268    573.0257    637.7110 307.6822906  +6.4260847     51786.54     73367.53     76899.53     78.43301     156.0598      312.244      1.505     3.38     848.3693     55.06546     7974.854        68     1.521     1.082  63.11   0
       269     24.0042    641.4318 307.9101655  +6.4061038     1281.659     1910.192     2161.406     77.68719      156.122     312.1818      1.619     3.80     850.7932     55.06546     211.9393        13     1.195     0.745  65.45   0
       270    937.7076    638.7289 307.5308006  +6.4378604     692.3978     1023.321     1074.304      78.1852     156.3704     312.4304      1.515     4.32     844.5048     55.06546     108.4223         7     0.968     0.550  59.27   0
       271    216.2990    639.0872 307.8303898  +6.4135435     645.9771     1047.849     1267.383      78.3092     156.6803     312.4304      1.735     3.88     848.5107     55.06546     118.3938         5     0.869     0.496  40.34   0
       272    797.6229    637.2094 307.5890307  +6.4338083     641.8233     871.4277     922.3723     77.93659     155.9976      312.244      1.548     5.61     847.0111     55.06546     122.7451         9     1.362     0.652  66.17   0
       273    532.5414    637.9055 307.6990972  +6.4246477     739.0959     1162.235     913.6548      78.1852     156.2462     312.5235      1.615     4.62     848.4993     55.06546      104.486         8     1.053     0.576  70.37   0
       274    180.4911    634.3301 307.8454207  +6.4143032     2947.926     4192.372     4052.688      78.3092     156.3704     312.3993      1.517     3.59     848.7753     55.06546     394.0334        20     1.297     0.834  65.59   0
       275    984.1570    634.4449 307.5116528  +6.4411793     667.6122     916.2386     834.0601      78.3092     156.2462     312.3061      1.451     3.99     842.8452     55.06546     98.14874         6     1.003     0.463  59.26   0
       276    503.2893    634.6852 307.7113540  +6.4249966     629.0908     807.0026     933.3149       78.061     156.4944     312.5235      1.276     3.72     848.6248     55.06546     135.6085         6     1.038     0.383  75.46   0
       277     73.3539    628.7700 307.8901002  +6.4129930       1349.8      1884.29      2193.63       77.812     156.3083      312.275      1.529     3.99     849.6726     55.06546     194.9476        13     1.225     0.652  59.97   0
       278    470.3019    621.4819 307.7254982  +6.4293413     67462.88     95839.72     99896.11      78.3092     156.6184     312.4925      1.528     3.32     848.3755     55.06546       9734.5        67     1.522     1.081  62.95   0
       279     14.0497    623.1365 307.9149181  +6.4133213     1865.856     2534.297     3023.083      78.3092     156.1841     312.4614      1.441     4.24     850.6964     55.06546     248.4861        15     1.274     0.788  68.77   0
       280    656.2126    618.6082 307.6483849  +6.4367571     946.9044     1244.766     1056.797     77.93659     156.0598     312.3372      1.541     4.90     847.5402     55.06546     136.0845        12     1.227     0.671  73.22   0
       281    144.7099    616.3094 307.8608887  +6.4205389     1782.207     2599.963     2164.579      78.3092     156.7422     312.4925      1.548     3.72     848.7691     55.06546     274.8677        18     1.295     0.823  56.51   0
       282    940.0420    614.6010 307.5306397  +6.4478996     719.7803     721.2165     758.3917     77.68719     155.9354     312.0885      1.184     3.95     843.6578     55.06546     149.3796         7     0.969     0.561  55.69   0
       283    423.8656    614.3272 307.7450243  +6.4307373      1002.69     1312.091     1562.849     78.43301     156.3083     312.3993      1.549     4.70     848.1716     55.06546      141.144         9     1.284     0.558  67.92   0
       284    616.3394    613.1940 307.6651267  +6.4376573     909.9099     1343.983     1120.839     77.68719      156.122     312.1818      1.319     4.36     847.4597     55.06546     153.0775        12     1.275     0.671  54.36   0
       285    498.3674    612.4019 307.7141482  +6.4340311     491.7016     851.7089     1429.374     77.56219     156.0598     312.1818      2.002     4.18     847.9828     55.06546     78.69086         5     1.238     0.402  54.36   0
       286    315.8013    610.7483 307.7900239  +6.4285868     2295.245     3514.164     3733.647     77.68719     155.8732     311.9642      1.614     3.62     847.2277     55.06546     331.9704        16     1.228     0.805  70.19   0
       287     16.7058    612.1013 307.9141884  +6.4179663     753.5595      969.197     1657.685      78.3092     156.8042      312.244      1.396     2.62     850.4659     55.06546     124.0323         7     0.733     0.636  83.10   0
       288    467.9340    609.8237 307.7268742  +6.4340749     954.5958     1583.861     2535.511     77.93659     156.2462     312.3372      2.129     2.54     848.0551     55.06546     167.6049         9     0.792     0.723  71.39   0
       289    742.3267    605.0602 307.6130755  +6.4452320     5594.303     7752.731     8220.939     78.43301     156.2462     312.4304      1.420     3.41     847.1694     55.06546     819.6962        27     1.387     0.863  65.18   0
       290    795.8976    600.3116 307.5909858  +6.4489838     15036.15     21008.11     21786.75      78.3092     156.6803     312.4304      1.498     3.50     846.2429     55.06546     2258.744        38     1.458     0.933  66.85   0
       291   1013.3536    601.1483 307.5006421  +6.4558999     970.8119     1403.366     1107.124     78.43301     156.1841     312.4614      1.505     4.10     841.0045     55.06546     143.8303         8     1.046     0.526  64.47   0
       292    538.4318    599.1363 307.6979556  +6.4408508     1073.873     2203.877     2658.578     78.06099     156.3083     312.3682      2.321     7.28     847.3376     55.06546     171.0649        17     2.111     0.703 -87.03   0
       293    619.7629    598.3157 307.6642052  +6.4439144     3102.787      4235.79     4196.544      78.3092     156.2462     312.3682      1.448     3.55     847.0886     55.06546     433.7253        20     1.349     0.786  56.19   0
       294     40.9550    599.0375 307.9045600  +6.4241763     703.6747     874.1238     1136.167     78.06099     156.2462     312.3061      1.335     3.39     849.7629     55.06546     119.0983         7     0.888     0.516  47.22   0
       295    937.0128    594.5995 307.5325683  +6.4560562     1205.902     1616.235     2458.285     77.93659     155.9354     312.2129      1.546     5.03     843.2611     55.06546     172.9944        11     1.205     0.623  64.45   0
       296    232.2907    591.9737 307.8253390  +6.4335312     1463.663       2404.5     2573.498     78.43301     155.9976      312.244      1.700     5.25     847.5312     55.06546     203.6234        14     1.426     0.718  70.88   0
       297    195.6381    592.9916 307.8405263  +6.4318785     746.5842     1227.653     1291.272     77.56219     155.9976     312.1507      1.848     4.71     847.9228     55.06546     121.5817         8     1.241     0.506  70.37   0
       298    378.4268    591.9446 307.7646494  +6.4384526     937.2886     1402.689     815.7338     77.93659     156.3083      312.244      1.539     4.38     847.0034     55.06546     157.8781        11     1.273     0.667  64.02   0
       299    871.8869    583.5242 307.5599885  +6.4584538     2999.967     4054.816     4398.341      78.3092     156.5564     312.4614      1.458     3.47     844.8631     55.06546     446.8804        19     1.295     0.801  65.38   0
       300    167.7336    583.6270 307.8524312  +6.4348059      810.671     1529.165     2237.577     77.93659      156.122     312.3372      1.908     4.62     848.0325     55.06546     95.93799         9     1.116     0.747  77.13   0
       301    830.6041    580.9914 307.5772196  +6.4581202     2768.077     4016.993     4715.766     77.68719     155.9354      312.244      1.477     3.45     845.4521     55.06546     395.3861        16     1.247     0.703  66.37   0
       302    801.6373    577.0042 307.5893842  +6.4587981     2545.191     4012.457     4722.888     77.43699     155.9976     312.2129      1.613     3.73     845.8076     55.06546     380.9156        19     1.368     0.816  57.95   0
       303    811.2949    572.1885 307.5855347  +6.4611091       168374     240358.7     251562.6     78.06099     155.9354     312.1507      1.497     3.41     845.5784     55.06546      25169.5       119     1.617     1.143  66.08   0
       304    744.1188    577.2104 307.6132665  +6.4567897     693.8293     1202.842     1196.301     77.93659     155.9354      312.244      1.819     4.93     846.4846     55.06546     112.3735         8     1.446     0.476  75.49   0
       305    258.7091    575.8641 307.8149111  +6.4410698     8298.831     11884.91     11977.46      78.3092     156.4324     312.4304      1.499     3.24     847.0047     55.06546     1222.222        32     1.403     0.950  58.98   0
       306    192.8765    570.3903 307.8424364  +6.4411162      62554.2     91148.78     96496.78     77.93659     155.8109     312.2129      1.567     3.29     847.5084     55.06546     9110.984        77     1.558     1.151  64.50   0
       307    740.8206    572.6193 307.6147906  +6.4585748     633.2782     763.5227     395.7407     78.06099     156.1841     312.3372      1.523     4.92     846.4243     55.06546     107.6224         8     1.116     0.614  80.79   0
       308    116.9191    566.6908 307.8741064  +6.4400878     6655.247     9596.496     9707.195     78.06099     156.4944     312.4304      1.530     3.42     848.1688     55.06546     1005.382        32     1.426     0.975  65.06   0
       309   1002.9712    563.0738 307.5062297  +6.4712727     803.6628      1231.06     1298.751      78.1852     156.2462     312.3682      1.561     5.62     841.3953     55.06546     115.4344        11     1.330     0.669  84.63   0
       310    982.1170    564.0397 307.5148590  +6.4701782      1443.62     2041.503     1832.464      78.3092     156.3083     312.3682      1.497     3.57     841.7734     55.06546     217.0795        11     1.019     0.693  76.70   0
       311    231.4948    562.1251 307.8266771  +6.4458269     968.1356     1601.814     1730.406     78.06099     156.4324     312.3993      1.717     4.17     847.0024     55.06546     142.3342        10     1.033     0.659  33.51   0
       312    847.8283    559.4374 307.5707890  +6.4675943     4819.736     6765.402     6549.342       77.812     155.9354      312.244      1.468     3.63     844.5787     55.06546     731.1401        20     1.361     0.751  66.17   0
       313    366.2749    557.6013 307.7708539  +6.4522229     18131.94     26076.87      27074.7     77.56219     155.6863      312.275      1.533     3.33     845.9927     55.06546      2601.76        44     1.508     1.013  64.84   0
       314    456.4123    557.8913 307.7334083  +6.4551282     767.3615     1044.518     930.7552     78.06099     155.9976     312.1818      1.332     3.88     846.2014     55.06546     117.1133         8     1.008     0.590 -69.10   0
       315    168.3025    556.4517 307.8531128  +6.4460439      2088.15     3245.716     3578.677      78.1852     156.2462     312.6166      1.687     3.62     847.4723     55.06546     314.5186        20     1.370     0.885  59.96   0
       316    243.3690    554.3770 307.8220072  +6.4494248     782.7738     947.0594     539.2816     77.68719     155.9976     312.2129      1.328     4.21     846.7767     55.06546     129.9304         7     0.936     0.540  62.57   0
       317    801.7952    552.7500 307.5901328  +6.4688167     6233.136     8778.753     9165.966     77.68719     156.0598     312.0264      1.473     3.50     845.4407     55.06546     989.5707        28     1.344     0.899  61.47   0
       318    532.6442    552.4435 307.7019308  +6.4599335     6860.408     9978.536     10491.27      78.3092     156.2462      312.275      1.587     3.45     846.1629     55.06546     986.3314        32     1.469     0.947  62.27   0
       319    105.4779    553.7234 307.8792962  +6.4450560     965.2177     1239.564     1050.194     78.55663     156.4944     312.4925      1.239     3.78      848.122     55.06546     145.8626         7     0.944     0.461  76.47   0
       320    390.8665    549.0219 307.7609298  +6.4565904     1508.869     2294.472      2003.98     77.93659     156.2462     312.3372      1.450     3.99     845.7785     55.06546     221.3635        15     1.340     0.712  67.56   0
       321    577.5750    545.6385 307.6834986  +6.4642486     2482.943       4005.3     4052.846     77.93659     156.0598     312.2129      1.766     3.71     846.0501     55.06546     386.5641        22     1.340     1.021 -86.11   0
       322    700.1491    546.8428 307.6325488  +6.4678558     1883.597     1799.313     1417.413     78.43301     156.2462     312.4304      0.919     2.37      845.832     55.06546     547.3649         6     0.864     0.402  35.69   0
       323    179.7061    545.5663 307.8487445  +6.4509213     7280.859     10400.49     10614.66     78.43301      156.122     312.4925      1.527     3.34     847.1625     55.06546     1069.473        27     1.363     0.917  67.36   0
       324    818.5138    545.2346 307.5834411  +6.4724783     1438.637     2135.273     2294.673      78.3092      156.122     312.3993      1.460     3.87      844.897     55.06546     204.7597        12     1.241     0.629  71.37   0
       325    274.8993    542.0350 307.8093288  +6.4555798     91779.62     133311.5     139235.3      78.3092      156.122     312.5546      1.529     3.31     846.2944     55.06546     13868.69        85     1.553     1.147  62.51   0
       326    564.0142    539.4147 307.6893403  +6.4663637     975.8726      1311.41     1426.319     78.06099     155.9354     312.3372      1.416     4.33     845.7453     55.06546      148.574        12     1.063     0.809  64.51   0
       327    258.7348    536.8242 307.8162180  +6.4571877     1670.403     2479.135     1797.835     77.93659     156.2462     312.3372      1.639     4.28     846.1924     55.06546     233.8961        15     1.392     0.705  57.39   0
       328    974.4412    535.8792 307.5189907  +6.4815481     1789.536     2426.191     2493.218      78.1852     156.2462     312.3993      1.403     3.35     841.4977     55.06546     259.8263        16     1.251     0.737  64.66   0
       329    797.9963    534.5151 307.5923227  +6.4762179     17337.08     24506.62      25039.1       77.812     155.8732     312.1196      1.498     3.65     844.9465     55.06546     2679.977        43     1.469     0.993  61.55   0
       330    501.6386    532.9283 307.7154652  +6.4669508     42532.41     66666.16     71441.02      78.1852     156.2462     312.4614      1.698     3.72     845.4078     55.06546     6101.406        79     1.676     1.304  53.41   0
       331    652.4575    531.1683 307.6528838  +6.4727306     899.3076     1241.579     1500.126      78.1852     156.2462     312.3372      1.593     5.89     845.2411     55.06546      138.933        11     1.220     0.801  74.32   0
       332    213.8559    529.2020 307.8351143  +6.4588256     1845.415     3002.768     3328.524     77.68719     155.9354     312.0885      1.777     4.04      846.343     55.06546     311.8667        16     1.324     0.756  63.24   0
       333     51.3458    544.2873 307.9020964  +6.4471287     5436.184     7987.282     8307.053      78.3092      156.122     312.5546      1.571     3.49     848.6715     55.06546     804.8337        29     1.431     0.936  62.90   0
       334    100.3518    529.5618 307.8822418  +6.4548580     583.8051      929.873     1238.648      78.1852     156.2462      312.275      1.578     4.15     847.8173     55.06546     105.6109         6     0.867     0.566  40.89   0
       335     49.5289    529.4448 307.9033529  +6.4531949     1311.679     1760.865     1425.741      78.1852     156.2462     312.3993      1.489     3.52     848.4231     55.06546     184.5507        12     1.140     0.690  61.37   0
       336    723.9575    527.1038 307.6233233  +6.4768016     1497.217     2211.941     2241.272      78.3092     156.1841     312.5235      1.675     4.46     844.9763     55.06546     211.3247        15     1.404     0.680  67.51   0
       337    671.7773    528.0110 307.6449656  +6.4746808     1427.034     1883.601     1876.449     77.93659     156.0598      312.275      1.396     3.53     845.0518     55.06546     253.2596        13     1.202     0.675  68.51   0
       338    661.6095    527.8132 307.6491954  +6.4744221     3140.123     4617.847     4162.608     78.06099     155.9976     312.3372      1.500     3.59     845.0796     55.06546     452.3373        20     1.318     0.831  72.43   0
       339     80.4971    525.2083 307.8906348  +6.4559868     864.4054     1455.133     1751.469       78.061     155.8732     312.1818      1.848     5.27     847.9818     55.06546     125.9291        11     1.203     0.756  62.86   0
       340    399.2928    523.5329 307.7582892  +6.4673960     1841.516     2736.892     2345.396      78.1852     156.4324     312.4304      1.522     3.48     844.8264     55.06546     256.2805        15     1.173     0.795  60.72   0
       341    145.9916    520.3992 307.8635967  +6.4601768     27112.21     39619.96      41808.5     77.68719     155.9354     312.1818      1.561     3.41      847.029     55.06546      4103.33        54     1.526     1.068  65.63   0
       342    330.7163    521.8001 307.7868294  +6.4658088     3964.418     5644.508     5932.077     77.56219     155.7486     312.0575      1.491     3.53     844.9014     55.06546     582.5233        22     1.348     0.840  66.43   0
       343    873.9684    520.6484 307.5612330  +6.4844816     1688.418     2341.644     2104.214     78.06099     156.2462     312.3061      1.510     3.91     842.9883     55.06546     243.3903        13     1.126     0.787  71.10   0
       344    510.8597    521.1192 307.7120330  +6.4721352     2259.116     3283.394     3194.499     78.43301     156.2462     312.3993      1.458     3.55     844.9369     55.06546     341.3339        18     1.299     0.813  70.70   0
       345    111.2015    518.6998 307.8781030  +6.4597074     2829.141     3927.184     3721.591       77.812     155.9976     312.1196      1.473     3.43     847.4807     55.06546     422.7595        19     1.241     0.851  65.27   0
       346    348.1787    517.0377 307.7797374  +6.4683614     1074.249     1498.406      1912.06     77.93659     155.9976     312.1507      1.517     3.70     844.5817     55.06546     168.8984         9     1.013     0.587  59.15   0
       347    971.6059    515.0707 307.5208657  +6.4900444     5319.617     7568.787      7528.25     77.81199     155.8732     312.3061      1.491     3.44     840.9191     55.06546     762.9512        26     1.451     0.847  63.81   0
       348     10.2464    504.7726 307.9205018  +6.4620568     26179.16     38501.88     40688.54     77.93659     156.3083     312.3061      1.566     3.36     848.4949     55.06546      3554.66        54     1.529     1.075  64.42   0
       349    544.6281    507.4006 307.6984694  +6.4789308     1527.213     2191.378     2331.877       77.812     155.9976     312.2129      1.588     3.97     844.2368     55.06546     222.5953        11     1.185     0.618  53.45   0
       350    442.9945    501.5730 307.7408783  +6.4779285     44977.03     64837.64     68000.99       77.812     156.0598     312.2129      1.537     3.44     844.1089     55.06546     6533.754        65     1.548     1.082  65.11   0
       351    651.0438    501.2555 307.6544766  +6.4850326     13087.06     18394.49     18934.42      78.3092     156.2462     312.3993      1.490     3.47     843.9043     55.06546     2049.032        33     1.405     0.924  64.50   0
       352    290.9882    501.9510 307.8039992  +6.4726685      1018.37     1614.184     1527.347     77.68719     156.1841     312.0885      1.690     4.89     844.1829     55.06546     148.1447         9     1.092     0.621  67.85   0
       353    208.1862    499.1603 307.8384834  +6.4710371     19686.16     30491.75     32257.25     77.81199     156.0598     312.1507      1.635     3.62     845.5368     55.06546     2720.042        49     1.599     1.083  56.03   0
       354    173.8060    499.9807 307.8527347  +6.4695420     1657.697     2335.549     2074.754     77.93659     155.8732     312.2129      1.438     3.22     846.1964     55.06546     245.6903        15     1.182     0.753  63.36   0
       355    984.8251    499.4711 307.5158977  +6.4969258     1300.452     1697.107     1897.664     77.93659      156.122     312.3372      1.515     4.41     840.2368     55.06546      206.001        10     1.232     0.531  65.55   0
       356    913.5844    499.0655 307.5455021  +6.4947152     857.7083     1135.218     1291.116     77.81199      156.122     312.3061      1.353     4.07     841.5447     55.06546     142.6362        10     1.101     0.679  63.96   0
       357    825.0251    499.2058 307.5822814  +6.4916988     1170.761     1607.804     1370.714       77.812     156.0598      312.244      1.392     4.25     843.1517     55.06546     157.3412        12     1.175     0.668  66.62   0
       358    572.7356    498.0423 307.6871100  +6.4837363     2892.797     4195.972     4029.619      78.3092     156.1841     312.4304      1.481     3.53     843.8125     55.06546     462.6125        20     1.359     0.810  61.18   0
       359    946.6784    495.1815 307.5318863  +6.4974236     5021.323     7349.353     7376.084       77.812     155.9354     312.3372      1.523     3.29     840.7851     55.06546     746.2895        29     1.437     0.940  59.69   0
       360    619.7974    493.6889 307.6677093  +6.4871101     6916.583     9644.224     9802.158     77.68719     155.9354     312.1196      1.468     3.32     843.6155     55.06546     1059.612        29     1.377     0.924  69.42   0
       361    107.5199    494.2953 307.8804569  +6.4696583     1122.487     1717.106     1776.632       78.061     156.4944     312.4925      1.509     3.04     847.0845     55.06546      170.034        10     0.970     0.669  71.26   0
       362    969.3777    487.6113 307.5227114  +6.5013066     3545.485      5032.21     5158.421     77.93659     156.0598     312.3061      1.489     3.61     840.1988     55.06546      498.942        20     1.432     0.750  64.64   0
       363    532.0485    484.8518 307.7044533  +6.4878182     7795.838        11088     11285.22     78.43301      156.122     312.3993      1.491     3.51     843.3106     55.06546     1188.439        30     1.414     0.912  63.96   0
       364    747.8260    485.5864 307.6148042  +6.4947404     566.6793     624.0703      347.319     78.06099     156.0598     312.3372      1.269     4.19     843.0697     55.06546     80.98425         6     0.746     0.670 -61.94   0
       365    657.9819    485.9517 307.6521094  +6.4915830     414.0629     599.9172     596.8304       77.812     156.3083     312.2129      1.321     3.71     843.2324     55.06546     74.06451         5     1.003     0.394  59.78   0
       366    408.1057    486.1203 307.7558898  +6.4831372     750.4419     1150.772     1455.841     78.06099     156.4944     312.4614      1.628     4.04     843.3317     55.06546     133.5549         7     1.077     0.612  35.25   0
       367    378.0737    485.0133 307.7684007  +6.4825861     2601.699     3579.675     3628.385       77.812     155.9354     312.1818      1.462     3.56     843.2924     55.06546     364.9158        20     1.325     0.878  66.43   0
       368    888.4886    480.7638 307.5565398  +6.5014330     3405.157     4798.531     5962.211      78.3092     156.1841     312.3993      1.469     3.49     841.7308     55.06546     481.4947        23     1.359     0.891  63.89   0
       369    541.6270    481.7444 307.7005794  +6.4894222     675.7079     1046.897     1193.935     77.93659     156.3083      312.244      1.408     4.27     843.0857     55.06546     122.9507         7     1.196     0.434  50.75   0
       370    236.6475    480.3143 307.8272989  +6.4797744     703.8385     1072.592     911.4039      78.3092     156.1841     312.3993      1.748     4.66     844.3113     55.06546      117.269         8     1.182     0.521  69.78   0
       371    895.9292    475.1697 307.5536368  +6.5039910      2330.26     3431.485     4050.273      78.1852     156.2462     312.3682      1.584     3.73     841.3149     55.06546     369.5967        18     1.382     0.746  66.93   0
       372    935.2646    474.3571 307.5373253  +6.5056400     1309.726     1842.105     1925.773      78.3092     156.1841     312.3993      1.633     4.33     840.4298     55.06546     208.9968        13     1.251     0.681  63.20   0
       373    114.8584    474.1995 307.8780883  +6.4782015     755.9708     1197.688     1201.668     77.56219     155.9354     312.0885      1.710     5.66     846.5595     55.06546     100.5413         9     1.212     0.744  49.31   0
       374    719.9656    471.1186 307.6268623  +6.4997813     3068.514     4334.302     4130.125      78.1852     156.2462     312.3993      1.453     3.44      842.459     55.06546     445.2336        21     1.355     0.840  57.71   0
       375    273.2291    471.6842 307.8123965  +6.4845669     513.9628     482.8193     378.2313      78.3092     155.9976      312.275      1.398     4.44     843.1578     55.06546     100.5163         5     1.159     0.484  61.47   0
       376    431.1408    469.5061 307.7468821  +6.4907692     1141.819     1744.622     2064.632      78.1852     156.2462     312.4925      1.691     4.03     842.6559     55.06546     186.1227        13     1.273     0.660  83.27   0
       377    390.7640    469.2876 307.7636599  +6.4895043     3942.304     5647.564       6216.1      78.3092      156.122     312.3993      1.565     3.42     842.5573     55.06546     536.7913        25     1.380     0.960  59.27   0
       378     81.7326    470.0576 307.8919864  +6.4787961     2006.819     2786.707     3049.194     78.43301     156.1841     312.3682      1.460     3.45     846.9134     55.06546     300.5659        16     1.237     0.780  69.74   0
       379    618.4921    465.8952 307.6691862  +6.4985409     10625.79     14975.99     15711.55      78.3092     156.8042     312.3682      1.483     3.30     842.3702     55.06546     1522.811        33     1.416     0.930  64.72   0
       380    781.2163    462.4438 307.6017122  +6.5054114     17422.88     24616.64     25568.99     77.93659      156.122     312.1818      1.497     3.41     841.8966     55.06546     2564.077        43     1.458     0.977  63.32   0
       381    300.8994    462.6353 307.8012092  +6.4892325     2819.224     4037.205     3785.781      78.3092      156.122     312.5546      1.530     3.39     842.4019     55.06546     452.3812        21     1.329     0.847  59.60   0
       382    424.8640    462.2021 307.7497353  +6.4935740     620.9807     919.5657     1079.022     77.68719     155.9976     312.1818      1.748     4.78     842.1855     55.06546     112.1876         9     1.415     0.457  65.93   0
       383    810.0900    459.4970 307.5898178  +6.5075933      1251.98     1788.902     1958.754      78.3092     156.6803     312.3993      1.560     4.72     841.6574     55.06546     194.9153        13     1.343     0.667  64.48   0
       384    732.6312    460.6576 307.6219529  +6.5045238     421.9302     423.9454        509.8      78.1852     156.2462     312.3372      1.291     4.19     841.9585     55.06546     74.47522         5     1.047     0.479  86.22   0
       385    383.9742    459.1348 307.7668223  +6.4934678     1508.621     2323.717     2822.383     77.93659     156.1841     312.3061      1.587     3.76     842.1058     55.06546     221.6844        14     1.198     0.800  65.92   0
       386    910.8397    459.6292 307.5479646  +6.5109048     547.0363     622.8882     379.8695       77.812     155.9976      312.275      1.313     3.42      840.467     55.06546     70.68085         5     0.776     0.437  18.71   0
       387    785.3143    457.8195 307.6001653  +6.5074575     1401.615     2290.093     2935.972     77.93659     155.9976     312.3372      1.632     4.00     841.7101     55.06546     218.8018        12     1.300     0.606  64.36   0
       388    399.4614    459.2536 307.7603857  +6.4939386     565.8784     663.7623     710.5665      78.3092     156.1841     312.3682      1.266     4.28     842.0413     55.06546     100.4045         5     0.989     0.529  49.70   0
       389    966.3824    457.3152 307.5249710  +6.5137144      2152.09     3043.177     2913.944     77.93659     155.9976     312.3372      1.484     3.67     838.9539     55.06546      306.755        15     1.270     0.712  63.84   0
       390    372.4876    455.6112 307.7717121  +6.4945368     755.2896     920.7833      1216.14     77.93659     155.9976      312.275      1.576     4.88      842.024     55.06546     102.3095         7     1.313     0.514  69.47   0
       391    118.5897    454.2081 307.8772143  +6.4865801     4678.219     7105.043     7470.317       77.812     156.0598     312.3061      1.589     3.41       845.95     55.06546     697.4763        27     1.449     0.911  61.48   0
       392    756.7308    453.3583 307.6121879  +6.5083434     2480.416       3344.5     3562.318      78.1852     156.2462     312.4614      1.418     3.57     841.5362     55.06546     365.0076        16     1.205     0.737  60.76   0
       393   1020.4507    452.1463 307.5026853  +6.5176525     4342.844     6753.586     7478.989     78.43301     156.1841      280.728      1.708     4.28     837.0132     55.06546      497.975        28     1.551     0.944  50.45  16
       394    276.6450    451.3998 307.8116623  +6.4930558      1544.92     2195.215     2332.131     77.56219     155.8732     311.9953      1.524     3.85     842.2345     55.06546     213.9602        14     1.129     0.784  58.78   0
       395    354.6537    449.0121 307.7793419  +6.4966623     3451.409     5226.043     4801.087     77.68719     156.1841     312.1196      1.577     3.39     841.8192     55.06546     476.1968        24     1.301     1.027  58.07   0
       396    710.6649    446.8840 307.6315399  +6.5094753     1708.333     2361.228     2080.248     78.43301     156.4944     312.4614      1.353     3.67     841.4058     55.06546     239.9993        15     1.302     0.721  59.49   0
       397    984.5658    446.0280 307.5177963  +6.5189812     572.7319     695.8341     1197.499     77.81199     155.9976     312.1818      1.395     4.45     837.7976     55.06546     109.5418         6     0.856     0.656  52.87   0
       398    414.5386    445.2538 307.7545952  +6.5002244     587.9826     927.9121     769.2419      78.3092     156.1841     312.3682      1.580     5.73     841.2328     55.06546     83.16541         7     1.407     0.656  62.23   0
       399    242.4798    444.9881 307.8260691  +6.4945543     759.9846     1175.077     989.0885     77.93659     155.9354      312.244      1.530     4.21     842.9602     55.06546     126.9787         8     1.138     0.444  77.35   0
       400    551.8571    439.6829 307.6977459  +6.5071298     1058.895     1541.024     1351.149      78.3092     156.2462     312.4614      1.603     3.56      841.256     55.06546     182.0895        12     1.154     0.709  69.27   0
       401    453.5693    440.9292 307.7385292  +6.5033194     644.1953     778.1609     116.2459      78.1852     156.2462     312.3682      1.271     3.38     841.3049     55.06546     133.2257         6     0.830     0.631  52.11   0
       402    474.3989    438.0275 307.7299751  +6.5052161     1342.521     1855.699     1709.673     77.81199     155.9976     312.2129      1.612     3.62     841.3098     55.06546     246.0869        15     1.318     0.718  59.73   0
       403    836.7220    437.0024 307.5795106  +6.5177703     1684.823     2366.374      2359.97     77.68719     155.7486     312.1818      1.476     3.22     840.4761     55.06546     274.4241        16     1.186     0.795  72.10   0
       404    822.4846    435.9420 307.5854601  +6.5177322     2060.227     2896.039     3246.483      78.3092     156.2462     312.4614      1.455     3.55     840.5506     55.06546     300.7932        15     1.284     0.684  58.88   0
       405    719.7365    434.1092 307.6282010  +6.5150528     15950.34     22701.09     24045.22      78.3092     156.4324     312.4925      1.485     3.34     840.7736     55.06546     2412.633        44     1.467     1.015  59.54   0
       406    621.7606    436.1489 307.6688291  +6.5109309     708.0132     1096.744     1372.861      78.1852     156.2462     312.3993      1.573     4.09     841.0899     55.06546     133.1116         7     1.108     0.567  35.78   0
       407    640.9035    430.0564 307.6610826  +6.5140872      2700.24     3904.283     4260.258      78.1852     156.1841     312.6166      1.540     3.64     840.8423     55.06546      428.459        20     1.279     0.888  61.20   0
       408    613.1768    425.2678 307.6727606  +6.5151356     13519.71     26511.68      30694.3     77.93659     156.1841     312.3682      2.210     6.44     840.6158     55.06546     2261.009        62     2.417     1.096  39.86   0
       409    945.0211    423.9460 307.5349627  +6.5267779     4052.157     5821.959     5795.274       77.812     156.2462     312.2129      1.466     3.66     838.3491     55.06546     666.1142        23     1.341     0.835  63.10   0
       410    384.0858    419.9395 307.7680974  +6.5096528     30178.73     44324.41     46217.67     78.43301     156.3704     312.4925      1.532     3.58     840.2811     55.06546     4307.598        53     1.527     1.063  67.58   0
       411    421.1905    421.3549 307.7526377  +6.5103140     777.7441     907.9885     843.2911       77.812      156.122     312.0885      1.295     4.06     839.9749     55.06546     100.3933         7     0.858     0.612  75.41   0
       412    900.3127    419.3736 307.5536875  +6.5271728      1516.12     2414.811     3040.446     78.43301     156.0598     312.3061      2.053     8.75     839.1372     55.06546     222.5955        20     2.629     0.813  53.44   2
       413    130.0295    419.4547 307.8736375  +6.5013124     2317.798     3591.378     4005.509     78.06099     156.3083     312.3061      1.665     3.52     844.8401     55.06546     373.4967        20     1.267     0.896  64.57   0
       414    913.7334    414.4604 307.5482774  +6.5296494      5339.76     7341.198     7459.326     78.43301     156.1841     312.3993      1.480     3.17     838.8178     55.06546     863.7184        26     1.424     0.855  65.87   0
       415    184.0678    430.2430 307.8508283  +6.4986771     472.3153     315.4324     472.6552      78.3092     156.1841     312.4614      1.045     4.88     844.0754     55.06546     79.92346         5     0.901     0.750  12.05   0
       416     63.5043    414.8949 307.9014226  +6.5009549     1526.184     2367.359     2416.005      78.3092      156.866      312.275      1.601     4.09     845.8192     55.06546     207.1154        16     1.333     0.781  57.67   0
       417    241.5781    410.4942 307.8276082  +6.5087642     14609.95        21218     22047.66      78.3092     156.0598      312.244      1.598     3.51     841.7744     55.06546     1933.399        44     1.496     1.075  69.41   0
       418     77.2356    404.8651 307.8960586  +6.5055579     904.2616       1344.4     1863.621      78.1852     156.2462     312.4614      1.521     3.28     845.3086     55.06546      168.386         9     1.055     0.589  82.30   0
       419    705.0315    403.8573 307.6353258  +6.5270501     622.7975     942.3597     1272.851      78.1852     156.2462     312.3372      1.555     4.02     839.4803     55.06546     120.3767         5     1.029     0.449  69.87   0
       420    964.9520    402.5231 307.5274018  +6.5362876     1032.344     1492.909     1275.812      78.1852     156.3083     312.3682      1.508     3.37     836.7559     55.06546     176.3344        10     1.037     0.605  65.65   0
       421    354.6641    400.1960 307.7809839  +6.5168157     1311.169     1778.535     1616.539     77.56219     155.9976     312.1818      1.426     4.16     839.5221     55.06546     192.8928        14     1.331     0.749  58.70   0
       422    187.6622    400.2569 307.8503483  +6.5111772     773.4825     1091.899     1097.145     78.43301     156.1841     312.4304      1.604     4.87     843.0732     55.06546     110.4276         8     1.262     0.532  61.81   0
       423    141.9005    398.9693 307.8693992  +6.5101689     5251.614         7711     8420.474      78.3092     155.9976     312.4925      1.543     3.53     844.1495     55.06546     772.2041        28     1.431     0.976  67.81   0
       424    246.8059    398.0974 307.8258553  +6.5140578     1310.297     1926.504     2014.455     78.06099     155.9354     312.1818      1.586     5.03     841.2937     55.06546     192.5615        11     1.245     0.587  67.19   0
       425    439.6586    397.8781 307.7457577  +6.5206258     789.0928     1199.626     1464.076     78.43301     156.2462     312.3372      1.454     4.37     838.8193     55.06546     131.0406         7     0.870     0.624 -58.52   0
       426    163.9882    395.0303 307.8603581  +6.5125384     2546.868      4088.12     4156.182       77.812     155.9976     312.3061      1.698     4.27     843.6397     55.06546     361.7098        23     1.599     0.876  83.61   0
       427    827.9873    395.3649 307.5845364  +6.5346683     854.1212     1158.539     1048.823     77.81199     156.0598     312.2129      1.327     5.08     838.7249     55.06546     148.2584        10     1.249     0.585  54.49   0
       428    559.4226    394.0110 307.6961406  +6.5262386     1005.349     1364.799      1201.77     77.93659     156.0598      312.275      1.474     4.60     838.6249     55.06546     165.6326        10     1.239     0.562  59.24   0
       429    387.4944    389.6167 307.7677039  +6.5222856       2210.8     3162.104     3003.629       78.061     156.0598      312.244      1.514     3.41     838.6089     55.06546     341.3478        16     1.225     0.750  62.78   0
       430    275.3178    389.9049 307.8142890  +6.5183983      911.748      1223.68     939.8601     78.06099     156.5564     312.5235      1.421     4.75     840.3176     55.06546     127.0159         9     1.126     0.578  82.24   0
       431      6.0022    390.3913 307.9261349  +6.5091332     873.9207     1315.994     1046.849     77.68719     155.9354     296.2665      1.569     3.87     845.7357     55.06546     145.2798         8     0.913     0.757  41.41  16
       432    975.9266    389.0436 307.5232948  +6.5422189      859.176     1434.265     1362.186      78.1852     156.3083     312.4304      1.778     4.85     835.9921     55.06546     127.8907         8     1.053     0.633  74.05   0
       433    321.5064    387.5081 307.7951846  +6.5209399     727.6215      937.816     1035.364      78.3092     156.7423     312.3993      1.331     3.66     839.3571     55.06546      109.584         6     0.927     0.416  70.44   0
       434     37.5844    384.2890 307.9132237  +6.5127166     3379.601     5233.902      5401.23       78.061     155.9976      312.244      1.679     3.55     845.1388     55.06546     457.3549        24     1.380     0.987  82.04   0
       435    441.2277    383.2993 307.7455972  +6.5266972     7775.917     11527.78     11918.45      78.3092     155.9976     312.3682      1.590     3.54     837.9487     55.06546     1082.573        32     1.435     0.977  65.56   0
       436    781.8685    380.7006 307.6041863  +6.5391806     13900.66     19408.31     20924.02      78.3092     156.3704     312.3682      1.487     3.45     838.2733     55.06546     2136.438        34     1.432     0.893  63.16   0
       437    773.8379    382.1789 307.6074726  +6.5383017     2147.509     3092.489     3586.404     77.93659     155.9976     312.1507      1.543     3.70     838.3221     55.06546     347.5415        16     1.259     0.751  59.18   0
       438    345.2240    379.2063 307.7856130  +6.5251639     1159.564      1732.87     2073.714     77.81199     156.0598      312.275      1.614     4.04     838.5008     55.06546     174.5614        12     1.190     0.703  83.37   0
       439    190.2572    371.6071 307.8502382  +6.5230920     823.6886       1472.2     1818.873     77.68719      156.122     312.1196      2.031     5.37     842.1739     55.06546     99.80328        11     1.068     0.879 -42.70   0
       440    906.6883    370.5739 307.5526759  +6.5475326      563.158     832.1328     514.2892     78.43301     156.0598      312.275      1.420     3.36     836.9941     55.06546     107.3003         5     1.053     0.310  70.03   0
       441    489.3531    366.9911 307.7261562  +6.5350443     3076.662     4544.905     4503.876     77.81199     156.1841     312.0575      1.499     3.54     836.8843     55.06546     434.1067        21     1.358     0.886  63.50   0
       442    461.5310    367.4984 307.7376960  +6.5339016     2304.064     3388.301     3280.985      78.3092     156.3704     312.4304      1.620     3.72     836.9658     55.06546     299.1984        19     1.363     0.806  66.62   0
       443    918.0951    367.2082 307.5480503  +6.5493030      806.363     1064.063     1209.177     78.06099     155.8732     312.1818      1.492     4.01     836.6639     55.06546     131.7488         8     1.052     0.504  57.91   0
       444    847.2490    363.6367 307.5776001  +6.5484109     35039.81     51547.64     54268.02       78.061     156.1841      312.275      1.581     3.48     837.3524     55.06546     4975.109        61     1.594     1.081  70.39   0
       445    339.5328    359.4735 307.7886426  +6.5331192     941.7784     1073.305     1090.376     78.43301     156.3704     312.3682      1.544     5.63     837.5972     55.06546     127.1478        12     1.363     0.655  58.01   0
       446     64.9595    359.8266 307.9026808  +6.5237375     691.9583      929.032     346.0645     77.93659     156.0598      312.244      1.301     3.90     844.1652     55.06546     98.34711         6     0.943     0.462  38.80   0
       447    619.0602    356.0877 307.6726438  +6.5438931     2828.742     4278.695     4846.597      78.3092     156.4324     312.4925      1.547     3.67     836.3443     55.06546     453.3612        23     1.569     0.774  64.31   0
       448     27.2430    356.1858 307.9184699  +6.5239699     1180.276     1652.254     1553.247     77.56219     155.9976     312.1507      1.496     4.23     844.0818     55.06546     170.4745        14     1.230     0.810  60.86   0
       449    703.7065    349.5795 307.6377004  +6.5494140     85189.64     120244.7       126078      78.1852     156.0598     312.2129      1.536     3.37     836.9262     55.06546     13005.37        82     1.550     1.105  62.46   0
       450    861.5682    351.1807 307.5720698  +6.5540318     1214.256     1733.464     1773.047       77.812     156.0598      312.275      1.484     3.30     836.7867     55.06546     216.4503         9     1.094     0.616  45.09   0
       451     83.0115    349.0350 307.8955476  +6.5288006     1311.365     1839.642     1772.661       77.812     156.0598     312.2129      1.427     3.64      843.897     55.06546     263.9747        13     1.220     0.669  70.20   0
       452    566.0705    346.2956 307.6949851  +6.5461603      2920.32     4149.071     4234.017      78.1852     156.3083     312.3993      1.509     3.82     835.3408     55.06546     410.4523        23     1.253     1.097  48.07   0
       453    945.1769    346.5613 307.5374926  +6.5587313     856.7691     1175.273     967.4374     77.93659     155.9976      312.244      1.221     3.38     835.3953     55.06546     176.3017         8     1.057     0.516  69.86   0
       454    103.3638    345.0760 307.8872277  +6.5311203     6607.585     9575.635     10243.66      78.1852     156.3083     312.4304      1.524     3.26     843.6748     55.06546     870.3531        31     1.443     0.944  66.71   0
       455    549.4100    342.4870 307.7020340  +6.5471743     7844.402     11154.93     11826.14     77.93659     155.9354      312.244      1.547     3.36     835.0264     55.06546      1091.34        30     1.428     0.908  62.30   0
       456    278.3175    340.0990 307.8147241  +6.5390607      2761.08     3980.729     3991.072      78.3092     156.6803     312.4925      1.519     3.70     838.8533     55.06546     360.8773        19     1.302     0.846  65.30   0
       457    412.3459    337.6506 307.7591328  +6.5445733     27148.59     39721.27     41766.69     78.43301     156.2462     312.4304      1.581     3.33     835.9018     55.06546     3647.258        54     1.553     1.081  60.03   0
       458    591.2304    336.6334 307.6848588  +6.5509923      698.688     801.2421     701.4864       77.812     155.9976     312.1196      1.330     3.95     834.9681     55.06546     103.7351         6     1.035     0.432  57.60   0
       459    520.1143    336.3303 307.7144107  +6.5487339     1459.476     2129.132     1850.034     78.43301     156.4944     312.4304      1.546     4.02     834.8038     55.06546     218.3891        14     1.276     0.720  64.31   0
       460    392.3786    335.6871 307.7674933  +6.5447137      1284.22     2003.604     2343.508      78.3092     155.9976      312.275      1.813     3.47     836.0251     55.06546     190.5006        13     1.100     0.784  44.82   0
       461    491.8425    333.2023 307.7262602  +6.5490771     1203.368      1745.87     1817.385     77.68719     155.8732     312.1196      1.545     3.95     834.7757     55.06546      176.803        11     1.164     0.612  66.55   0
       462    807.0728    330.0604 307.5954168  +6.5609299     914.8551     1475.531     1233.545     78.43301     156.2462     312.4304      1.667     4.51     836.1566     55.06546     163.6584        10     1.375     0.651  70.11   0
       463    389.3344    330.2555 307.7689410  +6.5468538       881.27     1424.417     1666.473     78.43301      156.122     312.3993      1.955     4.81      835.879     55.06546     137.5793        10     1.270     0.632  63.32   1
       464    501.4297    327.9954 307.7224530  +6.5515483     9146.488        13392     13661.57       77.812     156.0598     312.2129      1.521     3.37     834.4471     55.06546     1217.201        33     1.474     0.919  63.01   0
       465    925.9807    326.6476 307.5461349  +6.5663117     967.9441      1564.93     1573.438     77.81199     156.2462     312.2129      1.689     5.06     834.8427     55.06546     139.3965        11     1.235     0.588  64.86   0
       466    770.6205    326.9168 307.6106652  +6.5610088     3273.495     4691.241     5144.131     78.06099     155.9354     312.3372      1.518     3.68     836.1029     55.06546     463.0997        23     1.427     0.891  52.98   0
       467    718.1725    326.5346 307.6324657  +6.5594121     828.5102     1318.087     1248.184     77.93659     156.2462     312.3061      1.436     3.96     836.0005     55.06546     132.9007         9     1.070     0.607  64.33   0
       468    327.9666    324.8575 307.7946148  +6.5470213     1105.133     1679.612     1610.566      78.1852     156.3083     312.3682      1.542     5.33     836.8074     55.06546     143.0562        13     1.357     0.682  66.26   0
       469    440.4513    318.7110 307.7480963  +6.5533356     627.7812      696.496     353.1606      78.3092     156.0598     312.5235      1.299     4.06     834.8148     55.06546     119.3505         6     1.102     0.530  44.16   0
       470    263.5687    318.2858 307.8215869  +6.5475701     752.5576     1169.771     1083.371      78.3092     156.0598     312.3061      1.648     3.70     838.4459     55.06546     133.6827         7     1.029     0.691  56.37   0
       471    163.3507    318.4248 307.8632115  +6.5441419     1172.622     1772.363     1738.905     77.93659     156.3083     312.3061      1.573     3.27     841.6513     55.06546     192.3571        10     1.062     0.623  55.15   0
       472    610.5396    316.0880 307.6775289  +6.5601212      576.035     961.4304     997.8344      78.1852     156.4324     312.4925      1.770     4.27     833.8915     55.06546     108.6065         5     0.951     0.545  45.11   0
       473    391.2481    312.2145 307.7687543  +6.5543660     7927.101      11810.6     12325.94     77.68719     156.1841     312.1196      1.565     3.45     835.3345     55.06546     1125.138        33     1.430     1.011  61.25   0
       474    247.1558    312.5216 307.8285993  +6.5493979     2190.983     3217.813     3249.263      78.1852     156.2462     312.4304      1.572     3.79     838.8745     55.06546     303.2393        22     1.335     0.976  69.86   0
       475    745.0787    312.0893 307.6217739  +6.5662759      1087.25     1374.486     1792.081     78.06099     156.4944     312.4925      1.341     4.02     835.5778     55.06546     149.6959        12     1.110     0.754  58.23   0
       476    759.1732    308.1560 307.6160509  +6.5683712     57212.45     81372.84     85197.02     77.93659     156.3083     312.3061      1.487     3.41     835.4304     55.06546     8821.488        68     1.549     1.026  62.09   0
       477    430.8802    307.5194 307.7524493  +6.5576347     2519.902     3690.639     3668.681     78.55663     156.4944     312.5546      1.588     3.67     834.5794     55.06546     353.2291        21     1.331     0.895  67.89   0
       478    994.0770    305.2408 307.5185637  +6.5774225     1714.474     2546.595     2376.009      78.1852     156.2462     312.4614      1.526     3.77      833.663     55.06546     278.0784        14     1.293     0.659  73.27   0
       479    934.9144    304.3681 307.5431708  +6.5758081      2460.87     3508.541     3175.229      78.3092     156.0598     312.3061      1.474     3.80     833.8464     55.06546     361.9493        17     1.291     0.755  68.02   0
       480    576.9811    304.8534 307.6918476  +6.5636349     1333.714     1787.907     1732.748       77.812     156.2462     312.2129      1.387     3.15     833.0968     55.06546     235.0928        11     0.940     0.814  61.24   0
       481    467.9940    303.8560 307.7371555  +6.5603924     1162.705     1777.949     2739.356       77.812      156.122     312.1196      2.073     5.89     833.4902     55.06546     172.5059        15     1.475     0.783  48.12   0
       482    667.1041    302.2809 307.6544956  +6.5677157     348.3316     440.7352    -22.64464     78.06099     156.5564     312.4925      1.425     4.44     834.2932     55.06546     81.05548         5     1.214     0.463  55.81   0
       483    297.1929    302.5298 307.8081515  +6.5552048     705.7803     718.1239     490.6699       77.812     155.8732     312.3061      1.126     3.00     836.7663     55.06546     154.9877         7     0.875     0.571  82.23   0
       484    838.7877    297.6629 307.5833295  +6.5753652     1309.419     1833.025     2118.352       77.812     156.0598     312.1818      1.514     5.04      834.634     55.06546     210.0629        12     1.375     0.584  71.32   0
       485    417.4874    303.1675 307.7581595  +6.5589818     2132.495     3044.675     3216.181     78.43301     156.0598     312.3993      1.558     3.50     834.7551     55.06546     292.2336        17     1.227     0.823  58.12   0
       486    193.9043    294.5615 307.8513261  +6.5550214     2501.201     3573.371     4085.461      78.3092      156.122     312.5235      1.559     3.72      840.201     55.06546     341.5665        19     1.321     0.841  58.14   0
       487    757.6549    292.7342 307.6171997  +6.5746873      6490.25     9134.055     9518.308      78.3092     156.1841     312.3993      1.505     3.47     834.8943     55.06546     998.2493        30     1.430     0.878  58.98   0
       488    448.0963    294.5292 307.7457355  +6.5635753     1149.105     1514.693     2031.155      78.1852     156.3704     312.4304      1.464     3.86     833.6014     55.06546     178.4436        11     1.091     0.680  57.48   0
       489    348.2263    292.3632 307.7872952  +6.5611166     638.9409     1064.132     956.3976     77.93659     156.0598     312.2129      1.659     4.79     835.3459     55.06546      95.5011         6     0.966     0.673  75.44   0
       490    229.2894    292.3360 307.8367025  +6.5571304     794.5521     1238.959     994.9071      78.1852     156.4324     312.4304      1.629     5.66     839.0284     55.06546     115.4245        12     1.290     0.757  63.02   0
       491     89.9720    291.5736 307.8945996  +6.5527565     1124.722     1832.455     1883.917     77.81199     156.0598      312.244      1.618     6.08     842.9578     55.06546     152.8349        15     1.534     0.686  61.83   0
       492    773.9394    290.4980 307.6105098  +6.5761551     2804.293     3965.356     4096.524     78.06099     156.2462     312.5235      1.483     3.61     834.7868     55.06546     453.9797        20     1.373     0.773  64.90   0
       493    476.5966    289.9042 307.7340520  +6.5664408     597.0115     887.6494     879.7313     78.06099     155.9354     312.0885      1.336     3.83     832.4777     55.06546     108.5537         5     0.880     0.479  81.60   0
       494    363.4241    285.2956 307.7812203  +6.5645448     1850.495     3425.819     4074.987     78.43301     155.9976      312.275      2.088     5.28     834.9728     55.06546     212.3928        27     1.521     1.223  21.14   0
       495    316.2508    286.6324 307.8007713  +6.5624082     489.7371     728.6575     382.8957      78.1852     156.3083     312.3372      1.623     4.92     835.8153     55.06546     71.73987         5     1.096     0.626  64.73   0
       496     77.3499    285.6232 307.9000439  +6.5547879     1583.059      2297.16     2127.881     77.93659     156.3083     312.3061      1.609     4.60     843.0269     55.06546     199.3508        16     1.281     0.881  88.26   0
       497   1012.1915    281.6338 307.5118294  +6.5877730     6388.375     8920.521     9032.346       77.812     156.0598      312.244      1.508     3.29     832.8674     55.06546      982.152        27     1.399     0.910  62.70   0
       498    490.2841    281.4877 307.7286495  +6.5703746     2273.327     3252.326     3476.771       78.061     156.4324     312.4614      1.585     3.74     832.0299     55.06546     347.7538        17     1.304     0.786  66.92   0
       499    252.9132    277.0833 307.8274043  +6.5642215     6195.056     9296.651      10086.7     78.06099     156.4324     312.4614      1.561     3.44      837.718     55.06546     893.6411        35     1.450     1.059  70.21   0
       500    921.4887    276.7447 307.5496747  +6.5867640     561.5311     651.5472     550.8823      78.3092      156.122     312.5546      1.229     3.42     832.7143     55.06546     96.95288         5     0.766     0.443  68.18   0
       501    772.2576    270.5159 307.6118797  +6.5843484     980.1072     1241.632     1273.254      78.3092     156.2462     312.4614      1.311     3.73       833.62     55.06546     145.1486         9     1.066     0.558  63.77   0
       502    387.0663    267.5989 307.7719959  +6.5726445     1771.306     2734.032      2768.52     77.56219     155.8732     312.1507      1.606     4.13     834.1979     55.06546     260.6143        16     1.289     0.814  69.25   0
       503    973.8876    266.8081 307.5282393  +6.5926156     1047.989     1173.368     986.6982     77.93659     155.9354     312.1507      1.309     3.60     832.0746     55.06546     173.3866        10     1.154     0.572  72.76   0
       504    193.7698    265.1275 307.8523764  +6.5671680     592.0381     1182.024     1608.435      78.1852     156.2462     312.3682      2.336     3.89     839.6376     55.06546     91.93134         6     0.767     0.566 -45.88   0
       505    156.6441    263.4119 307.8678565  +6.5666270     1881.223     3036.746     3360.735       77.812      156.122     312.1196      1.732     3.90     840.7109     55.06546     277.5361        20     1.379     0.893  58.65   0
       506    309.1335    263.5644 307.8045063  +6.5716923     1202.383     1754.133     2034.246      78.1852     156.2462     312.4614      1.564     3.27     835.6427     55.06546     226.9222        11     1.121     0.644  56.24   0
       507    566.4816    259.4149 307.6977387  +6.5820419     2339.401     3286.183     2961.547     77.93659     155.9976      312.244      1.541     3.54     831.3266     55.06546      300.966        16     1.237     0.793  62.50   0
       508    909.8561    258.2144 307.5551289  +6.5940257     1724.974     2570.712     2615.669     77.68719      156.122     312.1196      1.634     5.52      831.799     55.06546     267.7131        16     1.581     0.740  44.51   0
       509    848.1876    258.7800 307.5807297  +6.5917320     545.1756     824.4295      727.803     78.06099     155.9354     312.3061      1.942     3.60     832.3427     55.06546     89.42444         5     1.143     0.327  78.79   0
       510    968.2339    256.7741 307.5309245  +6.5965694     669.2002     897.1152      966.089     77.68719     156.0598     312.1818      1.176     4.69     831.5469     55.06546     115.0635         8     1.297     0.481  59.31   0
       511    730.0965    256.9002 307.6298524  +6.5885591     5422.743     7766.496     8100.145      78.3092     156.7422      312.244      1.483     3.72     832.7596     55.06546     858.1685        24     1.337     0.864  63.81   0
       512    670.9015    256.7867 307.6544479  +6.5866248     2297.031     3297.757     3564.072      78.1852     155.9976     312.1818      1.504     3.59     832.2838     55.06546     387.0949        15     1.205     0.722  64.27   0
       513    385.9697    251.2930 307.7730013  +6.5793393     813.3637     943.8788      674.328     78.43301     155.9976     312.3372      1.326     3.47     833.8033     55.06546     157.6997         8     1.090     0.527  72.74   0
       514    926.1382    248.7835 307.5486810  +6.5984630     1177.756     1538.814     1255.092       77.812     156.1841     312.2129      1.518     4.63     831.2208     55.06546     165.6823        13     1.363     0.662  64.25   0
       515    229.6395    242.1360 307.8382525  +6.5778662      2439.61     3492.135     3820.203      78.3092     156.1841     312.4614      1.478     3.65     838.0877     55.06546     332.0695        21     1.310     0.943  61.66   0
       516    872.2850    241.1337 307.5713108  +6.5998224     1861.878     2619.348      2521.35     78.43301     156.4944     312.4614      1.499     3.40     831.0889     55.06546     260.2814        18     1.257     0.821  69.30   0
       517    762.7908    240.6198 307.6168169  +6.5963741     1763.044     2452.427     2467.936     77.93659     155.9976      312.244      1.471     3.72     831.7632     55.06546     275.2137        14     1.281     0.666  62.12   0
       518    250.9160    235.2419 307.8296468  +6.5814277     572.0234     747.1627     731.5823      78.3092     156.1841     312.3061      1.285     4.20     837.1361     55.06546      105.564         7     1.160     0.433  57.15   0
       519    463.4615    231.9920 307.7414599  +6.5899084     24263.83     35590.28     37215.01     77.68719     156.0598     312.1818      1.533     3.31     831.0703     55.06546     3287.589        46     1.495     1.034  63.52   0
       520    286.9830    233.8306 307.8147115  +6.5832229     484.6607     754.7181     698.9448     77.93659     155.9976     312.3372      1.541     4.47     835.7031     55.06546     122.1669         5     1.378     0.413  73.20   0
       521    789.4766    231.1736 307.6060478  +6.6011665     14057.66     20220.21     21619.84      78.1852     156.1841     312.3682      1.514     3.39     831.0407     55.06546     2014.766        46     1.485     1.154  52.19   0
       522    469.1994    226.7696 307.7392521  +6.5922569     1500.841     2068.354     1818.402     77.68719     156.0598     312.2129      1.489     4.18     830.7502     55.06546     204.7284        13     1.200     0.762  69.15   0
       523    151.5856    225.2096 307.8712491  +6.5822277     2590.423     3816.375     4157.345       78.061     155.9976     312.3372      1.602     3.70     840.1825     55.06546      386.556        21     1.348     0.883  64.67   0
       524    126.6423    224.6632 307.8816293  +6.5816136     1178.931     1861.259     1917.415      78.3092     156.1841     312.4614      1.694     5.49     840.9177     55.06546     189.8022        13     1.292     0.732  51.34   0
       525    178.2944    223.2485 307.8602201  +6.5839361     588.0639     773.5743     577.6283      78.1852      156.122     312.5235      1.433     4.00     839.3522     55.06546       101.27         6     1.039     0.454 -87.47   0
       526    727.8954    226.7146 307.6317813  +6.6009474     790.0802     1023.074     1605.401      78.3092     156.6184     312.4925      1.458     5.35     830.9941     55.06546     102.8714        11     1.412     0.573  58.67   0
       527    925.9334    221.3639 307.5496858  +6.6097762     1557.314     1965.905     2143.289      78.1852     156.2462     312.4614      1.376     3.41     829.8312     55.06546     247.0386        13     1.123     0.718  82.08   0
       528    587.5374    217.7223 307.6903947  +6.5999598     5057.736     7108.689     7167.952     78.55663     156.3083     312.3682      1.521     3.46     830.2446     55.06546     685.7253        24     1.394     0.861  67.77   0
       529    550.1633    217.8071 307.7059186  +6.5986722     2272.218     3289.352     3422.746     77.56219     156.0598     312.1818      1.505     3.13     830.2227     55.06546     372.1168        19     1.283     0.884  64.43   0
       530    307.9597    218.2798 307.8065222  +6.5903477     1118.584     1697.543     1362.128      78.1852     156.2462     312.3682      1.455     5.44     835.2327     55.06546     140.4072        12     1.244     0.671  69.32   0
       531    392.0619    216.7254 307.7716362  +6.5938146     1576.532     1998.136     1742.828     78.55663     156.2462     312.3993      1.399     3.55     832.7076     55.06546     252.2576        12     1.188     0.614  68.10   0
       532    894.5486    214.3470 307.5629603  +6.6116249     12117.25     16895.59      17662.6     78.43301      156.122     312.4304      1.516     3.57     829.7294     55.06546     1830.262        35     1.491     0.880  66.61   0
       533    948.4440    214.9611 307.5405484  +6.6131711     2829.776     4122.356     4246.662     78.06099     156.2462      312.244      1.482     3.92     829.5085     55.06546     408.3798        17     1.348     0.725  60.64   0
       534    569.6725    214.3946 307.6979286  +6.6007349     887.5383      1410.03     1121.748     77.93659     155.8109     312.3061      1.689     4.98     830.1505     55.06546     139.6219        10     1.389     0.505  74.45   0
       535    322.3771    214.2898 307.8006675  +6.5924794     1111.566     1683.953     1892.575      78.3092     156.0598      312.275      1.775     6.42     834.9322     55.06546     161.2641        15     1.501     0.772  78.12   0
       536    981.2236    212.2462 307.5270208  +6.6153862     10236.62     14753.26     15151.11     77.93659     156.2462      312.275      1.500     3.60     829.2308     55.06546     1568.243        31     1.440     0.883  67.53   0
       537    692.6495    212.0414 307.6469174  +6.6058255     3138.313     4444.048     4539.736     78.43301     156.2462     312.3682      1.481     3.31      830.515     55.06546     456.9951        22     1.334     0.877  69.62   0
       538    267.0486    212.0397 307.8237284  +6.5915487     1236.006     1856.939     2004.191      78.1852     156.2462     312.3061      1.608     4.74     836.5272     55.06546      198.752        14     1.378     0.792 -83.16   0
       539    213.2107    214.0564 307.8460258  +6.5889056     672.5667      869.282     744.3602     77.68719     156.1841     312.0885      1.534     3.99     838.2445     55.06546     113.7104         6     0.978     0.467  52.88   0
       540     20.7128    210.8665 307.9261003  +6.5837409      27387.7     39815.36     41765.39      78.3092     156.4324     312.4304      1.543     3.24     843.2832     55.06546     4143.289        54     1.494     1.103  60.89   0
       541    501.1599    207.0716 307.7266382  +6.6014611     2126.195     3026.213     2762.051      78.1852     156.2462     312.4614      1.435     3.13     829.9929     55.06546     335.5566        20     1.224     0.893  61.70   0
       542    833.0637    203.7600 307.5888600  +6.6139412     2206.997     3128.417      3198.88      78.3092     156.1841     312.4614      1.497     3.57     829.8625     55.06546     360.1108        18     1.347     0.776  73.00   0
       543    885.3958    202.9135 307.5671466  +6.6160394     2247.631     3113.804     3562.568     77.81199     155.9354     312.1196      1.439     3.84     829.4374     55.06546     301.4194        16     1.230     0.769  70.12   0
       544    744.7635    200.3329 307.6256601  +6.6124032     42791.38     60797.52     63435.93      78.1852     156.2462     312.4614      1.529     3.50     830.1794     55.06546       6422.1        61     1.549     1.023  63.62   0
       545    513.1880    202.9045 307.7217816  +6.6035848     2751.137     3887.647     3771.666     78.06099     155.9976     312.1818      1.490     3.41     829.9103     55.06546     405.0117        19     1.330     0.783  55.61   0
       546    347.8150    199.6825 307.7905927  +6.5993644     6056.666     12124.25      13060.7     77.93659     155.9976      312.275      2.108     6.07     834.1426     55.06546      718.799        43     1.966     1.138 -89.43   0
       547    978.5225    199.1700 307.5285814  +6.6206945     3085.209     4385.346     4662.352      78.1852     156.3083     312.3993      1.487     3.72      828.683     55.06546     460.1553        19     1.335     0.755  70.13   0
       548    912.6895    197.4015 307.5559920  +6.6192267     8005.598     11350.65     11552.42     77.56219     155.8109     312.1818      1.519     3.56     829.0395     55.06546     1258.233        31     1.446     0.883  69.95   0
       549   1016.7089    197.4383 307.5127743  +6.6226836     1918.308     2928.764     2716.796     78.43301     156.1841     312.0264      1.598     4.22     828.3528     55.06546     296.0234        18     1.432     0.808  72.45  16
       550    456.1456    196.4228 307.7456979  +6.6043472       5244.8     7886.971     8390.083       77.812     156.2462     312.2129      1.613     3.43     830.1845     55.06546     802.3966        27     1.400     0.927  64.03   0
       551    230.6011    192.9884 307.8395131  +6.5981880     881.4026     1332.542     1492.665     77.93659     155.9354     312.2129      1.629     4.34     837.7148     55.06546     137.1121         8     1.148     0.544  55.99   0
       552    186.5045    191.7644 307.8578734  +6.5972099     4588.699     9202.044     9488.437     78.43301      156.122     312.5235      2.000     5.75     838.4252     55.06546     1971.132        16     2.029     0.459 -49.65   0
       553    113.5158    187.6664 307.8883333  +6.5964448     5155.736      7599.51     7593.522     78.43301     156.4944     312.4614      1.592     3.52     840.5935     55.06546     719.6947        27     1.445     0.922  69.63   0
       554    283.8627    184.4924 307.8176734  +6.6034863     36840.81     52772.04     54959.59      78.3092     156.3083     312.4614      1.541     3.37     836.5042     55.06546     5174.659        58     1.524     1.080  64.05   0
       555    932.8859    186.7908 307.5479570  +6.6242817     1020.744     1478.751     1953.429     77.93659     155.9354      312.244      1.839     3.75     828.5139     55.06546     163.7056        12     1.068     0.741  60.56   0
       556    609.8519    186.1095 307.6821881  +6.6137585     675.6978     1005.807     1644.682      78.3092     156.0598     312.5546      1.784     3.82     829.5748     55.06546     111.8901         6     1.182     0.355  89.27   0
       557    259.1700    185.4568 307.8278990  +6.6022580     7117.916      10192.1     10765.36      78.1852     156.3083     312.3061      1.559     3.37     837.0607     55.06546     986.3462        28     1.396     0.944  59.74   0
       558    712.9447    183.8546 307.6394333  +6.6181415      951.022      1254.82     1214.134     78.55663     156.2462     312.3993      1.404     3.50     829.7489     55.06546     157.9863        10     1.150     0.564  71.66   0
       559    407.9102    179.9619 307.7662918  +6.6095238     53379.26     77686.56     81229.25      78.3092     156.1841     312.4304      1.532     3.37     830.6475     55.06546     8106.042        69     1.533     1.122  61.74   0
       560    163.9040    181.2146 307.8676189  +6.6008046     4274.558         6325     6896.954     78.06099     155.9976     312.1818      1.567     3.49     838.4072     55.06546     624.9268        26     1.401     0.914  64.35   0
       561    425.1809    180.5282 307.7590977  +6.6098698     1387.674     2059.101     1915.876     77.93659      156.122     312.3372      1.558     4.91     830.0973     55.06546     205.0258        13     1.339     0.677  49.71   0
       562    311.9254    177.6366 307.8062465  +6.6072597        19496     28494.17     30760.06      78.1852     156.3083     312.4304      1.566     3.43     835.5022     55.06546     2823.056        48     1.517     1.059  63.50   2
       563    319.6006    177.4751 307.8030634  +6.6075844     2227.828     3671.689     4715.749     77.56219      155.624     312.2129      2.064     4.35     835.1528     55.06546     327.8817        26     1.734     1.017 -83.05   2
       564    747.2078    176.2299 307.6254546  +6.6224357     35244.62     50475.91     52888.03       77.812     156.0598     312.1818      1.510     3.46     829.5399     55.06546     5412.585        54     1.501     1.014  65.02   0
       565    578.4351    179.8225 307.6954520  +6.6153013     565.0807      581.074     831.5134       77.812     155.9976     312.1818      1.353     4.23     829.4396     55.06546     102.8854         5     1.236     0.412  76.34   0
       566    695.1940    177.8376 307.6470103  +6.6200314     1037.858     1678.704     1239.907       77.437     155.9976     312.1507      1.715     4.27     829.5685     55.06546     144.8708        12     1.250     0.635  59.21   0
       567    795.5102    176.5964 307.6053743  +6.6239000     1270.364     1762.519     2019.721       77.812     155.9354     312.0885      1.422     4.46     829.5143     55.06546     181.1838        13     1.254     0.689  68.89   0
       568     34.7221    176.3760 307.9214479  +6.5984514     583.3011     835.8019       1039.8     77.93659     156.0598     312.3682      1.665     4.35     842.8671     55.06546     82.37128         5     0.943     0.570  52.51   0
       569     64.0632    173.3313 307.9093620  +6.6006970     9823.584     14444.28     14613.76      78.3092     156.2462     312.4614      1.542     3.44      842.027     55.06546       1439.2        35     1.498     0.961  62.79   0
       570     97.7734    171.5609 307.8954178  +6.6025634     1614.196     2178.044     2215.737     77.93659     156.0598      312.244      1.429     3.87     841.0219     55.06546     246.2383        14     1.141     0.877  86.21   0
       571   1005.5605    170.6989 307.5183023  +6.6333509     1064.397     1584.633     1652.574      78.3092      156.122     312.6166      1.455     3.65     827.2334     55.06546     210.4331        10     1.198     0.593  39.05   0
       572    973.6650    170.1486 307.5315726  +6.6325137      612.854     872.6357      331.829      78.3092     156.1841     312.3993      1.452     3.22     827.4863     55.06546     104.8701         6     0.745     0.609  41.28   0
       573    731.8733    164.5004 307.6322198  +6.6267651     636.5607     946.4891     214.8684     78.06099     156.3704     312.3993      1.920     4.64     829.2463     55.06546     92.75354         8     0.899     0.682  58.52   0
       574    581.0035    160.5896 307.6950323  +6.6233274     915.2495     1353.736         1413       77.812     155.9354     312.3061      1.589     5.48     829.0396     55.06546      123.777        11     1.368     0.650  48.22   0
       575   1006.5450    156.8780 307.5183566  +6.6390897     2435.127     3742.461     3905.689     78.43301     156.2462     312.4304      1.640     3.90     826.5374     55.06546     323.5034        19     1.337     0.818  67.77   0
       576    589.5945    154.5758 307.6916655  +6.6260980     1010.427     1386.795     1153.506       77.812     155.9976      312.244      1.459     3.81     828.7887     55.06546     127.7385        10     0.955     0.749  53.97   0
       577     27.9832    149.4003 307.9251604  +6.6093604     4894.221     7299.764     7758.822     77.93659     155.8109     312.0885      1.637     3.86     842.8692     55.06546     762.5947        30     1.692     1.035  88.06   0
       578    342.1752    152.3869 307.7945315  +6.6187000     1127.138     1779.916     1570.499     78.06099     156.0598     312.3372      1.498     4.15     834.1035     55.06546     189.2783        11     1.257     0.658  83.72   0
       579    282.7628    150.6948 307.8192714  +6.6174019      33184.3     48192.69     50789.23     78.43301      156.122     312.5235      1.558     3.40     836.9554     55.06546     4750.497        55     1.510     1.088  63.17   0
       580    598.0096    152.4516 307.6882408  +6.6272570     1984.983     2671.168     3058.438     77.68719      156.122     312.1507      1.487     3.61     828.6682     55.06546     284.7808        15     1.211     0.760  57.25   0
       581    714.3818    147.3261 307.6400643  +6.6332700      8663.54     12255.69     12844.76       77.812     156.1841     312.3061      1.502     3.30     828.4489     55.06546     1255.659        30     1.413     0.903  66.38   0
       582    192.2003    148.6396 307.8569645  +6.6152046     1020.907     1625.777     1352.356     77.31159     155.9976     312.1196      1.639     5.24      837.601     55.06546     166.3365        10     1.140     0.954  33.22   0
       583    268.4329    145.5548 307.8253982  +6.6190421     1048.568     1538.703     1650.178       78.061     156.2462      312.244      1.398     4.40     837.1086     55.06546     160.4222        11     1.356     0.584  84.07   0
       584    125.1560    144.4141 307.8849602  +6.6146923     5235.922     7413.734     7995.688     77.68719     156.0598     312.1507      1.500     3.34     838.9054     55.06546     769.3096        28     1.417     0.917  60.64   0
       585    587.0608    142.4495 307.6931264  +6.6310193     806.1729     1114.809     478.0736      78.3092     156.1841     312.4614      1.387     3.95     828.2436     55.06546     138.6255        10     1.077     0.618  63.52   0
       586    421.4466    143.0426 307.7619130  +6.6252198     474.2789     493.2308     241.7263      78.3092     156.2462     312.3372      1.075     3.77     829.1954     55.06546     95.95013         6     0.821     0.497  89.39   0
       587    395.9131    140.4857 307.7726073  +6.6254181     4084.523     6598.334       6808.3     78.06099     156.4324     312.4614      1.743     3.87     830.6693     55.06546     596.8407        32     1.631     0.986  65.34   0
       588    652.3174    141.0333 307.6660619  +6.6337901     892.4368     1378.948     1627.687      78.3092     156.1841     312.3682      1.691     4.27      828.247     55.06546     139.2195        11     1.231     0.698  49.69   0
       589    464.2477    141.5347 307.7441817  +6.6272787     1435.652     1959.244     1674.874      78.1852     156.1841     312.4614      1.466     3.43      828.637     55.06546     211.7252        13     1.136     0.726  54.22   0
       590    360.3474    139.4389 307.7874186  +6.6246558     3385.424     5063.696     4967.117      78.1852     156.2462     312.3993      1.579     3.56     833.1392     55.06546     489.2471        26     1.441     0.927  62.66   0
       591    572.5451    138.8535 307.6992782  +6.6320174     720.9129     1122.575     1176.973     78.55663     156.1841     312.3993      1.656     4.61      828.097     55.06546     94.20142         9     1.229     0.492  86.15   0
       592    114.6858    139.2320 307.8894852  +6.6164791     1874.903     2632.905     2616.384      78.3092     156.0598     312.3682      1.507     3.72     839.0698     55.06546     293.6959        17     1.246     0.831  58.22   0
       593    676.2052    136.8974 307.6562763  +6.6362974     838.1141     1124.516     1365.722     78.06099     155.9354     312.1196      1.510     5.17     828.0828     55.06546     146.9845        10     1.236     0.612  66.29   0
       594     52.9153    135.4787 307.9152740  +6.6159477     505.8652     828.7411     147.8632      78.3092     156.5564     312.4925      1.747     5.72     841.5164     55.06546     91.24152         7     1.216     0.758  86.48   0
       595   1007.2509    133.8876 307.5188340  +6.6486047      1501.48     2106.387     1949.829      78.3092      156.122     312.5235      1.388     3.72     825.2267     55.06546     246.6445        13     1.209     0.693  61.47   0
       596    733.1440    133.5381 307.6327325  +6.6395901      684.907     720.8932     308.3964     78.43301     156.2462     312.4304      1.210     4.02     827.7632     55.06546       112.29         6     1.049     0.440  60.84   0
       597    212.1978    128.2614 307.8493452  +6.6242900     5848.365     8524.982      8865.71     77.68719     156.0598     312.1196      1.536     3.43     837.3254     55.06546     820.3195        28     1.365     0.976  63.19   0
       598     94.7380    128.1128 307.8981484  +6.6203975     2142.441     3237.853     3526.245      78.3092     156.4324     312.3993      1.534     3.39     839.1923     55.06546     349.8304        18     1.230     0.890  70.41   0
       599    673.9206    127.1450 307.6575535  +6.6402471     6787.688     9590.558     9680.887     78.43301     156.2462     312.4304      1.488     3.53     827.6793     55.06546     1087.199        29     1.419     0.888  63.94   0
       600    821.9891    126.7052 307.5960487  +6.6453825     1082.912     1612.242     1360.464     77.93659     155.9354     312.1507      1.499     3.66     827.2712     55.06546     205.6932         9     1.098     0.534  69.01   0
       601    626.0929    124.3055 307.6775203  +6.6398176      10047.7     14709.22     15789.63      78.3092     156.7422     312.3682      1.557     3.49     827.5512     55.06546     1501.905        38     1.558     0.963  59.05   0
       602    260.6382    124.4577 307.8293490  +6.6274895     843.3895     1307.133     1384.013      78.3092     156.3083     312.3993      1.765     5.09     837.0568     55.06546     132.2944         9     1.268     0.577  59.73   0
       603     25.0703    123.5295 307.9272463  +6.6199422     949.9544     1504.162      801.727      78.3092     156.3704     312.3682      1.621     6.02       842.68     55.06546     153.3659        12     1.320     0.807 -69.98   0
       604    563.9529    123.8397 307.7033535  +6.6379277     652.5142     1068.078     1155.779      78.1852     156.2462     312.2129      1.557     5.44     827.4302     55.06546      100.465         8     1.075     0.804 -65.25   0
       605    353.2008    120.0985 307.7910403  +6.6324000     3713.831     5883.529     6240.315     77.81199     155.8732     312.0885      1.683     3.72     833.7563     55.06546     519.5237        29     1.354     1.179 -84.37   0
       606    534.9048    119.1584 307.7155799  +6.6388864     1832.774     2612.317     2392.837      78.3092     156.1841     312.5235      1.444     3.76      827.235     55.06546     259.6016        16     1.333     0.743  66.72   0
       607    999.4199    119.0146 307.5225863  +6.6544836     950.6916     1502.959     1394.624     78.06099     155.9976     312.3061      1.676     5.18     824.5817     55.06546     128.0438        13     1.284     0.850  62.14   0
       608    629.6813    115.9137 307.6763118  +6.6434023     56705.82      81939.3     85460.59     78.06099     156.4944     312.5235      1.501     3.38     827.2288     55.06546     8579.527        66     1.534     1.068  62.36   0
       609    308.8176    109.5868 307.8098346  +6.6352482       3958.8     5728.711      6153.62     77.93659     155.8732      312.275      1.562     3.37     835.9302     55.06546      564.715        26     1.357     0.932  64.63   0
       610      6.3375     92.6611 307.9360736  +6.6320538     739999.7      1516307      1647429      78.3092     156.2462     299.4913      2.119     6.07     843.2852     55.06546     61820.38       393     2.217     1.761  72.34  28
       611    708.6829    104.1407 307.6438840  +6.6509079     978.8096     1244.984     980.8611     78.43301     156.3083     312.4304      1.301     3.39     826.4395     55.06546     174.7892         9     1.103     0.510  69.87   0
       612    680.0284    103.0541 307.6558260  +6.6503972     1545.758      2272.59     2384.314     78.06099     156.3083     312.3061      1.469     3.58     826.6447     55.06546     251.2361        14     1.197     0.754  72.46   0
       613    694.0475     99.8267 307.6501098  +6.6521990     3391.494     4652.218     4674.784     77.93659     156.3083     312.3372      1.444     3.56       826.39     55.06546     529.5396        20     1.316     0.800  60.18   0
       614     65.9924     98.0342 307.9111083  +6.6318462     546.1778     588.7745     778.4267       77.812     156.0598     312.1818      1.396     4.77     839.5563     55.06546     92.83356         6     1.119     0.576  89.51   0
       615    435.7613     90.7735 307.7577280  +6.6472786     4188.696     6111.805      6489.75     77.93659     156.0598      312.244      1.542     3.45     828.3712     55.06546      619.724        24     1.336     0.910  64.92   0
       616    908.4214     86.2943 307.5614933  +6.6649540     4109.835     5858.464     5879.303      78.1852     156.0598      312.244      1.503     3.50     825.1894     55.06546      627.479        22     1.399     0.777  70.82   0
       617    890.4365     87.2145 307.5689352  +6.6639733     2289.757     3000.726     3082.938     77.93659     156.0598     312.1818      1.469     3.86     825.2655     55.06546     343.6759        16     1.272     0.718  66.39   0
       618    588.5488     86.7060 307.6943846  +6.6540821     908.5131      1229.05     1043.844      78.1852      156.122     312.6166      1.484     4.12     826.0897     55.06546     142.4329        10     1.109     0.789  56.47   0
       619    600.4702     84.7441 307.6894975  +6.6552915     1922.586     2456.682     2172.874      78.3092     156.1841     312.3682      1.421     3.79     826.0731     55.06546     261.2648        16     1.262     0.751  71.20   0
       620    246.2665     84.1727 307.8366805  +6.6436369     904.3491     1469.243     2052.366     77.93659      156.122     312.3372      1.749     4.39     836.5414     55.06546     142.3672         8     1.113     0.516  72.58   0
       621    399.1969     82.6618 307.7731932  +6.6493998     2055.597     3025.798     2363.048     77.68719     156.0598     312.1196      1.547     3.85     830.4645     55.06546     310.1233        16     1.286     0.759  55.76   0
       622    147.1853     79.5365 307.8780019  +6.6422169     3449.154     4842.227     4806.365       77.812      156.122      312.275      1.462     3.44     836.6082     55.06546     503.6221        21     1.354     0.806  63.48   0
       623     29.0148     77.3629 307.9271703  +6.6391336     13529.99     19789.47     20829.01     77.93659     156.0598     312.1818      1.548     3.40     840.6071     55.06546     1996.623        39     1.481     1.000  65.05   0
       624    295.3402     77.9882 307.8165007  +6.6478400     1194.292     1822.528     2723.505     77.68719      156.122     312.1196      1.715     3.69     836.0934     55.06546     191.6844        11     1.242     0.614  67.69   0
       625    763.8766     76.3532 307.6218855  +6.6642265     786.9069     1277.834     2137.699      78.1852     156.3083     312.3682      1.884     4.77      824.856     55.06546     123.8781         9     0.983     0.691  52.76   0
       626    555.8773     77.0730 307.7082836  +6.6569639     809.1714     1031.806     810.9613     78.55663     156.4944     312.4304      1.360     3.63     825.7144     55.06546     135.2334         8     0.834     0.669  65.22   0
       627    949.6306     75.8078 307.5447226  +6.6706594     516.9472      502.094     473.8323       77.812     156.0598     312.1818      1.121     3.19     823.6847     55.06546     103.3643         5     0.728     0.458  74.36   0
       628    897.5294     73.1697 307.5664594  +6.6700085     786.1428     1292.273     1030.113      78.1852     156.2462     312.3682      1.553     4.95       824.46     55.06546     124.0897         9     1.400     0.496  61.99   0
       629    830.7237     72.0077 307.5942564  +6.6682559     6562.362     9269.551     9426.266     77.93659     155.7486     312.2129      1.452     3.45      824.472     55.06546     1039.257        27     1.416     0.832  66.83   0
       630    775.8535     72.4326 307.6170408  +6.6662457     3463.226     4995.256     5465.155      78.1852     156.2462     312.3372      1.563     3.98     824.6058     55.06546       513.74        22     1.388     0.801  63.46   0
       631    420.7715     72.5543 307.7645702  +6.6542969     1091.594     1403.634     1155.312       77.812     156.3083     312.3061      1.517     4.44     828.8535     55.06546     194.7225        13     1.253     0.691  70.41   0
       632    657.8762     69.9549 307.6661434  +6.6633201     630.7981     869.8972     864.2706      78.1852     156.3083     312.4304      1.505     4.70     825.6398     55.06546     107.2404         8     1.178     0.532  79.28   0
       633    538.0612     70.3595 307.7159120  +6.6591381      1276.73     1625.642     1566.447      78.3092     156.2462     312.4925      1.399     3.50      825.597     55.06546     204.5275        11     1.035     0.673  67.60   0
       634     53.8904     70.1285 307.9170804  +6.6429584     1018.403     1589.397     1416.553      78.1852     156.4944     312.3993      1.653     3.72     839.0008     55.06546     182.9819         9     1.263     0.445  64.60   0
       635    430.7501     68.9516 307.7605458  +6.6561191     1113.142     1495.259     1465.936      78.3092      156.122     312.3682      1.492     3.62     828.4129     55.06546     173.2756        11     1.054     0.693  76.68   0
       636     69.2348     69.0307 307.9107426  +6.6439287     3539.001     5314.432     5301.817     77.93659     155.9976     312.1818      1.568     3.87     838.3098     55.06546     484.5806        25     1.419     0.929  60.27   0
       637    593.1910     66.0338 307.6931517  +6.6627719     1257.688     1939.132     1760.213       77.812     156.0598      312.244      1.639     4.14     825.5106     55.06546     205.1359        15     1.407     0.695  56.89   0
       638    263.9907     65.8304 307.8299362  +6.6518051      569.853     770.3683     924.6025       77.812     156.0598     312.2129      1.450     4.10     835.9807     55.06546      86.7019         7     0.870     0.653  57.10   0
       639     11.7867     64.6643 307.9347577  +6.6437950     2921.158     4363.369     5089.169       77.812     156.0598      312.275      1.650     3.51     840.3881     55.06546     414.9602        25     1.377     0.990  57.61   0
       640    770.4282     59.8076 307.6197193  +6.6712763     2030.414     2628.267     2593.994     77.93659     156.0598     312.2129      1.359     3.52     824.0602     55.06546     315.8844        13     1.183     0.656  58.83   0
       641    411.2150     60.0163 307.7689636  +6.6591521     1120.864     1636.972     1198.882     78.06099     155.9354     312.3372      1.463     4.02     829.5195     55.06546     171.7567        11     1.223     0.610  75.14   0
       642     84.0747     60.2425 307.9048745  +6.6480565     968.3497     1460.037     1467.493      78.1852     156.3083     312.4304      1.886     4.13     837.4735     55.06546       146.39        11     1.173     0.800  57.12   0
       643    108.1951     58.5183 307.8949117  +6.6495808     924.6378      1426.13     1694.243     77.93659     155.8109     312.1507      1.741     5.72     836.8237     55.06546      151.473        12     1.404     0.655  63.57   0
       644     97.0313     53.5353 307.8997185  +6.6512619     10271.96     14919.07      15533.2     78.06099     156.3083     312.3372      1.555     3.48     836.9714     55.06546      1411.53        35     1.481     0.965  65.30   0
       645    426.1266     53.3544 307.7629927  +6.6624029     2784.324     3910.697     4029.721      78.1852     156.3083     312.3993      1.468     3.60     828.5601     55.06546     416.0634        17     1.225     0.825  67.10   0
       646    247.3357     52.4496 307.8373079  +6.6567690     662.5128     1159.444     1763.554      78.1852     156.1841     312.4304      2.036     5.25     835.6289     55.06546      97.5625         8     1.104     0.706  61.41   0
       647    639.8224     45.6104 307.6744638  +6.6727657     19828.82     28360.07     29656.52     77.93659     155.9976      312.275      1.536     3.49     824.9244     55.06546     3151.234        42     1.493     0.952  64.42   0
       648    263.8639     47.5951 307.8306047  +6.6593289     1621.113     2563.108     3490.175     77.68719     156.0598     312.2129      1.785     3.45     835.4467     55.06546     259.3151        14     1.178     0.748  73.50   0
       649    539.6287     41.6257 307.7162286  +6.6710529       5692.9     8313.458     8569.212       77.812     156.0598      312.275      1.554     3.61     824.8942     55.06546     788.4886        29     1.427     0.914  63.73   0
       650    257.8804     41.8431 307.8332850  +6.6615022      2013.09     3207.016     4618.152      78.3092     156.2462     312.3682      1.885     3.68     835.2954     55.06546     290.8041        20     1.286     0.936  56.25   0
       651      7.2498     39.8016 307.9374844  +6.6539058     1245.907     2057.171     1895.411     77.68719     155.8732     306.4095      1.698     4.88     838.2287     55.06546     184.0873        15     1.334     0.817  68.63  16
       652    445.1778     37.3027 307.7556183  +6.6696691     24414.89     35356.02     36550.46      78.1852     155.9976     312.2129      1.540     3.55     827.4525     55.06546     3506.915        48     1.510     1.024  63.52   0
       653    265.8376     37.6860 307.8301193  +6.6634859     10094.77     14896.34     16539.84      78.3092     156.1841     312.3993      1.595     3.41     835.1407     55.06546     1492.257        40     1.489     1.069  63.31   0
       654    626.2563     36.0652 307.6804218  +6.6762518     3483.594      5822.35     6929.411     78.43301     156.1841     312.3993      1.985     5.58     824.6367     55.06546     529.3632        33     2.102     0.888  70.01   0
       655    511.4182     39.2239 307.7280309  +6.6710984      498.133     566.6471      168.549       78.061     156.1841     312.3061      1.429     4.56     825.1705     55.06546     78.73962         5     1.361     0.435  60.53   0
       656    325.9039     38.1102 307.8051483  +6.6653299     1181.719     1649.167     2010.911      78.3092     156.6803     312.3993      1.687     4.73     834.8983     55.06546     183.5935        12     1.197     0.755  58.67   0
       657     31.1113     37.1944 307.9276590  +6.6557865     2525.133     3666.979     3790.128       77.812     155.9354     312.1507      1.537     3.73     837.6434     55.06546     350.8145        19     1.403     0.812  60.44   0
       658    922.9215     37.0963 307.5571193  +6.6857493     2092.556     2987.484     3051.154     78.06099     156.4944     312.4614      1.516     3.89     822.3035     55.06546     350.2515        15     1.377     0.667  67.65   0
       659    530.6768     37.4443 307.7200889  +6.6724790     553.2691     818.5245     1154.807      78.1852     156.3083     312.4304      1.402     3.85     824.8813     55.06546     112.7472         6     0.908     0.468 -89.17   0
       660    558.2830     36.8307 307.7086392  +6.6736579     674.0222     947.0479     996.4338      78.3092     156.0598      312.275      1.518     4.31     824.7067     55.06546     124.8634         7     1.005     0.556  67.49   0
       661    253.6487     34.2765 307.8352988  +6.6644835     3240.232     4963.504     5477.247      78.1852     156.3083     312.3993      1.621     3.46     835.0815     55.06546     463.1582        23     1.365     0.906  78.54   0
       662    307.1279     32.5002 307.8131389  +6.6670149     1051.189     1619.389     1699.854     78.06099     156.4324     312.4304      1.689     4.45     834.8751     55.06546     150.6518        11     1.100     0.706  57.05   0
       663    943.8298     27.6116 307.5487497  +6.6903631     1123.226     1771.247       2141.1       77.812     155.9976      312.275      1.930     4.67     820.8387     55.06546     175.4053        13     1.401     0.715  71.17   0
       664    694.9982     26.9206 307.6521666  +6.6823291     1898.318     2792.089     3069.532     77.68719     155.7486     312.1818      1.521     3.57     823.8487     55.06546     294.8644        15     1.216     0.740  64.29   0
       665    100.3383     27.4371 307.8992274  +6.6621471     624.0424     1006.235      571.387      78.3092     156.3083     312.3993      1.610     4.78     836.6379     55.06546     88.76984         6     0.988     0.656  68.83   0
       666    206.5575     22.5552 307.8552605  +6.6677383     868.3833     1148.619     846.0069      78.1852     156.2462      312.244      1.555     4.44     834.9318     55.06546     124.0818         9     1.037     0.617  80.48   0
       667    961.2350   1016.1128 307.5083873  +6.2828422     6207.429     10567.67     11340.63      78.3092      156.122     312.3993      1.815     4.11     852.1023     55.06546     774.4966        40     1.646     1.183  63.87  16
       668    260.5942     21.6034 307.8328411  +6.6699489     1074.098     1533.917     1742.287     77.68719     155.9354      312.244      1.673     5.59     834.6931     55.06546     150.8256        11     1.258     0.701  60.95   0
       669    715.5598   1016.6188 307.6103713  +6.2744258     1146.337     1853.586     1958.654     77.93659     156.0598     311.9642      1.755     4.28     857.9747     55.06546     158.7638        13     1.145     0.831  53.63  16
       670    527.6122     17.9871 307.7220177  +6.6804087     3039.394     4326.472     4558.164      78.1852     155.9354     312.3372      1.492     3.68     824.4568     55.06546     425.6639        19     1.321     0.827  59.51   0
       671    245.5629   1016.0290 307.8055198  +6.2589127     1476.469     2065.133     1917.898     77.93659     155.9976      312.244      1.497     3.64     858.7281     55.06546     209.9047        16     1.270     0.809  67.81  16
       672    720.8293   1013.9616 307.6082727  +6.2756991     2729.295     4333.071     4542.198       77.812     155.9976      312.275      1.661     4.33     857.8127     55.06546     321.9191        24     1.493     0.942  63.83   0
       673     71.8182     16.7317 307.9114390  +6.6656057     504.4042     771.1558     204.9109     77.93659      156.122     312.3372      1.621     5.11     836.4667     55.06546     90.58197         5     1.055     0.701  76.15   0
       674     84.3967     16.0099 307.9062374  +6.6663274     532.9872     761.9006     513.4093     77.81199     155.9354      312.275      1.280     3.89     836.5196     55.06546     101.9934         5     0.916     0.473  80.82   0
       675    444.1344   1015.1290 307.7231106  +6.2659502     984.6139     1353.219         1531      78.3092     156.3083     312.3993      1.449     4.26     859.2463     55.06546     141.6794        11     1.136     0.726  53.84   0
       676    736.5217   1013.1992 307.6017831  +6.2765387     998.1416      1221.95     1203.328     77.56219     155.6863     312.1818      1.470     3.93     857.5809     55.06546       332.55        11     1.173     0.661  52.87   8
       677    367.5860   1011.5270 307.7550122  +6.2648691     1988.778     3066.989     3310.365       77.812     155.9976     312.2129      1.722     3.45     858.9238     55.06546     285.1652        17     1.218     0.910  68.39   0
       678    618.3571   1005.7575 307.6510928  +6.2756571     543.0685     501.1616     587.6707       78.061     156.2462      312.244      1.195     4.07     858.1194     55.06546     109.5716         5     1.204     0.394  76.14   0
       679    754.4108   1001.1546 307.5947600  +6.2821094     7771.147      12271.9     12830.51       77.812      156.122     312.1196      1.691     3.79     856.1187     55.06546     1025.316        37     1.581     1.039  63.98   0
       680    593.1895   1003.6362 307.6616132  +6.2756901     474.0684     784.0883     772.7809       77.812     156.0598     312.1507      1.352     4.42     858.2217     55.06546       94.237         5     1.116     0.497  60.26   0
       681    549.8474   1001.7233 307.6796723  +6.2750281     4351.961     6517.235     7539.866      78.1852     156.3083     312.3682      1.612     3.74     858.5604     55.06546     597.7693        27     1.371     1.014  65.23   1
       682    520.1674   1003.1206 307.6919478  +6.2734567     1139.877     1840.933      1615.43      78.1852     156.2462     312.3993      1.528     5.57     858.9371     55.06546     174.2151        13     1.320     0.687  60.46   0
       683    300.1121   1000.3279 307.7834025  +6.2672272     15700.15     23796.49     25726.73     78.43301     156.4944     312.3993      1.655     3.47     858.6111     55.06546     2169.877        60     1.548     1.431 -82.09   0
       684    815.5997   1000.8547 307.5693651  +6.2842785      998.304     1639.239     2170.646     77.56219     155.8732     312.0575      2.143     3.75     853.3187     55.06546     182.4156        10     1.043     0.755 -69.20   0
       685    424.5605   1000.9286 307.7317151  +6.2711561     1125.155     1633.017     1847.736      78.1852     156.2462     312.4614      1.591     3.77     858.8473     55.06546     155.8153        10     0.971     0.732  58.29   0
       686    271.1250    997.7017 307.7955255  +6.2673377     989.7407     1515.511     1521.643       77.812     156.3704     312.3993      1.601     4.31     858.4985     55.06546      131.968         9     0.983     0.645  55.02   0
       687    915.7630    994.6616 307.5279855  +6.2901807     8242.374     13472.41     13967.84      78.3092     156.3083     312.3993      1.750     3.83     852.2169     55.06546      979.808        38     1.537     1.145  61.09   0
