#   1 NUMBER                 Running object number                                     
#   2 X_IMAGE                Object position along x                                    [pixel]
#   3 Y_IMAGE                Object position along y                                    [pixel]
#   4 ALPHA_J2000            Right ascension of barycenter (J2000)                      [deg]
#   5 DELTA_J2000            Declination of barycenter (J2000)                          [deg]
#   6 FLUX_APER              Flux vector within fixed circular aperture(s)              [count]
#   9 FLUXERR_APER           RMS error vector for aperture flux(es)                     [count]
#  12 FLUX_RADIUS            Fraction-of-light radii                                    [pixel]
#  13 FWHM_IMAGE             FWHM assuming a gaussian core                              [pixel]
#  14 BACKGROUND             Background at centroid position                            [count]
#  15 THRESHOLD              Detection threshold above background                       [count]
#  16 FLUX_MAX               Peak flux above background                                 [count]
#  17 ISOAREA_IMAGE          Isophotal area above Analysis threshold                    [pixel**2]
#  18 A_IMAGE                Profile RMS along major axis                               [pixel]
#  19 B_IMAGE                Profile RMS along minor axis                               [pixel]
#  20 THETA_IMAGE            Position angle (CCW/x)                                     [deg]
#  21 FLAGS                  Extraction flags                                          
         1    413.5240     22.1230 307.7560067  +6.6689518     6601.867     24206.28     33790.66     93.39188     186.0481     371.4691      3.194     8.41     1225.176     65.46446      701.781       101     2.447     2.305  29.55   0
         2    233.7917     24.7185 307.8306596  +6.6619011     2840.143     7216.068     12380.35     92.65476     185.3095     371.2476      4.617    10.89     1241.776     65.46446     329.6918        53     2.822     1.894  37.32   2
         3    594.1842     20.7186 307.6809255  +6.6755306     1227.031     4001.632     5710.961     92.65476     185.4575     371.2476      3.300    11.19     1213.813     65.46446     146.6925        37     2.056     1.697  46.90   0
         4    222.9643     18.4193 307.8353746  +6.6641397     995.3824     3212.841     5484.179     92.50663     185.5314     371.1367      4.868     9.86     1242.228     65.46446     140.4718        24     1.998     1.357  62.01   3
         5    151.6926      4.8972 307.8654683  +6.6673446     3229.776     11722.22     16150.74     93.09774     186.3427      338.638      3.163     8.13     1242.339     65.46446     365.8901        80     2.352     2.170  -0.29  24
         6    494.5139      3.9582 307.7229380  +6.6791381     1063.178     2764.571     3760.453     93.09774      182.776     324.9992      2.895     9.69     1219.607     65.46446     134.6361        22     1.932     1.357  13.07  26
         7    897.0238      2.6360 307.5555901  +6.6930233     1799.271     4158.318     4788.201     92.65476     168.4053     303.3485      2.333     8.53     1205.829     65.46446     200.1193        33     1.922     1.315 -11.70  24
         8    929.8849   1000.0067 307.5085401  +6.2825430     4920.881     9644.835     10004.22     92.65476     185.3835     371.2106      2.049     4.63     1271.813     65.46446     534.1892        42     1.707     1.378  48.15   0
         9    555.7881   1021.3341 307.6632769  +6.2613590      88243.3     204558.8     230599.4     92.50664      180.283     320.3668      2.361     5.17     1274.949     65.46446     9227.853       114     2.438     1.790  30.13  27
        10    557.4481   1014.0106 307.6628330  +6.2644361     40931.98     97560.21     112693.1     92.50663     185.6053     371.0258      2.447     5.47     1274.701     65.46446      4245.13       121     2.919     1.682  24.10  19
        11    189.5240   1023.2250 307.8154014  +6.2484106     1765.175     2795.508     2961.854     86.84843     155.2709     287.8055      1.689     6.06     1276.104     65.46446     296.9882        15     1.484     0.696  14.77  24
        12    690.2643    998.2570 307.6081718  +6.2753384     1704.128     3796.427     5339.683     93.24493     185.6792     371.4322      2.850     6.57     1273.492     65.46446     182.7063        26     1.556     1.297  49.64   2
        13    336.8527    996.0017 307.7551011  +6.2645439     1018.789     2120.605     2650.347     92.35827     185.3835     370.9149      2.195     7.54     1275.815     65.46446     148.6655        13     1.515     1.051  69.28   0
        14    705.1893    997.0041 307.6020119  +6.2763497     641.8789     1217.646     1136.536     92.65476     185.3835     371.2845      1.686     4.88     1273.162     65.46446     128.4731         5     1.505     0.448 -14.16   0
        15    269.1823    985.0331 307.7835887  +6.2668202     7745.956     19638.56     24252.01     92.65476     185.5314     371.2476      2.609     5.68     1275.283     65.46446     865.6487        75     2.128     1.896  16.02   0
        16    723.2359    985.2212 307.5949076  +6.2818095     4501.618     10504.24     12039.08     92.50664     185.4575     371.0998      2.442     5.26     1272.318     65.46446     482.6509        52     1.847     1.619  20.43   0
        17    519.0430    985.9156 307.6797348  +6.2747555     2350.363     5928.168     7199.811     93.09774     185.6792     371.3584      2.630     6.25     1274.464     65.46446     261.7391        40     1.734     1.626   8.92   3
        18    515.9071    978.2551 307.6812952  +6.2778125     4233.252     10805.73     13847.41     92.95032     185.6792     371.6168      2.673     5.80     1274.218     65.46446     519.7847        59     1.977     1.773  50.57   3
        19    784.4399    984.5303 307.5694976  +6.2841203     902.0414     1671.005     1814.204     92.95032      185.753     371.4691      1.856     5.82     1271.972     65.46446     121.5797         8     1.140     0.837 -19.71   0
        20    884.4872    978.5525 307.5281229  +6.2898959     5959.014     12406.46     13563.78     93.09774     185.6053     371.4322      2.218     4.61     1270.604     65.46446     618.3589        51     1.751     1.575  38.76   0
        21    858.1545    974.7857 307.5391916  +6.2905797     7875.235     17489.42     20707.56     92.35827     185.5314     371.1367      2.335     4.98     1270.517     65.46446     786.2618        61     1.897     1.645  12.27   0
        22    502.6233    974.1106 307.6869543  +6.2790820      2313.93     5838.704     6769.267     93.09774     185.5314     371.2476      2.561     6.51     1274.361     65.46446     279.2224        42     1.960     1.499  35.27   0
        23    979.6990    974.0377 307.4887080  +6.2949048     3532.341     6971.059     7615.973     93.09774     185.6053     371.6537      2.115     4.67     1268.445     65.46446       361.83        34     1.486     1.384  24.98   0
        24    611.7585    973.5254 307.6416237  +6.2829428     684.6681     1909.438     1329.677     92.95032     185.8268     371.4322      2.363     8.00     1273.085     65.46446     88.23425         9     1.530     1.169 -49.83   0
        25    572.4058    974.8357 307.6579325  +6.2810975     604.2722     1433.158     1693.644     92.06081     185.4575     371.1367      2.373     3.42     1273.299     65.46446     89.54419         5     0.771     0.440 -69.79   0
        26    455.8948    970.5649 307.7064909  +6.2789942     1206.765     2819.829      2821.87     93.24493     185.6053      371.506      2.299     8.92      1274.85     65.46446     142.3385        25     1.858     1.197   9.47   0
        27    889.8602    962.2978 307.5264340  +6.2967810     28467.08     61217.17     68895.26     92.80266      185.753      371.543      2.254     4.82      1269.61     65.46446     2940.624        90     1.960     1.701  35.94   0
        28    198.6535    961.3915 307.8136912  +6.2742291     961.4308     2213.361     2682.059     92.50664     185.6053     371.0628      2.518     7.57     1273.989     65.46446     118.3969        14     1.484     1.082 -34.83   0
        29    787.7051    956.3157 307.5690858  +6.2958712     1383.394     3242.638     3775.759     92.95032     186.1955      371.506      2.385     8.06     1270.339     65.46446     150.2174        26     1.551     1.384  -5.84   0
        30    735.9379    953.9778 307.5906764  +6.2951226     3530.012     8674.603     10392.07     92.65476      185.753     371.2845      2.510     5.99       1270.9     65.46446     377.1316        48     1.844     1.695  -2.85   0
        31     30.6691    952.0062 307.8838084  +6.2725065     1530.249     3486.535     3843.322     92.50663     185.2355     371.2106      2.262     6.27     1272.452     65.46446       223.17        25     1.588     1.412  47.11   0
        32    206.1499    952.8657 307.8108634  +6.2779966     776.9059     1704.286     1656.057     92.95031     185.6053     371.3953      1.966     5.93     1273.835     65.46446     117.8484         8     1.625     0.608  31.69   0
        33    924.0886    948.9808 307.5126555  +6.3034076     4420.687     9551.923     10581.17     92.80266     185.4575     371.2845      2.249     5.24     1268.675     65.46446     457.0913        45     1.760     1.510  55.51   0
        34    897.7901    940.8970 307.5238547  +6.3058743     1271.909     2557.079     2581.304     92.80266     185.3095     371.1737      2.113     7.84     1268.344     65.46446     126.9642        20     1.630     1.056  45.75   0
        35    231.1365    937.4709 307.8009993  +6.2851805      2153.35     5553.848     6274.803     93.09774      185.753     371.4691      2.461     5.98     1273.734     65.46446     289.5404        43     1.798     1.672 -71.38   0
        36    618.7925    936.8564 307.6399310  +6.2983073      2459.22     5867.141     6312.879     92.35827     185.6053     371.1367      2.394     6.14     1271.782     65.46446     259.1678        38     1.718     1.502  35.12   0
        37    968.4440    935.6249 307.4946694  +6.3103843     572.5419     1204.687     1276.498     92.50664     185.8268     371.2476      1.696     3.59     1266.187     65.46446     119.5844         5     1.364     0.272  44.80   0
        38      1.6776    934.6990 307.8964390  +6.2786813     989.5598      1233.72     1368.019     85.57585     153.8512     286.3724      1.135     2.62     1272.625     65.46446      171.946         6     0.722     0.548  43.58  24
        39    544.0648    929.1666 307.6712427  +6.2990027     935.4102     1796.473     1700.927     92.95032      185.753     371.3584      2.009     5.31       1271.8     65.46446     120.7568         9     1.169     0.681  76.06   0
        40    974.8052    928.4675 307.4922651  +6.3135479     725.0283      1553.73     1632.184     92.50664     185.3835     371.1737      2.162     4.61     1265.315     65.46446     128.9877         6     0.979     0.616 -64.06   0
        41    262.5164    924.5796 307.7883939  +6.2915438     696.9402     2027.791     2729.759     92.80266     185.3835     371.3584      2.980     7.22     1273.581     65.46446      110.078         8     1.330     1.097  88.70   0
        42    866.8311    916.0002 307.5375535  +6.3151246     4258.946     9856.637      11223.1     92.35827     185.5314     371.1737      2.342     5.18     1267.212     65.46446     461.3116        53     1.814     1.741  85.94   0
        43    403.1609    913.7425 307.7303142  +6.3006905     1080.058      2860.09     3623.323     93.09774     185.8268     371.4322      2.955     8.00     1273.108     65.46446     161.3489        20     1.714     1.408 -28.18   0
        44    304.6164    912.0980 307.7713197  +6.2980943     4369.166     11762.25     14426.16     93.09774     185.4575     371.1737      2.685     6.13     1273.546     65.46446     507.2305        64     2.074     1.851  33.73   0
        45    224.7370    910.9669 307.8045512  +6.2959041     3167.233     8813.332     10866.36     92.80266     185.8268     371.3584      2.672     7.06     1273.215     65.46446     410.8057        51     2.042     1.690  45.15   0
        46    553.1865    904.8168 307.6682697  +6.3093531     704.5271     1703.052     1709.472     92.80266     185.3835     371.3214      2.440     5.23     1270.967     65.46446     111.0342         6     1.370     0.565 -73.33   0
        47    838.1254    900.0879 307.5500156  +6.3207416     588.0645     946.5699     413.9538     93.09774     186.1218      371.506      1.632     4.56     1266.722     65.46446      104.782         5     1.213     0.486 -21.68   0
        48    719.2539    894.0059 307.5996197  +6.3193176     817.0573     1764.712     1392.216     92.50664     185.4575     371.0628      2.123     5.09     1267.962     65.46446     124.1355         8     1.103     0.722  21.65   0
        49    952.0000    888.9587 307.5030637  +6.3290982     612.9628     1413.737     1194.979     92.20966     185.3095     370.9889      2.262     3.34     1263.548     65.46446      129.998         4     0.714     0.452 -88.42   2
        50    638.4269    887.0875 307.6334414  +6.3194951     1057.045      2756.15     3384.311     93.24493     185.4575     371.2845      2.906     8.01     1268.488     65.46446     155.4037        15     1.984     0.905  36.43   0
        51     34.8073    884.5439 307.8843655  +6.3004814     1331.507     3426.524     4349.126     92.50664     185.6053     371.0998      2.729     6.13      1271.54     65.46446     179.3284        24     1.807     1.365 -77.59   0
        52    178.0649    882.9630 307.8248891  +6.3059062     967.5608     2315.055     3081.831     92.95032     185.6792     371.4691      2.493     8.49     1271.557     65.46446     165.4708        15     1.692     1.190 -33.89   0
        53     52.2346    882.3760 307.8771970  +6.3019568     961.8704     2055.144     2451.773     92.50664     185.5314     371.1367      2.198     5.88      1271.23     65.46446     151.2135        10     1.215     0.801  27.94   0
        54    632.3071    876.8058 307.6363296  +6.3235350     3439.914     9131.755     10585.42     92.65476     185.3835     371.1737      2.605     6.10      1268.04     65.46446     382.0243        54     1.925     1.755  57.30   0
        55    315.5082    870.3745 307.7681978  +6.3156731     7203.622     20177.33     25930.57     93.24493     185.4575     371.2106      2.819     6.33      1273.01     65.46446     856.1528        85     2.240     2.033  32.84   0
        56    869.6063    872.6566 307.5378510  +6.3331023      1524.81     3339.218     4312.561     92.50664     185.6053     371.0628      2.505     7.40     1264.926     65.46446     164.6569        22     1.439     1.293  33.00   0
        57     78.9958    860.1683 307.8668257  +6.3120123     896.3981     1940.597     2730.672     92.35827     185.6053     371.1367      2.658     6.24     1270.184     65.46446     121.2031        12     1.224     0.894 -31.56   0
        58    860.3650    854.7598 307.5422907  +6.3401819     1172.813     2956.852     2921.228     92.80266      185.753     371.1737      2.326     7.16     1263.981     65.46446     147.4982        20     1.626     1.416  57.26   0
        59    794.2027    853.3463 307.5698346  +6.3385767     1545.789     3993.453     4138.387     92.35827     185.5314     370.9519      2.428     7.90       1264.6     65.46446     174.0553        32     1.725     1.496   9.76   0
        60     62.6155    854.8777 307.8738111  +6.3136494     1184.111      2963.47     3603.089     92.65476     185.4575     371.2106      2.475     8.55     1270.249     65.46446     148.3263        21     1.535     1.330   4.31   0
        61    830.3188    853.6387 307.5548152  +6.3396509     1024.113     2049.395     2222.939     93.09774     185.8268     371.3214      2.205     7.84      1264.26     65.46446     135.3031        15     1.433     1.201  35.06   0
        62    530.3312    845.3370 307.6797651  +6.3331391     143285.1     409390.6     509152.2     93.09774      185.753     371.4691      2.771     6.37      1268.59     65.46446     15361.14       204     2.350     2.156  34.89   0
        63    374.6235    848.1052 307.7443808  +6.3268271     3099.032     9140.015     11638.31     93.24493     185.4575     371.2476      2.822     6.88     1271.481     65.46446     371.6288        59     2.071     1.841  32.20   0
        64    317.9207    846.5148 307.7679983  +6.3255988     5014.449     15112.29     19086.84     92.95031     186.1218      371.506      2.844     6.64     1272.356     65.46446     563.9901        72     2.150     1.997  37.63   0
        65    636.6231    841.5427 307.6357190  +6.3382293     1677.031     3946.347     4589.957     92.65476      185.753     371.1737      2.602     6.05      1265.48     65.46446     233.1014        27     1.768     1.161  36.21   2
        66    868.4113    841.1089 307.5394036  +6.3460811     3126.401     7143.027     8639.937     92.80266     185.3835     371.1737      2.445     6.03     1262.842     65.46446     308.8811        48     1.966     1.553  17.04   0
        67    611.2604    836.4130 307.6464316  +6.3395054     1546.712     3885.175      4976.68     92.35827     185.6053     371.0258      2.750     8.42     1265.473     65.46446     201.5018        33     1.885     1.515  59.40   2
        68    602.4586    833.3600 307.6501921  +6.3404734     938.4763     2137.668     3605.147     93.09774      185.753     371.4691      3.635     7.43     1265.529     65.46446     100.5092        15     2.123     0.728  24.52   3
        69    604.3454    830.4199 307.6495066  +6.3417492     954.5757     2107.567     3243.262     92.50664      185.753     371.1737      2.418     6.62      1265.21     65.46446     122.5719        14     1.855     0.662  24.99   3
        70   1001.9830    835.2803 307.4840857  +6.3528997     3102.612     6456.824      7805.86     92.65476     185.3835     371.2845      2.304     4.99     1257.648     65.46446     376.3967        36     1.623     1.390  -4.38   0
        71    798.8762    835.0198 307.5685063  +6.3462938     801.0301     1944.578     2076.356     92.65476     185.3835     371.3214      2.387     5.97     1263.173     65.46446      121.965         9     1.207     0.830 -62.99   0
        72    887.2625    829.1046 307.5319708  +6.3516579     2032.348     4463.771     5224.086     92.95032     185.8268     371.4322      2.336     5.89     1261.428     65.46446     191.6523        31     1.522     1.441 -78.64   0
        73    345.9122    825.3499 307.7570780  +6.3352628     1077.545     3076.886     4379.245     93.09774     185.5314      371.543      3.147     9.61     1271.481     65.46446     160.5214        25     1.858     1.608  30.84   0
        74    479.9997    816.1440 307.7016629  +6.3435153     965.2741     1741.234     2534.141     92.20966     185.3835     371.0628      2.355     6.38     1267.207     65.46446     147.7831        11     1.392     0.919  72.96   3
        75    482.7642    813.9421 307.7005880  +6.3445156     1457.726     2886.411     3874.597     93.09774      185.753     371.3953      2.220     7.33     1267.042     65.46446     174.1877        20     1.659     1.040  43.57   2
        76    529.1254    811.0888 307.6814166  +6.3472315     2586.472     7493.394     10577.99     93.09774     186.1218      371.506      3.081     8.20     1266.411     65.46446     299.1638        58     2.271     1.805   6.51   0
        77    827.2208    812.4834 307.5574809  +6.3565313     556.9915     1336.277     2138.171     92.80266     185.3835     371.3214      1.782     4.44     1261.191     65.46446     134.7284         5     1.611     0.348  25.64   0
        78     88.6903    809.3706 307.8645108  +6.3332961     657.0117     1426.554     1742.644     93.24493     185.4575     371.3214      2.114     5.60     1268.389     65.46446     108.2048         7     1.540     0.575  36.16   0
        79    498.0010    806.5018 307.6945057  +6.3480915     5692.494     11468.07     13482.89     92.50664     185.3095     370.9889      2.110     6.26     1266.482     65.46446      628.739        30     2.089     0.985  36.22   3
        80    500.0320    803.9976 307.6937458  +6.3491923     8300.147      18259.6      21366.4     92.20966     185.5314     371.1367      2.307     6.34     1266.282     65.46446     940.5197        51     2.280     1.220  27.88   3
        81    912.8499    802.7897 307.5222170  +6.3633626     2105.065     4949.629     5488.891     92.50663     185.6053     371.0258      2.390     5.61     1258.677     65.46446     235.0112        35     1.620     1.515  45.69   0
        82    292.3417    793.1431 307.7804250  +6.3467715     1317.727     3521.038     4451.005     93.24493      185.753     371.4322      2.816     7.72     1270.338     65.46446     176.1759        28     2.099     1.141  45.93   2
        83    757.4274    789.3688 307.5872622  +6.3637601     25384.39     68697.38     83524.93     92.50664     185.4575     371.1737      2.644     5.95     1259.917     65.46446     2539.564       105     2.181     1.976  38.78   0
        84     10.9714    795.0009 307.8972930  +6.3366346     672.3319     1468.289     2149.673     92.50664     185.5314     371.1737      2.497     5.11     1267.801     65.46446     119.9663         6     1.352     0.546  26.89   0
        85    214.2818    790.2451 307.8129630  +6.3453704     1363.883     2892.724     4881.195     93.09774      185.753     371.3584      2.800     6.67     1270.017     65.46446     164.0332        13     1.812     0.688  16.18   3
        86    215.3883    786.8356 307.8126181  +6.3468141     2413.223     5773.989     9429.293     92.50664     185.5314     371.1367      3.626     7.07     1269.852     65.46446     251.9498        43     2.150     1.452  22.14   3
        87    882.6191    784.5480 307.5353920  +6.3698909     4743.009     11403.39     13260.87     92.50664     185.8268     371.1737      2.502     5.58     1258.512     65.46446     474.4091        52     1.862     1.670  48.85   3
        88    879.6108    775.7797 307.5369358  +6.3734097     3499.206     8751.064     10544.65     92.65476     185.3835     371.2476      2.546     5.99     1258.017     65.46446     339.0194        53     1.917     1.704  29.71   3
        89    680.6534    781.1960 307.6194444  +6.3645902      33155.4     104200.3     158598.3     92.35827     185.4575     370.9889      3.355     9.38     1260.729     65.46446     3904.743       182     3.599     2.085  29.37   0
        90    324.5980    781.7184 307.7674042  +6.3525584     7674.136     24031.75     31147.25     92.35827     185.3095     371.0628      2.893     6.80     1269.377     65.46446      952.035        85     2.304     2.021  33.76   0
        91    384.7766    781.1747 307.7424127  +6.3547828     5973.509        13127     15697.55     92.50663     185.6053     371.3584      2.285     6.76     1268.341     65.46446     612.2675        36     2.178     0.984  43.52   3
        92    387.1270    778.4521 307.7415275  +6.3559843     8965.579     20034.21     24192.81     93.09774     185.8268     371.4322      2.409     6.50     1268.077     65.46446     960.6235        54     2.368     1.265  38.28   3
        93    375.2655    781.0793 307.7463687  +6.3545061     515.3413     1196.572     1653.212     93.39188     185.9006     371.3584      2.498     4.81      1268.62     65.46446      126.702         7     1.411     0.464  17.53   0
        94    214.3881    766.2802 307.8137263  +6.3552627     722477.4      2527490      3388748     92.65476     185.3835     371.2106      3.078     6.34     1268.629     65.46446     63947.49       558     2.710     2.471  50.13   4
        95    618.9890    776.6720 307.6452246  +6.3644137     1930.399     3503.251      4693.36     92.50663     185.3095     371.2106      1.828     6.17     1261.012     65.46446     238.5186        15     1.801     0.614  30.96   3
        96    620.4901    773.9929 307.6446906  +6.3655689     2637.303     5577.053     6606.608     92.65476     185.3835     371.1367      2.361     7.42     1260.812     65.46446     300.3733        37     2.064     1.431  30.83   3
        97   1002.8061    767.3034 307.4860162  +6.3809780     574.0573     858.0129       793.41     92.80266     185.3835     371.1737      1.568     4.93     1253.846     65.46446     81.26184         6     1.546     0.446  33.08   0
        98    657.2231    764.7788 307.6297330  +6.3705885     1035.833     2675.801     4505.607     92.80266     185.5314     371.3584      3.292     8.07     1260.014     65.46446     132.2535        15     2.109     0.862 -44.72   2
        99    389.2538    762.1721 307.7411912  +6.3627728     20054.94     63264.45     82478.74     92.80266     185.8268     371.2845      2.926     6.93     1266.923     65.46446     2338.658       118     2.371     2.173  32.46   0
       100    505.4460    763.2203 307.6928658  +6.3661985      1989.88     3561.267     4926.487     92.65476     185.6792     371.2106      1.950     6.24     1262.853     65.46446     247.2598        17     1.566     0.778  43.78   3
       101    507.6697    760.0918 307.6920467  +6.3675633      2743.51      6321.57     8033.701     93.09774     185.9006     371.3953      2.522     7.38      1262.58     65.46446     303.9425        38     2.205     1.228  44.08   3
       102    423.4848    759.0629 307.7270692  +6.3651929     1839.768     5213.925     8742.338     93.24493     185.9006     371.3584      3.846    12.91     1265.767     65.46446     202.6664        54     2.754     1.684  49.05   2
       103    752.1385    757.4180 307.5905311  +6.3767696     5143.925     14215.65      17328.4     92.65476     185.6792     371.1737      2.665     6.30     1258.146     65.46446     515.6573        64     1.998     1.834  22.86   0
       104    109.6616    749.9145 307.8578012  +6.3585283     4579.817     14165.67     21232.83     93.24493     185.9006     371.3953      3.653    12.13     1267.273     65.46446     532.4325       120     4.230     1.928  23.15   2
       105    119.1527    749.2072 307.8538807  +6.3591364     1154.834     2592.905     3258.596     92.50663     185.5314     370.9519      2.300     7.93     1267.318     65.46446     149.0881        22     1.971     0.893  38.74   3
       106    897.3937    746.0862 307.5305386  +6.3862507     3281.354     8182.035     9640.177     92.50663     185.3835     371.0998      2.486     5.78     1256.048     65.46446     340.0941        47     1.748     1.685  66.62   0
       107    923.6041    777.2764 307.5186010  +6.3742462     1266.918     3176.158     3670.735     92.65476     185.1615     371.2106      2.473     5.99     1257.189     65.46446     156.7616        15     1.425     0.910  28.93   2
       108    945.0884    747.1484 307.5106795  +6.3873886     749.2924     1594.111     2226.274     93.09774     185.5314      371.506      1.829     4.95     1255.245     65.46446     113.6772         7     1.270     0.546  21.49   2
       109    946.9680    744.6044 307.5099834  +6.3885006     623.7217     1481.414     2084.775     92.35827     185.6053     371.1367      1.997     5.36     1255.073     65.46446     92.67773         6     1.732     0.469  -2.92   2
       110    540.6724    742.1110 307.6789344  +6.3760780     921.1678     2180.203     3388.017     93.09774     186.0481     371.4322      2.995     6.34     1260.913     65.46446      127.265        12     1.595     0.707   9.55   0
       111    651.6146    741.6375 307.6328404  +6.3799519     663.0364     1150.153     2366.114     92.65476     185.5314     371.1367      2.789     3.88     1258.598     65.46446     102.1001         5     1.041     0.414  14.78   0
       112    102.9027    740.1473 307.8609396  +6.3623334     773.2818     1689.694       2269.1     92.95031      185.753     371.6906      2.504     7.06     1267.001     65.46446     132.8601        11     1.538     0.907  16.10   0
       113    951.3326    737.6184 307.5084030  +6.3915276     993.3853     2287.957     2609.367     92.65476     185.6792     371.2845      2.381     7.43     1254.592     65.46446     117.4512        16     1.809     0.855  74.49   0
       114    921.0367    737.4019 307.5210024  +6.3906158     1704.744     3999.643       4383.1     92.06081     185.5314     371.1737      2.264     6.39     1255.558     65.46446     180.2551        28     1.637     1.310  58.01   0
       115    891.7040    738.9037 307.5331438  +6.3890265     1431.431     2896.471     3981.754     93.09774     186.4899     371.2106      2.301     8.01     1255.672     65.46446       196.12        18     1.829     0.980 -29.48   2
       116    891.0456    736.2978 307.5335047  +6.3900801     1178.145     2115.697     2796.188     93.09774     185.6053     371.6168      1.848     5.60     1255.489     65.46446     186.8815         9     1.501     0.590 -28.58   3
       117    218.1080    732.2463 307.8133272  +6.3694301     746.1561     2058.224     3130.456     93.09774     185.6792      371.543      2.514     7.22     1266.503     65.46446     102.7699        10     1.707     0.856  17.63   0
       118    937.0405    726.1924 307.5147256  +6.3957703     1091.197      2240.38      2943.91     92.35827     185.4575     371.0258      2.544     7.65     1254.395     65.46446     144.0363        12     1.471     1.115 -49.26   2
       119    935.7813    723.4387 307.5153411  +6.3968650     1057.335     1961.302     2850.918     92.65476     185.5314     371.1367      2.074     6.17     1254.213     65.46446     140.6967        11     1.698     0.631 -41.74   2
       120   1009.9312    719.2654 307.4846608  +6.4010364     4189.132     9905.539     10777.02     93.09774     185.8268     371.4322      2.413     5.55     1251.478     65.46446     464.6709        52     1.835     1.690  55.53   0
       121    977.8546    718.3832 307.4980228  +6.4003412      1013.52     2340.447     2637.007     92.50664     185.6792     371.0998      2.438     7.38     1252.492     65.46446     135.3755        12     1.363     1.120  63.06   0
       122    864.9952    713.4767 307.5450962  +6.3986360     750.1528     1984.205     2735.977     92.65476     185.1615     371.2106      2.897     8.01     1254.059     65.46446      120.755        10     1.494     1.200 -85.56   0
       123     22.1855    704.2920 307.8956952  +6.3744378     976.5936      2705.55     3576.385     92.80266     185.5314     371.1367      2.799     8.09     1263.486     65.46446     122.3596        18     2.230     0.820  41.88   0
       124    824.2783    704.5551 307.5623187  +6.4009709     609.4992     1320.714     2119.748     92.95032      185.753     371.3953      2.717     3.63     1254.244     65.46446     108.1354         4     0.842     0.450  17.17   2
       125    633.1631    695.5716 307.6420552  +6.3983494      1801.46     3787.132     5357.752     92.65476     185.4575     371.1737      2.529     6.85     1256.202     65.46446     208.3502        21     1.763     0.985  46.21   3
       126    634.8770    692.4336 307.6414481  +6.3997011     2570.048     5358.372     7540.307     92.95032      185.753     371.3584      2.559     7.02      1255.95     65.46446     330.8132        35     2.213     1.078  27.35   3
       127     98.5166    689.5989 307.8644678  +6.3830452     1378.082      3407.25     4642.854     92.20966     185.2355     371.0628      2.825    11.34     1263.172     65.46446     200.5085        30     2.257     1.586  34.09   2
       128     95.5378    690.9799 307.8656592  +6.3823761     876.0491     1540.078     2575.464     92.65476      185.753     371.2476      2.016     3.62     1263.256     65.46446     147.1812         5     0.832     0.513  37.32   3
       129    582.8193    692.2061 307.6630929  +6.3980691     581.4598     1352.241     1951.192     92.65476     185.3835     371.1737      3.041     4.95     1257.277     65.46446     103.6794         6     1.035     0.669   5.57   0
       130    970.7745    688.4280 307.5019675  +6.4124685      1464.29     3408.257     3679.371     92.50664     185.5314     371.2476      2.306     7.04     1251.278     65.46446     160.7404        27     1.527     1.336  27.49   0
       131    750.9773    685.5712 307.5934221  +6.4063788     8190.934     24242.42     29811.88     92.50663     185.5314     371.2106      2.761     6.53     1253.465     65.46446     907.2173        80     2.186     1.969  36.14   0
       132    609.4100    688.0403 307.6521807  +6.4006698     863.3947      1923.27     2835.189     92.35827     185.5314     371.0998      2.550     6.62       1256.3     65.46446     99.42493        11     1.234     0.998  32.61   0
       133    880.7762    685.2021 307.5394835  +6.4108255     1637.206     4468.077     5397.638     92.65476     185.3835     371.1737      2.561     7.37     1252.106     65.46446     186.3682        32     1.758     1.486 -15.10   0
       134    224.8381    679.7303 307.8122996  +6.3913241     2194.875      7310.19     9844.037     92.95032      185.753      371.506      3.097     9.34     1261.954     65.46446     268.1091        59     2.275     1.936  57.15   0
       135    629.9718    679.9718 307.6439052  +6.4046809     1968.209      3565.62     5241.584     92.50664     185.5314     371.1737      2.186     6.56     1255.429     65.46446       248.48        18     1.800     0.732  43.03   3
       136    632.4219    677.1956 307.6429800  +6.4059077     2832.194     6178.955     8122.273     92.65476     185.4575     371.1367      2.591     7.90     1255.223     65.46446     303.5784        40     2.120     1.600  43.60   3
       137    703.2424    666.6046 307.6138990  +6.4126247     1545.093     4161.592     5833.915     92.35827     185.3835     371.0628      3.029     8.57     1252.867     65.46446     196.4548        31     1.722     1.625   0.37   2
       138    969.4510    663.1403 307.5033634  +6.4228599     4705.551     11821.05     13385.03     93.09774     185.6792     371.3953      2.511     5.77     1249.917     65.46446     434.1124        57     1.945     1.742  25.65   0
       139    908.1453    663.7855 307.5288243  +6.4205679     1129.428     3071.521     3551.114     92.35827     185.6792     371.0628      2.588     7.14     1250.328     65.46446     158.8412        22     1.642     1.307 -73.05   0
       140     47.1655    658.8233 307.8868484  +6.3940324      9234.23     29843.89     39114.29     92.50663     185.4575     371.1367      2.929     7.02     1261.614     65.46446     1157.013        93     2.361     2.057  47.29   0
       141    507.5795    658.0839 307.6955118  +6.4096534     646.4207     1486.131     2230.635     92.80266     185.3835     371.3214      3.049     6.76     1257.133     65.46446      108.918         8     1.223     1.048 -28.46   0
       142    692.7347    650.4959 307.6188068  +6.4189238      1437.34     3936.635     5172.394     93.09774     185.9006     371.4322      3.042     9.63     1251.846     65.46446     152.4777        34     1.974     1.541 -54.94   0
       143    714.9042    649.0441 307.6096406  +6.4202573     1575.074     4941.663     6135.206     93.09774     185.6792      371.543      2.810    10.15     1251.208     65.46446      202.017        41     1.919     1.814 -37.47   0
       144    547.4003    646.0963 307.6793632  +6.4159213     1171.106     3132.512     4119.585     92.50663     185.3095     370.9149      3.195     8.89     1255.657     65.46446     143.9916        20     2.162     1.021  14.19   2
       145    205.8193    646.6718 307.8213184  +6.4043322     563.7854     2208.284     3361.389     92.65476     185.6053     371.3214      3.256     7.29     1260.489     65.46446     155.6276        10     2.434     0.612 -43.84   2
       146    987.7776    644.5844 307.4963663  +6.4311225     2550.109     6325.317      7168.91     92.80266     185.5314     371.3214      2.468     6.35     1248.667     65.46446     240.9298        43     1.763     1.685  33.92   0
       147    953.0589    643.5426 307.5108327  +6.4304055     4088.413     10247.25     11539.88     93.24493     185.6792     371.4322      2.515     5.69     1248.782     65.46446     407.7899        52     1.890     1.656  50.35   0
       148    110.7536    639.7528 307.8610635  +6.4040210     6024.735     11753.86     13444.48     93.09774     185.6053     371.3953      2.089     6.55     1260.443     65.46446     646.4918        29     1.917     0.972  29.46   3
       149    112.7355    636.5309 307.8603485  +6.4054165     9182.316     21500.02     27339.07     93.09774     185.8268     371.4322      2.541     7.02      1260.32     65.46446     992.1127        67     2.559     1.415  31.70   3
       150    399.8911    637.6655 307.7409583  +6.4145029     1119.834     2880.486     4166.956     92.95032     185.9744     371.3953      3.083     9.23     1258.321     65.46446     133.6979        21     1.810     1.314  60.26   2
       151    948.0787    626.4518 307.5134746  +6.4372935     3541.197     9160.731     11228.06     93.09773      185.753     371.3953      2.675     6.47     1247.722     65.46446     330.3776        54     2.015     1.716  45.35   0
       152   1003.2968    621.5925 307.4906843  +6.4411227     49066.07     119429.1     140419.8     92.80266     185.3095     371.0998      2.490     5.39     1246.975     65.46446     4648.116       124     2.098     1.926  39.97   0
       153    540.2852    623.9901 307.6830632  +6.4248073     13306.68     27652.51     32448.21     92.65476     185.3835     371.2106      2.246     6.67     1254.332     65.46446     1469.641        48     2.257     1.083  30.41   3
       154    542.4402    621.1007 307.6822645  +6.4260711     16845.61     39997.34     49182.29     93.09774     185.6053     371.6537      2.540     7.11     1254.091     65.46446     1678.786        68     2.520     1.342  28.02   3
       155    150.4275    618.2879 307.8452979  +6.4141999     817.1224     2550.617     2914.352     93.24493     185.4575     371.2845      2.333     4.93     1259.548     65.46446     114.9841         8     1.598     0.430  34.76   2
       156    437.9603    607.9923 307.7261329  +6.4280120      16824.9     36666.25     42019.08     92.35827     185.4575     371.0628      2.298     6.67     1255.751     65.46446     1819.128        50     2.286     1.112  29.81   3
       157    439.8181    604.8979 307.7254648  +6.4293505     21231.66     51206.14     63808.55     92.95031     185.6053     371.0998      2.550     7.34     1255.459     65.46446     2097.127        76     2.603     1.324  29.01   3
       158   1016.8396    604.6063 307.4856228  +6.4485794     1894.955     4499.258     5501.058     92.20966     185.3835     370.1006      2.547     6.69     1245.516     65.46446     206.3597        31     1.779     1.289  25.76  16
       159    112.4111    603.7407 307.8615895  +6.4189360     539.4719     1113.956      1949.58     92.35827     185.6053     371.0628      2.866     5.41     1259.021     65.46446     109.9072         5     1.423     0.580  37.64   0
       160    114.5425    600.2197 307.8608224  +6.4204599     602.1245     1290.308     2065.394     92.65476     185.6053     371.1737      2.463     3.79     1258.845     65.46446     86.34753         5     1.031     0.400   6.43   0
       161    284.0419    596.8375 307.7904851  +6.4274988     673.9384     1701.769     3191.298     92.80266      185.753     371.2476      2.845     4.33     1255.807     65.46446     101.5424         5     1.446     0.369   0.20   2
       162    286.0962    594.3024 307.7897166  +6.4286132     796.1628     1718.097     3438.118     93.09774     186.4163     371.2106      3.336     4.70      1255.48     65.46446     125.6289         7     1.274     0.491   1.47   2
       163    710.8868    589.2620 307.6133155  +6.4447933     1912.633     5693.926     7557.121     93.09774     185.9744     371.3953      2.951     7.28     1247.595     65.46446     225.9485        48     2.028     1.785 -14.57   0
       164    764.5016    584.5764 307.5911860  +6.4485022     5225.663     16030.67     20042.08     93.24493     185.4575     371.1737      2.847     7.00     1246.873     65.46446     564.6704        75     2.172     2.014  46.72   0
       165    588.5826    581.4063 307.6644179  +6.4439814     1038.415     2785.249     3994.091     92.65476     185.4575     371.2106      3.330     9.09     1248.894     65.46446     135.9098        19     1.818     1.270  39.95   2
       166   1004.0563    583.2399 307.4916512  +6.4569743     1140.963     2574.214     2940.636     93.09774     185.8268     371.4322      2.480     7.32     1243.564     65.46446     134.6335        18     1.468     1.351 -22.42   0
       167    906.3761    577.4641 307.5324491  +6.4561303     569.2551     1234.404     1836.747     92.65476      185.753     371.3214      2.395     4.26     1244.008     65.46446     110.1876         6     1.052     0.492  55.45   0
       168    528.2393    577.0747 307.6896465  +6.4437670     6526.416     6625.681     6507.408     92.95031      185.753     371.4322      0.558     1.05     1250.797     65.46446      3930.77         6     0.484     0.330   1.09   0
       169    841.5322    566.6739 307.5597654  +6.4584387     1193.935     3214.913     4796.443     93.24493     185.9006     371.3584      3.226     6.46     1244.439     65.46446     172.6195        15     1.384     0.954  80.21   2
       170    799.4764    563.8079 307.5773436  +6.4582300     825.4424     2217.934     2874.905     92.65476     185.1615     371.1737      2.232     3.53     1246.569     65.46446     133.3606         5     1.137     0.316 -10.37   2
       171    227.4690    560.4253 307.8152266  +6.4406413     2431.256     8403.428     11457.14     92.65476     185.6053     371.3214      3.105     8.67     1256.654     65.46446     304.7224        65     2.335     1.962  36.92   0
       172    779.7506    556.5182 307.5857877  +6.4605852     57789.23     183654.3     237382.6     93.09774      185.753     371.4322      2.931     7.05     1246.517     65.46446     5683.941       187     2.526     2.306  -3.76   0
       173    160.3005    557.2941 307.8432513  +6.4396968     15156.62      31201.3     35320.45     93.09774     186.3427     371.2106      2.230     6.96     1256.957     65.46446     1610.193        48     2.208     1.104  35.47   3
       174    162.6790    554.2460 307.8423654  +6.4410338     21344.16     48966.84     62118.96     93.09774      185.753     371.3584      2.581     7.26     1256.815     65.46446      2222.69        81     2.647     1.384  33.13   3
       175     85.8571    551.5519 307.8743876  +6.4395858     1962.118     6415.931     8881.701     93.09774      185.753      371.543      3.098     8.84     1256.427     65.46446     247.8523        59     2.195     2.022  50.18   0
       176    333.1978    544.2097 307.7718251  +6.4508498      4161.79      8476.84        10700     92.35827     185.3835     371.1367      2.268     7.15     1251.423     65.46446     470.9758        34     2.022     1.033  40.37   3
       177    335.7793    541.0462 307.7708586  +6.4522410     5738.377     14088.11     18608.66     92.65476      185.753     371.2106      2.710     7.84     1251.187     65.46446     622.4824        60     2.571     1.530  34.78   3
       178    816.2467    545.5270 307.5709849  +6.4663285     1645.198     2886.173     3192.077     92.95032     185.8268     371.3953      1.977     8.97      1245.22     65.46446     171.8365        22     1.824     1.232 -60.42   3
       179    816.9641    542.1923 307.5707984  +6.4677283     1427.498     3192.004     3523.838     92.35827     185.5314     371.0998      2.440     8.66     1244.847     65.46446     193.9601        24     2.393     1.164  10.06   3
       180    499.6207    538.3749 307.7028432  +6.4587865     1722.846     3647.111     4476.615     92.65476     185.5314     371.2845      2.315     8.92     1248.379     65.46446      204.436        30     2.271     0.979  37.03   3
       181    502.0737    535.7257 307.7019126  +6.4599611     2007.635     4689.813     5771.614     93.39188     186.0481      371.506      2.474     8.08     1248.141     65.46446     232.9215        35     2.175     1.168  37.48   3
       182    138.9427    541.2517 307.8526698  +6.4456050      623.717     1661.087      3092.67     93.09774      185.753     371.3953      2.871     4.88     1256.096     65.46446     102.4996         5     1.282     0.527  64.85   2
       183    769.3176    538.6430 307.5907239  +6.4676161     1917.302     4206.666     5028.761     93.09774      185.753     371.3584      2.163     6.64     1245.821     65.46446     229.3258        15     1.693     0.730  30.99   3
       184    770.8519    535.7409 307.5901834  +6.4688644     2059.363     4668.128     6295.121     93.09774      185.753     371.3953      2.621     8.34     1245.532     65.46446       235.54        37     2.215     1.295  28.66   2
       185    149.6527    529.6958 307.8486079  +6.4507301     2358.959     5989.194      8361.11     92.95032      185.753     371.6906      2.873     9.61     1255.007     65.46446     255.8651        49     2.601     1.581  35.04   3
       186    147.1718    532.4256 307.8495470  +6.4495211     1609.474     3041.725     5177.007     92.50664     185.5314     371.2476      2.261     6.66     1255.237     65.46446      192.469        16     1.515     0.869  20.20   3
       187    544.9517    531.4158 307.6842336  +6.4631625     884.3481      2158.75     3081.906     92.50663      185.753     371.1367      2.920     9.37     1246.386     65.46446     137.2539        14     2.089     1.173  83.26   2
       188    548.4932    529.4585 307.6828272  +6.4640877     639.2294     1457.362     2259.078     92.95032      185.753     371.5799      2.030     3.56     1246.173     65.46446      107.705         5     1.154     0.317  69.69   2
       189    242.2793    528.9860 307.8101300  +6.4541072     21633.42     47005.04     54298.72     92.65476     185.4575     371.1367      2.316     7.30     1252.976     65.46446     2338.528        56     2.369     1.121  31.48   3
       190    244.6325    525.6571 307.8092641  +6.4555591     28694.65     70106.41     88352.01     92.95032     185.8268     371.3584      2.637     7.74     1252.468     65.46446     3024.638        89     2.694     1.419  31.12   3
       191     21.0056    528.0556 307.9021366  +6.4471186     1898.147     4515.413     6772.146     92.50664     185.5314     371.0628      2.694     8.34     1253.991     65.46446     219.8558        34     2.387     1.048  40.66   2
       192     18.4130    530.9760 307.9031156  +6.4458271     1491.187     2970.939     5063.438     92.80266     185.5314     371.3214      2.801     6.68     1253.894     65.46446     176.0631        16     1.779     0.704  42.55   3
       193    765.2296    520.4090 307.5930346  +6.4750050     5159.987     9865.265     11691.03     92.50664     185.5314     371.1737      2.071     6.81     1244.077     65.46446     580.2198        34     2.052     1.015  28.01   3
       194    767.3215    517.7129 307.5922553  +6.4761868     5257.367     12341.43     15765.28     92.95032     186.1218      371.543      2.554     7.32     1243.872     65.46446     564.4777        48     2.428     1.239  25.02   3
       195    469.1307    519.3815 307.7161560  +6.4656117     11899.42     25225.02     30810.93     92.65476     185.6053     371.3214      2.371     6.99     1247.556     65.46446     1178.745        57     2.397     1.211  29.42   3
       196    471.2817    516.2040 307.7153687  +6.4669943     13669.78     31927.96      40778.9     92.50664     185.3095     371.0628      2.601     7.51     1247.227     65.46446     1382.534        69     2.720     1.294  28.81   3
       197    942.3150    520.4763 307.5194168  +6.4808344     804.0092     1738.022     1546.479     93.24493     186.1218     371.4691      2.106     5.40     1238.871     65.46446     105.1069         7     0.946     0.869 -88.76   0
       198    630.8763    511.0274 307.6492001  +6.4744254     1055.395     2735.891     4739.713     92.95032      185.753     371.3584      3.766     7.93     1243.802     65.46446     138.1821        15     1.779     0.989  37.33   2
       199    300.2771    506.6016 307.7867759  +6.4652735     1358.864     3939.182     5551.646     92.35827     185.0874     371.1737      3.055     9.82     1248.678     65.46446      162.243        36     1.962     1.689  89.70   0
       200    114.7617    505.3352 307.8639327  +6.4596196     7956.694     27946.23     38427.98     93.09774     185.6792     371.4691      3.115     7.51     1254.082     65.46446     1038.794       102     2.476     2.211  48.17   0
       201    370.3423    507.8755 307.7576080  +6.4670776     450.6788     676.3779      1184.36     93.24493      185.753     371.3584      2.099     5.38     1248.301     65.46446     83.16052         6     1.243     0.658  50.18   0
       202    481.1431    505.1763 307.7116402  +6.4718723     767.2312     2149.733     3352.802     92.65476      185.753     371.1737      3.298     8.13     1245.982     65.46446     95.91968        14     1.482     1.247 -37.93   0
       203     80.9336    503.1687 307.8780671  +6.4593860     892.9177      2598.87      3179.65     92.80266      185.753     371.3214      2.795     8.81     1254.625     65.46446     139.8967        15     1.993     1.207  60.42   0
       204    939.8632    499.1103 307.5211511  +6.4895701     2322.733     6268.549     7172.511     93.09773     185.9006     371.4691      2.574     6.85     1237.321     65.46446     241.5928        44     1.776     1.715  27.86   0
       205    410.2656    488.1385 307.7416765  +6.4765486     11201.44      25441.7     29626.48     93.09774     185.6792     371.3953      2.359     6.62     1245.794     65.46446     1115.242        44     2.165     1.127  36.87   3
       206    412.5950    485.0600 307.7408118  +6.4778964     13523.65     33501.67        43804     92.50663     185.6053     371.1367      2.715     7.79     1245.432     65.46446     1394.821        73     2.712     1.400  34.37   3
       207    617.6789    487.0215 307.6554922  +6.4838939     2633.255     5018.869     6409.042     92.65476     185.3835     371.3953      2.043     7.31     1242.293     65.46446     373.4086        18     2.239     0.695  55.01   3
       208    620.4115    484.6027 307.6544375  +6.4849826     4070.711     10800.62      14235.7     92.65476     185.3835     371.2106      2.810     8.46     1242.167     65.46446      398.589        63     2.459     1.893  25.21   3
       209    175.6064    486.1136 307.8392896  +6.4695781     5037.427     10990.56     13354.27     92.50664     185.3835     371.0998      2.301     6.98     1249.723     65.46446     562.7952        38     2.144     1.061  30.58   3
       210    177.7923    482.8165 307.8384921  +6.4710114     6659.487      16367.9     22131.02     92.65476     185.4575     371.2106      2.738     7.69     1249.326     65.46446     736.7271        61     2.730     1.296  31.77   3
       211    915.3182    479.1539 307.5320229  +6.4969939     1941.788     5478.644     6680.588     93.09774      185.753     371.3953      2.698     7.36      1236.92     65.46446      219.228        44     1.957     1.614  82.16   0
       212    543.3447    481.8459 307.6865672  +6.4835640     863.6797     2003.588     3033.433     93.09774      185.753     371.4322      3.327     5.66     1242.693     65.46446     138.9734         6     1.146     0.788   2.52   0
       213    587.6378    479.9621 307.6682176  +6.4858107     1862.404     4466.816     5544.166     92.80266     185.6053     371.2476      2.572     8.23     1242.054     65.46446     202.3574        28     1.974     1.123  25.85   3
       214    589.1199    476.7137 307.6677106  +6.4872003     1913.755     4646.249     6025.889     92.80266     186.1218      371.543      2.569     9.19     1241.807     65.46446     198.0366        37     2.455     1.125  28.10   3
       215    937.4830    471.6240 307.5230606  +6.5008338     1532.358     4269.616     5143.461     92.95032     185.4575     371.3214      2.664     8.33     1235.597     65.46446     156.7686        37     1.824     1.672  62.82   0
       216    499.7833    471.9711 307.7050078  +6.4861930     1817.521     3867.611     5282.812     92.65476     185.4575     371.3214      2.324     8.33     1242.685     65.46446     203.2068        25     2.069     0.936  29.63   3
       217    501.4029    468.2562 307.7044594  +6.4877797     2341.052     5963.904     8258.149     92.35827     185.5314     371.0258      2.769     7.93     1242.337     65.46446     256.4742        39     2.248     1.255  28.42   3
       218    856.3983    464.8680 307.5569957  +6.5009409     1100.812     3202.397     4618.691     92.50664     185.2355     371.1737      3.143    10.28     1237.931     65.46446      116.683        27     1.753     1.679  73.16   0
       219    864.3944    458.1711 307.5538959  +6.5039688     806.6808     2147.584     2737.778     92.50664     185.5314     371.1737      2.876     7.95     1237.261     65.46446     102.8459        10     1.462     1.208 -42.08   0
       220    686.2350    456.2537 307.6280253  +6.4988624      896.215     2507.838     4161.316     92.95032      185.753     371.4322      3.293     7.61     1239.636     65.46446     138.5145        12     1.788     0.906  27.22   2
       221    360.1721    454.1971 307.7636426  +6.4888894     1084.997      3826.35     5306.066     92.50663     185.4575     371.1737      3.370    11.74     1243.605     65.46446     200.3129        30     2.208     1.797 -23.18   2
       222    586.0223    452.2961 307.6698184  +6.4971734     2761.531     5925.112     8197.916     93.09773     185.5314     371.1737      2.337     6.76     1239.874     65.46446     287.1997        31     2.082     1.019  39.48   3
       223    587.6108    449.0886 307.6692658  +6.4985496     3086.452     7871.256     10482.84     92.65476     185.4575     371.1737      2.707     8.40     1239.613     65.46446     326.8647        49     2.577     1.346  25.81   3
       224     51.1498    454.0245 307.8921066  +6.4786713     777.9451     2105.442     2639.406     92.65476      185.753     371.2845      2.519     7.41     1252.462     65.46446     132.8059        13     2.218     0.694  -4.15   0
       225    748.4882    448.4766 307.6024061  +6.5041336     5130.827     10046.83     11189.09     93.09774     186.1218     371.4691      2.084     5.97     1238.327     65.46446     560.5798        30     1.911     0.999  36.64   3
       226    750.2624    445.6724 307.6017625  +6.5053495     5449.108     13665.06     18925.28     93.24493      185.753     371.4691      2.813     6.95     1238.148     65.46446     518.9806        61     2.511     1.564  27.66   3
       227    270.2101    445.8504 307.8013210  +6.4893414     934.8196     2331.182     3161.155     92.50663     185.6053     371.0258      2.646     7.30      1244.35     65.46446     116.5369        15     1.811     0.825  35.23   0
       228    935.0366    441.1151 307.5250988  +6.5133425     818.3842     2270.456     2396.909     93.09774      185.753     371.3584      2.551     8.38      1234.01     65.46446     100.9047        13     1.753     1.119 -31.10   0
       229     85.3832    441.2339 307.8783081  +6.4850905     1034.549     2386.721     3861.014     92.65476     185.5314     371.2106      3.174     8.40     1250.868     65.46446     135.3799        13     1.895     1.042  62.34   3
       230     89.2325    438.6017 307.8767968  +6.4863049     1592.259     3465.466     5510.008     92.20966     185.5314     371.0998      3.219     9.93     1250.619     65.46446     228.1575        25     2.204     1.247  58.94   2
       231    723.9734    439.3475 307.6129037  +6.5070888     775.4249     1863.019     2463.296     92.65476     185.9006     371.2845      2.321     6.75     1237.838     65.46446     96.54089        11     1.964     0.652  29.16   0
       232    988.7599    436.4820 307.5029190  +6.5170294     2112.503     5699.457     6945.286     93.09774     185.8268     371.3214      2.663     6.72     1231.025     65.46446     218.8534        43     1.813     1.627  48.15   0
       233    726.0448    436.8560 307.6121262  +6.5081855     885.4218       1700.4     2138.408     93.09774      185.753     371.3953      2.189     5.25     1237.653     65.46446     106.2947         9     1.214     0.640  16.42   1
       234    326.1214    433.9579 307.7784791  +6.4961086     815.2349       1809.2     3362.984     92.95032      185.753     371.3953      3.246     6.97     1242.269     65.46446     111.7085        10     1.885     0.723  60.59   2
       235    322.5293    436.3450 307.7798920  +6.4950042     861.1165     2107.931     3024.013     92.95032     185.6792     371.3584      2.763     7.45     1242.501     65.46446     139.4501        12     1.953     0.797  41.11   2
       236    686.9714    420.4840 307.6289195  +6.5136470     4255.895     8192.508     10202.87     93.09774     185.4575     371.2476      2.164     5.85     1236.557     65.46446     471.6188        31     2.024     0.950  33.20   3
       237    689.2003    417.3104 307.6280993  +6.5150305     4757.743     11944.44     15331.93     92.20966     185.1615     370.9889      2.638     7.94     1236.286     65.46446      471.998        49     2.423     1.272  27.90   3
       238    790.2766    419.5755 307.5860024  +6.5174431     778.8463     1828.502     2202.008     92.65476     185.6792     371.3584      2.422     7.87     1236.084     65.46446     111.4552        12     1.819     0.953 -23.27   0
       239    610.8718    415.2338 307.6607326  +6.5132910     607.7187     2092.464     3246.767     92.95031      185.753     371.3953      2.805     6.07     1236.609     65.46446     108.5907         7     1.909     0.542 -54.87   0
       240    580.5588    411.4000 307.6734635  +6.5138677     4309.313     9688.591     12603.48     92.20966     185.3095     370.9889      2.536     7.63      1236.67     65.46446     475.0225        33     2.455     1.015  25.41   3
       241    582.3589    408.4530 307.6728141  +6.5151435     5158.052     13549.64     20593.46     92.95032     185.8268     371.4322      3.139     9.32     1236.394     65.46446     513.3644        82     3.223     1.701  36.01   3
       242    913.0928    407.2379 307.5353558  +6.5265967     1434.204     3882.806     5452.735     93.24493     185.6792     371.4691      3.067     9.50     1232.399     65.46446     178.0076        25     2.167     1.163   2.30   2
       243    351.4044    406.8011 307.7688831  +6.5081553     7164.258     14903.21     16982.89     92.35827     185.2355     371.0998      2.193     6.60     1239.301     65.46446     794.1635        36     2.203     1.015  31.76   3
       244    353.6720    403.4894 307.7680519  +6.5095972     9080.858      23912.6     31587.86     93.09774     186.0481     371.3953      2.800     7.96     1238.865     65.46446     962.6562        74     2.687     1.526  31.76   3
       245    100.1620    402.4345 307.8734743  +6.5015929     761.5386     2168.347     3618.654     92.80266     185.5314     371.1367      3.375     8.22     1247.881     65.46446     142.4926         9     1.616     1.169  58.62   2
       246    881.4870    400.4785 307.5487222  +6.5283410     1590.072     3066.135     4356.768     92.95032     186.1218      371.543      2.161     6.04     1232.172     65.46446     198.8407        17     1.769     0.754  16.85   3
       247    882.3448    397.7420 307.5484572  +6.5294986     1783.647     4003.852     5314.376     93.24493     185.8268     371.4322      2.560     8.26     1231.982     65.46446     207.0548        30     2.105     1.121  27.98   3
       248    209.1993    397.6490 307.8283082  +6.5072001     3473.216     7880.162     9528.302     92.35827     185.3095      370.878      2.376     7.64     1243.246     65.46446     370.7191        37     2.266     1.058  30.07   3
       249    211.4683    394.2287 307.8274803  +6.5086870     4405.003      10358.1     13737.24     92.80266      185.753     371.3214      2.668     8.26     1242.963     65.46446      445.167        51     2.535     1.284  35.16   3
       250   1014.7616    385.2916 307.4938213  +6.5390121     4328.593     11184.23     13574.94     93.24493     185.6792     371.4322      2.602     6.00     1225.458     65.46446     425.0925        55     1.928     1.732  24.02  16
       251    109.9547    386.0000 307.8699581  +6.5087007     1358.016     2932.694     3982.752     92.20966     185.4575      370.841      2.411     6.12     1246.824     65.46446     176.1327        15     1.479     0.788  23.54   3
       252    111.9868    383.2101 307.8692075  +6.5099196     1755.062     4115.822      6562.91     92.80266     185.4575     371.3214      3.044     9.58     1246.624     65.46446     181.2485        37     2.386     1.364  32.42   2
       253    131.2207    381.5524 307.8612677  +6.5112446     823.5687      1724.45     3579.467     92.65476      185.753     371.1737      2.910     5.42     1245.839     65.46446     96.89343         9     1.309     0.632  56.25   0
       254    131.7212    377.5695 307.8611941  +6.5129048     759.5659     2141.947     3472.532     92.95032     185.8268     371.3584      3.273     5.50     1245.643     65.46446     109.2317         7     1.461     0.583  32.51   0
       255      6.7519    368.6842 307.9134449  +6.5124040     1262.467     3676.333      5407.75     93.09774      185.753     360.2235      3.098     9.91      1252.43     65.46446     157.9193        32     2.258     1.376  66.40  18
       256    408.7160    370.2283 307.7462883  +6.5251516     2006.167     4480.503     6107.519     93.09774     185.4575     371.2476      2.377     6.89     1234.998     65.46446     204.4354        26     1.892     0.961  33.65   3
       257    410.8635    367.0890 307.7455011  +6.5265184     2144.565     5634.978     8040.756     92.95032     185.9006     371.4322      2.918    10.10     1234.693     65.46446      256.696        41     2.492     1.272  27.62   3
       258    749.9874    365.1221 307.6045783  +6.5385794     4183.638     13895.07     19715.44     92.65476     185.3095     371.1737      3.161     7.86     1230.615     65.46446     478.6191        85     2.497     2.095   7.47   0
       259    993.8427    360.1721 307.5033589  +6.5486868     1628.759     4386.445     5414.649     92.65476      185.753     371.2476      2.709     8.55      1224.33     65.46446     189.5454        33     1.869     1.427  18.99   0
       260    458.7506    350.1623 307.7261620  +6.5350939     1087.714     2942.363     4511.465     92.80266     185.6792     371.2476      3.162     9.45      1232.51     65.46446     145.2397        23     1.957     1.272  20.87   2
       261    815.5815    347.9496 307.5778828  +6.5478369     12118.14     38251.88     50140.69     92.50663     185.8268     371.0998      2.955     7.00     1228.724     65.46446     1137.598       105     2.333     2.194  59.32   0
       262    586.5977    342.4171 307.6732702  +6.5425334     895.3026     1767.757     2943.878     92.65476     185.2355     371.1367      3.075     4.86     1230.096     65.46446     137.8398         8     1.133     0.782  48.31   3
       263    587.4335    339.3004 307.6730275  +6.5438472      929.332     2576.661     3288.992     93.09774     185.6053     371.5799      2.837     7.84     1229.691     65.46446     112.2349        14     1.880     0.914  20.54   2
       264    670.7715    335.8030 307.6384966  +6.5480535     23138.15     49751.17     57989.21     92.50663     185.4575     371.1737      2.308     6.92      1228.63     65.46446     2522.437        60     2.328     1.187  36.97   3
       265    672.7167    332.7054 307.6377918  +6.5493962     24260.73     59380.84      75146.9     92.95032     186.1955      371.543      2.635     7.60     1228.288     65.46446     2270.454        76     2.597     1.365  31.32   3
       266     72.0520    332.4753 307.8875217  +6.5295229     1916.104     4413.344     6196.058     93.09774     185.8268     371.3953      2.730     8.49     1247.849     65.46446     228.4674        30     2.020     1.237  16.24   3
       267     73.5160    328.9942 307.8870307  +6.5310081     1944.582     4637.598      6443.55     92.50664     185.3835     371.1367      2.731     9.37       1247.7     65.46446     237.6167        34     2.365     1.285  32.13   3
       268    535.6210    329.7158 307.6948908  +6.5460831     739.6685      2132.68     3295.186     92.80266     185.3835     371.2845      2.565     7.70     1228.896     65.46446     119.1578        11     2.082     0.797 -14.38   0
       269    517.6370    329.0664 307.7023895  +6.5457542      1946.26     5105.747      6643.23     92.95031     185.6792     371.4691      2.757    10.49     1229.182     65.46446     205.9916        38     2.368     1.296   0.07   3
       270    518.5569    325.6114 307.7021232  +6.5472104     2064.606     4780.202     6098.229     92.50664     185.5314     371.0628      2.517     7.59     1228.811     65.46446     242.8657        25     1.977     1.118  11.93   3
       271    379.8216    324.4094 307.7598430  +6.5430979     7092.104     16007.54     18829.52     92.65476     185.4575     371.1737      2.347     6.91     1232.768     65.46446     720.7117        43     2.223     1.157  31.00   3
       272    382.0810    321.1584 307.7590131  +6.5445145     7763.602     19379.86     25905.82     93.09774      185.753     371.3214      2.697     8.54     1232.604     65.46446     786.9342        62     2.703     1.353  28.97   3
       273    248.4469    324.1957 307.8144683  +6.5388160     935.5723     2546.116     3803.194     92.35827     185.4575     371.0258      3.199     7.38     1238.032     65.46446     119.0439        11     1.821     0.837  45.42   2
       274    468.8606    315.0987 307.7231382  +6.5498983     2282.825      4972.27     7309.592     92.80266     185.6792      371.543      2.529     8.62     1229.117     65.46446     216.8281        28     2.101     1.041  31.59   3
       275    470.6961    311.5693 307.7224938  +6.5514156     2777.381      7108.36     9522.891     93.24493     185.4575     371.4691      2.795     7.29     1228.747     65.46446     271.1306        46     2.239     1.374  31.49   3
       276    736.4858    312.9129 307.6119430  +6.5596762     786.0398     1681.826     2619.715     92.80266     185.9744     371.4691      2.158     3.47     1227.083     65.46446      119.572         5     0.780     0.445  68.73   3
       277    741.3134    309.8341 307.6100391  +6.5611065     911.5114       1660.1     3364.405     93.09774     185.6053     371.3953      3.508     4.80     1226.922     65.46446      130.416         8     1.031     0.632  64.33   3
       278    737.4011    307.7998 307.6117339  +6.5618164     679.0362     1517.763     2962.834     92.35827     185.2355     371.0258      4.953     8.18     1226.809     65.46446     106.8112        14     2.187     0.855  66.17   3
       279    358.3794    298.6993 307.7696232  +6.5529940     2173.906     4742.697      6010.83     93.09774     185.5314     371.1367      2.445     7.01     1232.578     65.46446     260.4127        27     2.017     0.939  44.30   3
       280    361.0948    295.9121 307.7685882  +6.5542343     2193.304     5705.175     7611.512     93.09774     186.1955     371.4691      2.737     8.96     1232.384     65.46446     250.4243        44     2.476     1.353  45.09   3
       281    726.1799    294.1903 307.6168560  +6.5670607     16545.54     35648.16     43403.66     92.65476     185.3835     371.2106      2.367     7.53     1225.668     65.46446     1791.878        62     2.299     1.424  29.49   3
       282    728.1807    291.3365 307.6161199  +6.5683045     17104.86     43616.73     54191.09     92.65476      185.753     371.2106      2.597     7.25     1225.533     65.46446     1603.522        60     2.598     1.234  23.89   3
       283    903.1223    289.5412 307.5434426  +6.5748347     715.6346     2243.844     2671.451     93.24493      185.753     371.3214      2.750     7.64     1223.435     65.46446     119.6443         9     1.561     1.046 -78.75   0
       284    725.1602    279.0835 307.6177868  +6.5732606     1989.431     4191.219     5433.773     93.09774     185.6792     371.3584      2.322     7.65     1224.676     65.46446     194.3021        28     1.952     1.103  29.97   3
       285    726.9343    276.2386 307.6171446  +6.5744933     1672.236     4242.289     5726.524     92.95031     185.6792      371.506      2.689    10.07      1224.55     65.46446     214.7177        32     2.273     1.299  33.78   3
       286    165.1806    279.5930 307.8505898  +6.5544476     596.3467     1549.933     2850.534     92.65476     185.3835     371.1737      2.890     3.61      1241.02     65.46446     89.93347         5     0.999     0.376  85.06   0
       287    741.7704    273.5154 307.6110674  +6.5761085     696.9145     2217.121     3086.735     93.09774     185.5314     371.2476      3.196     4.99     1224.729     65.46446        112.8         5     1.276     0.553  45.15   0
       288    333.1018    269.6043 307.7811125  +6.5641590     741.6995     1825.928     3067.996     92.80266     185.3835     371.0258      3.267     5.73     1232.436     65.46446     92.02185         9     1.034     0.894 -35.56   0
       289    979.4836    266.7586 307.5124550  +6.5867597     2368.264     4568.524     6148.892     93.09774     185.6792     371.3214      2.420     8.19     1220.136     65.46446     258.6677        27     2.068     1.223  21.98   3
       290    980.0027    264.0000 307.5123315  +6.5879152     1891.659     3821.716     4884.432     92.20966     185.1615     371.0998      2.233     7.22     1219.881     65.46446     252.9642        18     1.929     0.756   9.80   3
       291    220.1016    264.0436 307.8282807  +6.5626930     1547.945     3624.552     4632.256     93.09774     185.6792     371.6537      2.346     9.05      1238.24     65.46446      166.842        28     2.082     1.097  34.99   3
       292    222.4290    260.8737 307.8274200  +6.5640785     1720.262     4433.811     5989.351     92.95032      185.753     371.3584      2.651     9.39     1238.136     65.46446      207.162        34     2.320     1.061  39.38   3
       293    942.1793    251.8222 307.5284661  +6.5916905     541.4131     1360.851     1594.083     92.80266     185.5314     371.3214      2.035     3.68     1219.594     65.46446     83.42493         5     1.173     0.332   9.68   0
       294    126.8497    249.0319 307.8675571  +6.5657807     691.9095     1675.794     2644.486     92.80266      185.753     371.3214      2.871     4.99     1244.322     65.46446      100.577         6     1.037     0.679 -82.06   0
       295    698.1169    243.7386 307.6302171  +6.5869496     1523.392     3084.936     4202.856     93.24493      185.753     371.3953      2.223     7.48     1221.843     65.46446     172.8348        20     1.764     0.887  17.92   3
       296    698.6788    240.3078 307.6300986  +6.5883839     1530.519     4320.869     5745.129     92.80266     186.0481     371.4691      2.735     8.91      1221.64     65.46446     172.0249        32     2.196     1.135  20.44   3
       297    536.4097    242.9903 307.6974781  +6.5818957     658.2628       1684.6      2717.75     92.65476     185.5314     371.3214      3.227     5.29     1219.914     65.46446     104.4132         7     1.365     0.580  55.68   0
       298    640.9590    241.5625 307.6540559  +6.5859531     567.4833     1579.004     1639.114     92.80266      185.753     371.2476      2.480     5.84     1220.635     65.46446     86.50745         6     1.778     0.540 -81.63   0
       299    878.1383    241.4334 307.5554422  +6.5938602     861.9982     1939.498     2390.999     92.80266     185.8268     371.3214      2.408     6.27     1220.776     65.46446      112.762        10     1.469     0.753  25.25   0
       300    200.2341    227.2012 307.8377834  +6.5772337     815.7777     1966.368     3411.898     92.06081     185.5314     371.1367      2.725     7.09     1239.398     65.46446     117.7986         9     2.066     0.682  40.75   2
       301    840.5619    225.9223 307.5715864  +6.5990178     672.8068     1767.734     1933.364     92.95031     185.8268     371.3953      2.288     5.03     1220.784     65.46446     126.6881         6     1.276     0.561 -25.16   0
       302    430.8830    218.6922 307.7421717  +6.5884177     6279.341     14458.19     17243.78     92.80266     186.1218      371.543      2.380     6.69     1223.861     65.46446     676.6353        40     2.226     1.055  34.01   3
       303    432.9374    215.4993 307.7414250  +6.5898035      6545.11     17676.81     25332.74     92.80266     185.8268     371.4691      2.955     8.47     1223.364     65.46446      623.516        71     2.740     1.558  30.93   3
       304    756.2961    217.1583 307.6069183  +6.5998450     4087.725     8678.325     10828.65     93.09774     185.6792     371.5799      2.374     7.14     1221.076     65.46446     478.3766        32     2.149     0.995  36.30   3
       305    758.2829    214.4162 307.6061841  +6.6010423     4308.376     10973.61     14852.56     92.65476     185.3835     371.2845      2.795     7.59     1220.905     65.46446     426.7783        49     2.431     1.272  31.90   3
       306    122.2966    209.3191 307.8707906  +6.5820155     823.7621     1734.157      3157.03     92.80266     186.1218     371.4691      2.750     5.41     1245.356     65.46446     117.7167         8     1.426     0.579  26.69   0
       307    554.7852    204.4244 307.6911341  +6.5984194      1373.65     2808.772     3760.105     92.80266     185.5314     371.3214      2.546     7.43     1217.499     65.46446      161.877        20     1.648     0.938  37.03   3
       308    556.9096    201.5296 307.6903481  +6.5996844     1500.492     4128.454     5813.136     92.95031     186.0481     371.3953      3.003     8.96     1217.424     65.46446     188.6772        28     2.067     1.189  37.73   2
       309    862.8600    198.8395 307.5632222  +6.6109311     4147.645      13235.3     16481.37     93.09773      185.753     371.4691      2.835     7.29     1218.182     65.46446      438.821        71     2.154     1.986  47.77   0
       310    915.9197    200.7108 307.5410965  +6.6119136     1287.186     2531.666      4186.72     92.80266     185.9744      371.506      2.733     5.14     1216.766     65.46446     151.8527        13     1.191     0.801  22.16   3
       311    915.9628    197.7740 307.5411770  +6.6131268     1171.911     2654.699     3934.141     92.65476     185.5314     371.1737      2.759     7.54     1216.586     65.46446     133.6781        16     1.639     0.971  19.40   2
       312    949.4172    196.5357 307.5273075  +6.6147436     4026.942     11565.42     13826.23     92.50664     185.6792     371.2106      2.680     6.74     1215.911     65.46446     403.6161        60     2.046     1.799  51.40   0
       313    662.0076    196.0610 307.6468319  +6.6054267     920.4022     2935.763     4815.646     92.35827     185.5314     371.1367      3.649    10.57     1218.361     65.46446     121.0723        25     2.427     1.282  40.51   2
       314    468.9984    190.0181 307.7272885  +6.6015159     622.7803     1561.106     2294.967     92.65476     185.2355     371.0628      3.126     4.90     1218.609     65.46446     89.68176         7     1.262     0.540 -26.28   0
       315    800.0817    187.1995 307.5897166  +6.6136570     762.5096     1953.023     3157.762     92.20966     185.1615     371.0258      2.949     6.08      1219.37     65.46446     128.1719         8     1.301     1.084 -72.35   2
       316    711.8586    186.3318 307.6264300  +6.6110934     12626.04     25490.26     29197.48     93.24493     185.6792     371.3953      2.185     6.51     1218.766     65.46446     1414.321        46     2.210     1.124  29.55   3
       317    714.1083    183.6633 307.6255841  +6.6122691     12150.04     29495.11     36920.09     93.09774     185.9744     371.4691      2.607     8.38     1218.693     65.46446      1161.37        64     2.657     1.279  27.17   3
       318    483.4756    189.2723 307.7212940  +6.6023045     673.4004     1253.486     1688.124     93.39188     186.0481     371.3953      2.031     5.03     1217.542     65.46446     101.8237         6     1.026     0.697 -28.93   1
       319    316.2960    184.5693 307.7909645  +6.5986882     2317.669     7613.061     12376.34     93.24493     185.4575     371.4691      3.512     8.74     1233.128     65.46446     244.4222        78     2.428     2.220 -60.69   0
       320    852.4042    186.4662 307.5679846  +6.6156910     770.2956     2315.526     2696.442     92.35827     185.4575     371.1367      2.804     3.97     1217.522     65.46446     134.6741         6     0.921     0.491 -88.98   2
       321    946.2375    183.3940 307.5290697  +6.6200614     1192.227     3138.103     3654.516     92.06082     185.4575     371.0998      2.501     8.44     1215.229     65.46446     157.5568        22     1.762     1.458   6.07   0
       322    481.3982    185.9470 307.7222696  +6.6036076     650.1152     1469.476     1832.186     92.35827     185.4575     370.9149      2.428     3.88     1217.503     65.46446     99.28625         5     0.886     0.488 -86.97   1
       323    880.2024    183.4215 307.5565276  +6.6178669     2485.031     5100.625     6668.944     92.65476     185.3835     371.0998      2.225     6.66     1216.489     65.46446     327.0304        25     2.028     0.977   2.77   3
       324    880.2337    180.5658 307.5566103  +6.6190463     2647.465     5879.608     8095.257     92.65476     185.4575     371.0998      2.580     8.14     1216.339     65.46446     286.9078        32     2.136     1.162  10.36   3
       325    426.0722    180.7001 307.7454506  +6.6039347     1607.695     4629.217     7378.636     92.80266     185.9744     371.4322      3.260    11.48     1221.586     65.46446     183.9832        38     2.246     1.635  50.69   2
       326    985.1330    181.5482 307.5129579  +6.6221084      895.694      2119.42     2315.927     92.95032     185.6792     371.3584      2.394     6.47     1214.794     65.46446     124.9751        10     1.223     0.961  41.84   0
       327     81.7110    175.7117 307.8887997  +6.5945296     1226.166     2605.527     3744.333     92.80266     186.3427      371.506      2.353     7.99     1248.276     65.46446     164.5088        18     2.126     0.839  33.42   3
       328     84.1179    172.3120 307.8879137  +6.5960127     1597.927     3668.725      5079.43     92.80266     185.9744      371.506      2.576    10.49     1248.157     65.46446     179.2483        34     2.547     1.203  30.51   2
       329    251.3153    171.5488 307.8184217  +6.6018984     9356.896      20832.6     24352.99     93.09774     185.6792      371.506      2.395     7.07     1239.163     65.46446     951.8698        52     2.357     1.156  32.73   3
       330    253.6798    168.3741 307.8175456  +6.6032871     10127.83     25844.65     34252.92     92.95032     185.5314     371.3953      2.751     8.90     1239.237     65.46446     972.5808        66     2.761     1.328  33.97   3
       331    227.4114    172.5612 307.8283265  +6.6006848     1928.742      5572.44     7851.041     92.50664     185.5314     371.0628      3.069    13.23     1240.448     65.46446      202.213        51     2.385     2.043  28.94   2
       332    229.0467    168.3643 307.8277881  +6.6024710      1296.82     2434.236     3590.862     92.65476      185.753     371.3214      2.130     6.17     1240.591     65.46446      219.338        14     2.182     0.490  26.42   3
       333    375.2593    166.9794 307.7670405  +6.6079074     14110.01     31541.92      37729.5     92.65476     185.6053     371.2106      2.389     7.49      1226.02     65.46446     1458.307        55     2.420     1.221  33.74   3
       334    377.8610    163.6685 307.7660701  +6.6093601     14325.42     34258.83     44613.25     93.24493     185.6792     371.3953      2.647     9.49     1225.525     65.46446     1358.181        70     2.781     1.342  32.72   3
       335    132.3037    166.2032 307.8680853  +6.6001398     1190.401     4390.396     5747.444     92.80266     185.3835     371.0258      3.027    12.05     1245.358     65.46446     179.0769        42     2.227     1.815 -56.13   0
       336    279.4861    164.7203 307.8069387  +6.6056537     5176.693     11402.78     13493.07     92.80266     186.1218      371.506      2.314     6.55      1238.09     65.46446     508.0414        37     2.103     1.100  32.49   3
       337    281.8464    161.6833 307.8060597  +6.6069855     5336.366     13748.52     20726.79     93.09774      185.753     371.3953      3.076     8.77     1238.142     65.46446     532.5674        69     2.946     1.439  31.15   3
       338     31.3407    160.6822 307.9102501  +6.5990509     2394.838     4902.168     6766.938     93.24493     185.8268     371.4322      2.327     6.18     1251.291     65.46446     274.2065        23     1.938     0.835  45.24   3
       339     34.1282    158.0102 307.9091815  +6.6002464     3013.834      7557.34     10428.87     92.50664     185.3095     371.2106      2.837    10.23     1251.004     65.46446     317.5991        50     2.461     1.505  45.95   3
       340    715.4479    160.6605 307.6257991  +6.6218054     10705.66     36696.99      49481.7     93.09774     185.6792     371.4691      3.056     7.66     1217.377     65.46446     1143.273       104     2.409     2.219  39.87   0
       341    975.2001    141.2487 307.5184372  +6.6384097     1005.054     3129.179     4463.443     92.20966     185.2355      370.841      3.430    10.49      1212.37     65.46446      111.931        28     1.820     1.685  56.78   0
       342    250.1658    137.6708 307.8200419  +6.6158392     8721.343     19685.65     23397.43     92.95032      185.753     371.4322      2.405     7.12      1240.19     65.46446      916.689        50     2.341     1.180  25.56   3
       343    252.7335    134.6226 307.8190770  +6.6171825     9138.712     22493.02     29651.47     92.65476      185.753     371.2845      2.729     9.00     1240.098     65.46446     885.7698        70     2.808     1.401  27.65   3
       344    681.6758    133.6965 307.6407474  +6.6318128     2548.637     5534.626     7767.249     92.65476     185.9006     371.4691      2.511     6.90     1215.684     65.46446     305.0463        30     2.070     0.938  42.25   3
       345    684.0206    131.0082 307.6398627  +6.6329998     2373.986     6158.033     8531.832     92.65476     185.4575     371.1367      2.704    10.05     1215.591     65.46446      242.725        38     2.454     1.146  36.75   3
       346     92.1546    131.7654 307.8859415  +6.6130111     1124.915      1992.82     3018.432     92.65476     185.6792     371.2476      2.712     6.02     1247.205     65.46446     164.5575        13     1.735     0.588  41.98   3
       347     94.9723    129.0767 307.8848607  +6.6142145     1607.204     3960.204      5442.64     92.95032      185.753     371.3584      2.742     9.93     1247.011     65.46446      188.804        38     2.067     1.553  55.41   2
       348    365.8643    123.9166 307.7723972  +6.6253641     1191.972     3293.371      5565.16     93.24493     185.9744     371.4322      3.529    11.10     1227.686     65.46446     152.5464        28     2.201     1.561  17.65   2
       349    327.5179    126.4913 307.7882553  +6.6230264     1039.496     2308.718     3577.418     92.80266     186.0481     371.4691      2.396     5.64     1233.055     65.46446     148.0405        12     1.828     0.490  31.56   2
       350    328.3564    122.1646 307.7880524  +6.6248396     915.4263       2396.1      4052.94     92.80266     185.6792     371.2106      3.418     6.51     1233.162     65.46446      128.837        11     1.206     0.988  -3.63   2
       351    974.9555    117.2829 307.5193412  +6.6482910     737.7738     1879.121     2331.353     93.09774      185.753     371.3953      2.546     6.95     1210.507     65.46446     110.4807         8     1.386     0.977 -25.66   2
       352    180.3125    115.5353 307.8498336  +6.6226465     1539.117     3239.178     4499.706     93.09774     185.9744     371.3953      2.201     7.56     1242.901     65.46446     194.8694        20     2.053     0.780  20.62   3
       353    184.0000    113.0513 307.8483841  +6.6237943      923.937     1664.317     3050.686     92.20966     185.1615      370.841      1.869     3.85     1242.769     65.46446     156.6837         5     1.364     0.312  78.72   3
       354    180.4625    111.8449 307.8498957  +6.6241742     1651.202     4427.488     6267.593     93.09774     185.6792     371.4322      2.871     9.14     1242.887     65.46446     171.8044        29     1.806     1.291  29.14   3
       355    641.7664    113.4748 307.6580221  +6.6388341     1756.938     3940.646     6010.774     92.95032      185.753     371.3584      2.506     8.00     1215.027     65.46446     222.5337        22     2.127     0.865  18.55   3
       356    643.2760    111.0352 307.6574763  +6.6398908     1978.501     5107.361     6989.848     92.95032     185.8268     371.3953      2.921     8.43     1214.985     65.46446     208.3123        37     2.201     1.303  15.05   3
       357     64.0751    114.7566 307.8981912  +6.6190928      731.093     2020.328     3273.825     92.95031     185.8268     371.4322      3.250     7.62     1248.136     65.46446      109.053         9     1.563     1.038 -23.65   0
       358    596.8785    102.2413 307.6770653  +6.6419807      16853.9     38055.95     57249.31     92.95031      185.753     371.3953      3.281     6.64     1214.886     65.46446     1788.493       121     4.016     2.256 -75.44   3
       359    598.8673     99.2428 307.6763391  +6.6432840     15856.16        38318     47819.32     93.09774     185.6792     371.4691      2.579     8.16      1214.85     65.46446     1483.678        70     2.652     1.326  30.19   3
       360    320.3484    107.1136 307.7918894  +6.6307837     1047.617     2234.069     4148.133     93.09774     185.6053     371.4691      2.443     6.52     1234.714     65.46446     129.0109        15     2.157     0.552  25.81   3
       361    323.5618    104.6039 307.7906378  +6.6319261     1255.283     3056.595     4653.632     92.06082     185.4575     371.0998      3.021     7.03     1234.192     65.46446     140.1035        20     1.471     1.135 -83.64   3
       362    320.2398    102.7854 307.7920804  +6.6325660     1101.615     2599.652     4851.382     92.65476     185.5314     371.1367      3.793     6.66     1234.819     65.46446     138.2537        15     1.409     1.116 -65.67   3
       363    275.6854     96.0546 307.8108337  +6.6338607     1043.454     2619.453     4311.832     93.09774      185.753     371.5799      3.234     6.98     1239.867     65.46446     136.4877        14     1.486     0.918  47.25   3
       364    278.7562     93.9331 307.8096283  +6.6348383     1087.441     2491.953     4111.731     93.09774     185.6792     371.4322      3.300     7.28     1239.764     65.46446     143.5875        17     1.782     0.834  54.72   2
       365    661.9954     83.3419 307.6506221  +6.6519388     1022.086     3268.774     4440.353     92.35827     185.6053     371.1367      3.009     5.36     1214.147     65.46446     138.7102        10     1.334     0.608  20.92   2
       366    403.2699     76.6116 307.7584361  +6.6461273     1246.142      3869.16     5896.118     92.50664     185.5314     371.1737      3.194    10.30     1223.747     65.46446     164.5043        28     2.479     1.193  71.56   2
       367    876.3409     70.5637 307.5619151  +6.6643094     1546.874     4222.583     5319.178     93.09774      185.753     371.3953      2.781    10.27     1210.507     65.46446     148.0024        40     2.053     1.714  48.31   0
       368    858.6692     72.1763 307.5692100  +6.6630594     941.8995      2415.08     2929.007     92.65476     185.6053     371.3584      2.487     7.34     1210.728     65.46446     124.0708        13     1.612     0.936 -27.81   0
       369    369.2984     66.1784 307.7729139  +6.6493029     802.1879     1739.262     2427.615     92.95032     185.4575     371.1367      2.210     6.16     1229.117     65.46446     108.9773        10     1.264     0.843  19.77   0
       370    114.7083     65.8263 307.8787903  +6.6409711     1139.941     3239.016     4692.171     93.24493     185.4575     371.2106      3.177     9.02     1244.218     65.46446      156.261        21     1.852     1.237  -0.97   2
       371      1.3681     63.1174 307.9260098  +6.6383077     1477.879     2213.202     2530.947     81.47104     148.2217     279.8818      1.568     5.42     1249.083     65.46446     272.2795        12     1.492     0.556  87.67  24
       372    265.9045     62.7259 307.8160244  +6.6472875     613.3487     1594.992     3277.329     92.80266     185.9744     371.3953      2.691     3.51     1240.302     65.46446     105.2795         5     1.044     0.340 -43.56   0
       373    798.8833     56.5571 307.5945961  +6.6675260     2245.494     7259.112     9865.535     93.09774      185.753     371.3214      3.012     8.07     1209.999     65.46446     267.9298        62     2.211     1.993  44.10   0
       374    743.8362     57.1732 307.6174672  +6.6654490      1291.21     3788.243       4778.2     92.50663     185.4575     371.1737      2.999     8.18     1211.348     65.46446     164.9054        29     1.893     1.458 -52.49   2
       375     36.0765     55.0742 307.9118496  +6.6427848     1049.442     2356.769     3744.235     93.39188     186.0481     371.4691      3.016     8.07     1247.106     65.46446     171.1586        14     2.012     0.904  78.30   0
       376     39.6944     54.0784 307.9103789  +6.6433164     943.8174     2450.181     3162.067     92.80266     185.9744     371.4322      2.523     6.24     1246.866     65.46446     117.5764        11     1.634     0.670  54.13   0
       377    739.5475     43.4007 307.6197128  +6.6709900     757.4842     1918.886     3052.353     92.35827     185.2355      370.878      2.401     4.55     1210.723     65.46446     105.3965         7     1.488     0.396  52.14   0
       378     65.6642     38.7604 307.9000978  +6.6505034     3104.743     10678.12     15522.39     93.09774     185.6792     371.4691      3.245     8.06     1244.837     65.46446     358.7338        82     2.319     2.272  57.49   0
       379    393.3239     40.0161 307.7638043  +6.6608971     998.7745     2585.966     4281.552     92.50663     185.4575     371.2476      3.313     9.12     1226.987     65.46446     128.1132        16     2.042     1.136 -14.36   2
       380    607.1880     32.0976 307.6751353  +6.6712666     5612.553     12252.69     15386.86     92.80266     185.4575     371.1367      2.386     7.67     1213.866     65.46446      656.321        44     2.406     1.150  44.11   3
       381    609.3409     29.3370 307.6743328  +6.6724771     5693.514     13470.34     16883.79     93.24493     185.6792     371.4322      2.596     8.15     1213.806     65.46446      552.355        49     2.477     1.271  40.48   3
       382    506.3460     24.6739 307.7173206  +6.6709830     1322.402      2642.13     3811.393     92.95032      185.753     371.3584      2.408     5.77       1217.7     65.46446     152.2334        13     1.173     0.915  74.61   3
       383    507.6844     28.1776 307.7166462  +6.6695817     1659.093     3756.848     4742.794     92.95032     185.3835     371.2845      2.266     6.78     1217.431     65.46446     207.7559        20     1.803     0.966  14.42   3
       384    510.2750     25.6710 307.7156532  +6.6707020     1671.369     3113.529     4043.999     93.39188     185.9006     371.3953      2.114     6.07     1217.318     65.46446      184.196        23     1.497     1.141  58.69   3
       385    766.5388   1018.0461 307.5758137  +6.2696976     4359.107     8914.569      10198.9     92.95031     185.6053     362.0463      2.202     4.76     1273.632     65.46446     501.0597        44     1.707     1.500  29.50  16
       386    864.4769   1015.0649 307.5352164  +6.2741674     1106.202     1960.622     2042.332     93.24493      185.753     371.3584      1.974     5.57     1272.627     65.46446     143.0106        12     1.256     0.993 -55.98   0
       387    235.5285     21.5123 307.8300455  +6.6632819     2797.395     6081.366     7821.174     93.24493     186.0481     371.3953      2.301     6.82     1241.709     65.46446     288.3131        23     1.737     1.087  43.52   3
       388    890.1966     23.3024 307.5577368  +6.6842696     762.5504     1703.785     2028.806     92.80266     185.3835     371.0258      2.531     5.41     1207.187     65.46446     112.2976         6     1.170     0.705  30.48   0
       389    187.3530   1013.7375 307.8166231  +6.2522532     1212.178     2925.108     3123.739     92.95032     185.6053     371.4322      2.155     8.82     1275.769     65.46446     141.1432        22     1.626     1.335  47.90  16
       390      1.5084     21.5152 307.9273578  +6.6554782     692.2016      959.666     537.8977     83.46655     151.1535     282.9034      1.480     3.73     1247.916     65.46446     112.9567         6     0.976     0.409  71.09  24
       391    690.3116   1010.5624 307.6077396  +6.2702622     4454.545     10220.41     12433.14     93.09774     185.6053     371.3953      2.543     5.47     1274.146     65.46446     457.7529        52     1.954     1.553  25.05   0
       392    405.3282   1010.9109 307.7261466  +6.2606667     1994.801      5043.56     6228.704     93.09774     186.0481     371.3953      2.678     7.21     1276.344     65.46446     233.3099        40     1.955     1.542  47.84   0
       393    722.8199   1004.9909 307.5944179  +6.2736377     754.5092     1310.456     2249.193     92.65476     185.4575     371.1737      1.662     4.26     1273.164     65.46446     130.1221         7     0.743     0.696   4.34   0
