#   1 NUMBER                 Running object number                                     
#   2 X_IMAGE                Object position along x                                    [pixel]
#   3 Y_IMAGE                Object position along y                                    [pixel]
#   4 ALPHA_J2000            Right ascension of barycenter (J2000)                      [deg]
#   5 DELTA_J2000            Declination of barycenter (J2000)                          [deg]
#   6 FLUX_APER              Flux vector within fixed circular aperture(s)              [count]
#   9 FLUXERR_APER           RMS error vector for aperture flux(es)                     [count]
#  12 FLUX_RADIUS            Fraction-of-light radii                                    [pixel]
#  13 FWHM_IMAGE             FWHM assuming a gaussian core                              [pixel]
#  14 BACKGROUND             Background at centroid position                            [count]
#  15 THRESHOLD              Detection threshold above background                       [count]
#  16 FLUX_MAX               Peak flux above background                                 [count]
#  17 ISOAREA_IMAGE          Isophotal area above Analysis threshold                    [pixel**2]
#  18 A_IMAGE                Profile RMS along major axis                               [pixel]
#  19 B_IMAGE                Profile RMS along minor axis                               [pixel]
#  20 THETA_IMAGE            Position angle (CCW/x)                                     [deg]
#  21 FLAGS                  Extraction flags                                          
         1    989.7131     26.1173 307.5285807  +6.6977569     1947.046     3474.543     3293.569     86.73676     173.8185     347.1887      1.879     4.30     1033.928     61.18548     276.3167        23     1.498     0.977 -86.89   0
         2    629.4315     22.0679 307.6784802  +6.6873971     3036.441     5659.491     6060.896     86.87476     173.6116     347.0851      1.933     4.69     1048.111     61.18548     333.5931        32     1.584     1.222  68.58   0
         3    429.4854     18.3640 307.7617168  +6.6822295      4506.25     9456.958     10073.02     87.01256     173.5426     347.1196      2.140     5.11     1055.772     61.18548     427.1133        42     1.758     1.392  75.28   0
         4     30.5923     17.9991 307.9275299  +6.6689787     6575.928     12802.37      13639.8     86.32142     173.2662     346.9125      2.027     4.50     1072.672     61.18548      702.255        41     1.665     1.331  74.09   0
         5    676.2604     16.9487 307.6591868  +6.6910768      688.805     1091.355     864.4922     87.01256     173.5426     347.1196      1.480     4.62     1047.735     61.18548     95.33557         8     1.272     0.476 -67.80   0
         6    326.1364     13.2923 307.8048464  +6.6808563      8825.87     18893.92     21095.26     87.01256     173.8185     347.1887      2.237     5.06     1065.296     61.18548     844.4615        60     1.830     1.576  84.85   0
         7    100.0218     13.9080 307.8988107  +6.6730041     1924.047     3775.469     4151.037     87.01256     173.4044      346.947      2.004     5.66     1069.649     61.18548     212.7902        26     1.518     1.173  85.20   0
         8     90.8253     12.4215 307.9026835  +6.6733083     1058.423     2128.889     2436.532     86.59853     173.4044     347.0506      2.014     7.19     1069.864     61.18548     133.5905        15     1.220     1.187   9.20   0
         9    392.3076     11.3961 307.7774055  +6.6838592     1574.768     3225.261     2988.965     86.59853     173.2662      346.878      2.034     6.26     1059.336     61.18548      163.728        28     1.562     1.330  50.41   0
        10    653.0305      6.7253 307.6691871  +6.6945204      8518.29     16116.29     16946.01     86.87477     173.6116     336.3933      1.994     4.63     1047.634     61.18548      857.374        48     1.755     1.291  69.95  16
        11     71.5876      8.3150 307.9108185  +6.6743562     625.7269     832.2173     715.6542     86.59853     173.4044      346.567      1.678     5.78     1070.485     61.18548     95.28162         6     1.197     0.785 -51.82   0
        12    817.7138      6.0220 307.6007540  +6.7003146     1522.531     2746.655     3034.164     87.01255     173.4044     329.5939      1.979     5.45     1042.297     61.18548      205.661        20     1.492     1.125  76.49  16
        13    709.1375     22.7774 307.6453243  +6.6897699     5867.247     10737.31      11353.5     86.59853     173.6116     347.0161      1.918     4.15     1046.936     61.18548     622.8564        40     1.611     1.277  64.83   0
        14    530.8571      6.3296 307.7199854  +6.6905945     993.9598     1677.417     1656.719     87.15012     173.6116      332.633      1.721     6.38     1049.031     61.18548     123.7448        14     1.343     0.999 -14.52  16
        15    253.4558      3.6795 307.8353815  +6.6823842     4534.719     9483.694     10497.79     87.15012     168.7832     299.9462      2.177     5.17     1069.078     61.18548     421.1191        42     1.636     1.588 -47.52  24
        16    888.0726      4.3665 307.5715620  +6.7033466     1313.815     2159.399     2403.289     86.87476     173.1971     309.3832      1.802     4.35     1039.714     61.18548     187.3845        12     1.296     0.697  64.08  16
        17    414.7440      2.7049 307.7683727  +6.6881995     5807.949     10007.38     9809.073     86.87477     158.3085     284.9956      1.844     4.73     1057.583     61.18548     544.5291        31     1.452     1.266  20.15  24
        18    674.3197      1.3253 307.6605193  +6.6974617       5091.6     8064.758      8615.91     75.83051     138.1004     261.0836      1.703     4.55     1047.441     61.18548     703.7449        18     1.504     0.989  80.03  27
        19    677.9710      1.0000 307.6590124  +6.6977180      3362.82     4767.629     5160.639     69.91228     131.9792     254.8609      1.462     5.81     1047.302     61.18548     721.3192        12     1.371     0.694 -15.37  27
        20    644.8213      2.5963 307.6727385  +6.6959503      7170.62     11565.68     11611.54     86.59853     156.7113     282.8014      1.751     4.43     1047.538     61.18548      817.391        31     1.404     1.214  14.93  25
        21    730.2012      1.7669 307.6372752  +6.6991476     1287.665      1638.37     1831.396      80.4304     144.7913     268.6816      1.324     4.58     1045.542     61.18548     181.5422        12     1.184     0.705  19.25  24
        22    224.9252    989.1662 307.8139546  +6.2745981     1624.198     2677.844     2451.563     86.87476     173.6116     347.0851      1.670     4.63     1095.894     61.18548      239.662        18     1.406     0.952  53.08   0
        23    363.6358   1023.1947 307.7551963  +6.2652029     1566.161     1827.257     1880.483     81.02399      145.534      269.483      1.234     3.76     1096.936     61.18548     278.0938        10     0.986     0.795  45.12  24
        24    113.0279    987.8292 307.8604736  +6.2713922     580.0361      874.868     770.1802     86.46009     173.3353      346.878      1.620     4.98     1095.675     61.18548     94.15918         8     1.733     0.404  59.27   0
        25    623.8779    987.1946 307.6483187  +6.2887768     813.5732     1213.041     781.3176     86.59853     173.0587      346.878      1.513     3.45     1093.184     61.18548     139.0944         7     0.715     0.694  20.10   0
        26    815.3326    984.5081 307.5688863  +6.2962811     2481.404     3445.551     3622.268     86.87477     173.7495     347.1541      1.494     3.33     1089.684     61.18548     379.2745        17     1.306     0.695  72.01   0
        27    763.4828    982.3300 307.5904959  +6.2954495     7058.173     10409.07     11561.41     87.28748     173.8874     347.1541      1.661     3.51     1090.755     61.18548     949.2665        35     1.588     1.015  79.52   0
        28    550.2834    981.6276 307.6790737  +6.2886136     978.3898     1773.202      2003.48     86.87477     173.3354     347.0506      2.124     6.67     1094.168     61.18548     139.2762        13     1.473     0.888 -78.13   0
        29    233.1239    981.3144 307.8108144  +6.2781147     1321.294     2071.313     1963.104     87.15012     173.9563     347.1887      1.701     4.93     1095.924     61.18548     180.3976        14     1.369     0.708  64.15   0
        30     57.9063    979.5486 307.8836467  +6.2729579     2717.966      4040.67     4047.329     86.87476     173.4044     347.3267      1.558     3.70     1095.549     61.18548     402.0471        20     1.410     0.855  73.28   0
        31    197.4897    981.2910 307.8256152  +6.2769282     863.0068     1547.888     1407.876     87.01256     174.1627     347.2231      1.791     4.59     1095.771     61.18548     108.1981         7     0.885     0.676  15.27   0
        32    951.6356    977.4321 307.5125076  +6.3037480     7647.529     10515.03     10655.07     86.59853     173.3354     346.8434      1.466     3.08     1085.251     61.18548     1239.385        26     1.344     0.875  72.23   0
        33    633.9284    971.7544 307.6446632  +6.2954871     740.6847     1153.608     950.2888     87.01256     173.6116     347.1196      1.435     4.05      1092.33     61.18548     133.6138         5     1.012     0.464 -65.75   0
        34    925.4261    968.9484 307.5236786  +6.3063768     2249.636     3441.565      3182.61     86.59853     173.7495     347.0161      1.529     4.47     1085.038     61.18548     326.5444        18     1.389     0.893  80.91   0
        35    784.9631    965.7109 307.5821316  +6.3030277     1347.271     1881.465     2529.438     87.01256     173.5426     347.1196      1.628     4.39     1089.507     61.18548     194.7717        10     1.227     0.541  65.90   0
        36    646.1544    965.0182 307.6398114  +6.2986767     4711.064      7125.92     7671.901     86.59853     173.4735     346.8434      1.576     3.25     1091.707     61.18548     678.4905        28     1.381     1.006  69.84   0
        37    258.3080    965.2302 307.8008972  +6.2855998     4471.015     7078.687     7207.042     87.15012     173.3353     347.0851      1.694     3.61     1096.099     61.18548     533.4171        30     1.442     1.149  78.58   0
        38    995.6295    965.3752 307.4946375  +6.3101914     937.3167     1386.706     1265.089     86.46009     173.4735     346.9471      1.520     4.89     1084.289     61.18548     146.3817         9     1.045     0.647 -88.66   0
        39    468.5069    963.7556 307.7136413  +6.2932545     1189.443     1749.169     1681.104     87.01256     173.5426     347.2577      1.675     4.13     1094.909     61.18548     160.4529        14     1.225     0.828  66.07   0
        40     27.2160    962.9976 307.8969527  +6.2787585     2156.297     3320.291     3511.175     86.59853     173.1971     346.9125      1.618     3.65     1095.255     61.18548     301.5867        18     1.307     0.835  59.27   0
        41    877.5173    961.2108 307.5438381  +6.3079737     1176.398     1987.981     2846.892     86.59853     173.2662     346.9471      2.107     5.62     1085.951     61.18548      215.007        15     1.418     0.891  72.50   0
        42    969.4846    959.0596 307.5057091  +6.3119277      783.618     861.0293     857.6857     87.15012     173.6806     347.2231      1.378     4.99     1084.108     61.18548     124.7926         7     1.093     0.645  24.56   0
        43    949.3348    958.5240 307.5140969  +6.3114773     840.7014     1060.629     715.3154     87.15012     173.6116     347.0506      1.350     5.78     1084.227     61.18548     129.5243         8     1.330     0.706  40.04   0
        44    570.9169    957.6901 307.6713086  +6.2991861     1721.935     2686.252      2652.89     86.73676     173.8874     347.2231      1.631     4.24     1093.511     61.18548     225.2166        16     1.245     0.924  52.75   0
        45    294.3891    959.1118 307.7861176  +6.2893361     690.4387     1209.551     1100.938     86.59853     173.3353     346.9816      1.878     3.54     1096.369     61.18548      117.191         5     0.792     0.457  74.73   0
        46   1002.0096    957.5554 307.4922492  +6.3136323     1035.682     1404.521     1428.196     86.46009     173.4735     346.8089      1.374     5.27     1083.855     61.18548     161.2554        12     1.121     0.984  -8.90   2
        47    610.0963    954.1915 307.6551526  +6.3019408     1209.731     1852.167     1564.627     86.73676     173.1971     346.9125      1.644     3.90      1092.48     61.18548     214.0216        11     1.144     0.699  55.73   0
        48     59.8377    954.5638 307.8836891  +6.2833370     772.7754      1220.31     1819.237     86.73676     173.4735     346.9125      1.872     4.49     1095.275     61.18548     112.4624         7     1.115     0.514  49.17   0
        49    290.0041    951.7447 307.7881874  +6.2922303      1540.82     2537.352     2742.323     86.32142     173.4044     346.8089      1.707     4.68      1096.38     61.18548     199.3687        14     1.276     0.822  67.67   0
        50    756.7595    947.6272 307.5944537  +6.3095517     759.9002     1247.818     1652.272     86.59853     173.4044     346.9471      2.057     4.24     1089.283     61.18548     120.9479         7     1.384     0.370  80.79   0
        51    894.3135    944.2883 307.5374288  +6.3155201     7698.955     11003.94     11052.88     86.73676     173.9563     347.2577      1.517     3.44     1084.643     61.18548     1063.799        26     1.366     0.904  69.30   0
        52    430.3402    941.6038 307.7302401  +6.3011211      2140.41     3268.251     3264.813     86.32142     173.4735     346.8434      1.623     3.91     1095.143     61.18548      297.413        20     1.360     0.922  63.66   0
        53    331.9673    939.9536 307.7711556  +6.2985054     9110.014     14610.55     15017.83     86.73676     173.6116     347.0506      1.681     3.64     1095.818     61.18548     1155.793        34     1.526     1.068  68.72   0
        54    252.0462    938.9373 307.8043851  +6.2962440     6779.652     11041.91     11920.12     86.87477     173.4735     347.1887      1.750     3.80     1095.916     61.18548     795.0642        39     1.640     1.132  72.43   0
        55    579.9669    933.3491 307.6683683  +6.3095376      1005.59     1622.867     1611.487     86.87476     173.6806     347.0506      1.560     4.38     1092.748     61.18548     160.3458         9     1.066     0.635  76.62   0
        56    910.1163    929.6634 307.5313549  +6.3220848     1215.047     1516.441     2358.683     87.15012     173.6806     347.0851      1.514     5.11     1083.358     61.18548     167.0366        10     1.085     0.679  83.00   0
        57    866.7190    928.1786 307.5494313  +6.3212506     930.0735     1485.422     1491.885     86.73676     173.2662     347.0851      1.720     3.53     1084.866     61.18548     155.0626         8     1.084     0.604  25.82   0
        58    409.1099    926.6968 307.7395606  +6.3065638     568.0892     746.3398     779.9349     87.01256     174.0939     347.1196      1.468     5.14      1095.12     61.18548     86.52515         6     1.097     0.682  85.39   0
        59    977.4770    925.3208 307.5035195  +6.3261228     867.6542     1160.954     1476.253     87.28748     173.8874     347.2577      1.672     3.44     1082.219     61.18548     179.2993         9     1.124     0.582  42.78   0
        60    839.6692    923.6412 307.5608196  +6.3222214     565.6888       601.49     661.4605     86.87477     173.6116     347.1887      1.386     4.23     1085.522     61.18548     78.00134         6     1.108     0.460 -84.50   0
        61    746.5106    922.3872 307.5995583  +6.3196294     1682.671     2467.676     3380.116     86.73676     173.3354     346.9816      1.812     4.22     1088.429     61.18548     238.2532        17     1.347     0.853  54.11   0
        62    570.2608    922.2472 307.6727733  +6.3137962     641.4125      1022.32     396.9187     86.87477     173.5426     347.1887      1.658     5.41     1092.665     61.18548     102.0972         5     1.226     0.673  72.83   0
        63    610.8347    919.1926 307.6560227  +6.3164143     712.2097       1088.6      827.114     86.46009     173.4044      346.878      1.613     4.41     1090.997     61.18548     142.2126         6     1.372     0.403  68.03   0
        64    977.6698    918.0152 307.5036842  +6.3291453     1426.206     2253.342     3524.439     86.46009     173.5426     347.0161      1.749     4.49     1081.998     61.18548      206.688        13     1.212     0.741  63.23   0
        65    531.5259    917.9443 307.6890075  +6.3142764     1029.114     1842.288     1752.097     86.87476     173.4735     347.0506      1.895     5.05     1093.547     61.18548     176.1818        11     1.217     0.990  89.12   0
        66    665.0734    915.8838 307.6336043  +6.3195936     2392.347     3670.469     3845.669     87.15012     173.9563     347.1541      1.648     3.67     1089.564     61.18548     301.5797        20     1.203     1.012  64.11   0
        67   1015.9013    915.3833 307.4878912  +6.3315054     731.5645     1055.237     1392.059     87.01256     173.4044     346.9125      1.543     4.20     1081.429     61.18548     102.7865         6     0.767     0.658  58.99   0
        68    955.3423    913.8722 307.5130977  +6.3301117     679.1931     757.5111     1217.944     87.15012     173.6116     347.1196      1.039     3.38     1082.176     61.18548     123.2404         6     0.960     0.432  76.71   0
        69     61.6611    912.0384 307.8843695  +6.3009535     2658.992     4562.886      4838.18     87.01255     173.6806     347.1196      1.792     4.55     1094.646     61.18548     357.3267        23     1.578     0.876  79.05   0
        70    825.9771    912.1357 307.5668932  +6.3265145     960.6747     1414.263     1871.822     86.59853     173.6116     346.9816      1.566     3.76     1085.495     61.18548     163.1609         9     1.109     0.627  81.14   0
        71     79.2637    911.2316 307.8770856  +6.3018783     1838.371     3083.451     2850.239     86.73676     173.6806     347.0851      1.722     4.05     1094.707     61.18548     260.0378        20     1.376     0.936  71.20   0
        72    943.0686    911.5217 307.5182749  +6.3306730     990.8596     1426.551     1056.302     87.15012     173.8185     347.1196      1.516     4.31     1082.308     61.18548      148.137        10     1.083     0.717  75.78   0
        73    205.2892    911.0440 307.8247472  +6.3061895      2130.17      3299.89     3414.469     87.01256     173.4735     347.1541      1.647     3.57     1095.511     61.18548      259.342        20     1.233     0.980  59.04   0
        74    344.4840    907.0966 307.7670644  +6.3124893     926.5325     1691.838     2123.383     87.01256     174.0251     347.1887      2.153     6.20     1095.283     61.18548     112.6592        11     1.254     0.872 -65.99   0
        75    239.1236    907.7822 307.8108040  +6.3086719     836.2484     1433.186     1486.308     86.46009     173.3353     347.0851      1.736     4.84      1095.71     61.18548     108.0922         9     0.972     0.683  72.80   0
        76    659.5836    904.9523 307.6362521  +6.3239230     6984.868     10555.91     10956.51     86.46009     173.5426      346.878      1.610     3.49     1089.248     61.18548     939.7948        31     1.407     1.046  72.19   0
        77    797.4380    905.7921 307.5789609  +6.3281809     725.3129     1137.498     1069.082     86.18253     173.3354     346.8089      1.412     4.03     1086.195     61.18548     123.3757         6     0.870     0.535  51.31   0
        78     19.7896    903.5546 307.9020474  +6.3030477     1148.677     2093.356     1773.051     86.46009     173.4735     346.8089      1.876     4.97     1094.306     61.18548      165.988        15     1.398     0.879  80.22   0
        79    897.3301    901.2961 307.5376172  +6.3333697     3003.116     4504.857     4501.667     86.87477     173.6806     347.1196      1.607     3.70     1083.125     61.18548     403.9993        20     1.370     0.853  81.31   0
        80     32.8656    901.7386 307.8966778  +6.3042371     1029.429     1542.522     1392.571     87.01256     173.5426     347.1196      1.690     4.33     1094.323     61.18548     154.7753        11     1.075     0.763  59.37   0
        81    342.6651    898.1757 307.7681207  +6.3161111     15217.79     25065.65     26800.14     86.59853     173.6116     347.0506      1.764     3.86     1095.217     61.18548     1858.582        46     1.586     1.190  68.33   0
        82     77.4884    899.2183 307.8782290  +6.3067780     1331.151     1980.527     2335.735     86.73676     173.3354     347.0161      1.624     4.12     1094.428     61.18548     183.0081        13     1.177     0.837  80.84   0
        83    213.6685    897.9419 307.8217091  +6.3118797     1146.339     1982.845     1984.504     87.15012     173.5426     347.0851      1.759     5.98     1095.512     61.18548     155.8096        14     1.285     0.846  67.89   0
        84    420.6255    889.4395 307.7360326  +6.3223306     1059.511     1694.776     1225.078     86.59853     173.4044      346.878      1.712     4.66     1094.051     61.18548     166.9755        11     1.323     0.566  79.58   0
        85    106.1475    888.9526 307.8666724  +6.3119791     1714.446     2640.659     3103.272     87.15012     173.5426     347.1541      1.612     4.36     1094.408     61.18548     245.8268        18     1.417     0.816  66.81   0
        86    673.9668    885.2228 307.6309405  +6.3325488     873.3319     1260.975     1664.119     86.46009     173.4044      346.878      1.892     5.14     1088.252     61.18548      135.246        10     1.242     0.657  67.71   0
        87    500.8679    885.8518 307.7028224  +6.3264991     591.9809     988.9313     1093.115     86.87476     173.4735     347.0851      1.737     5.46     1093.118     61.18548     87.91455         5     1.139     0.738  79.02   0
        88    887.7106    882.9354 307.5422289  +6.3406289     2050.018     2864.419     2717.493     86.87477     173.8185     347.1541      1.485     4.04     1082.796     61.18548     275.3967        17     1.223     0.865  69.31   0
        89    858.3510    882.6312 307.5544351  +6.3397753      2216.09     3263.062     3243.052     86.73676     173.6116     347.0161      1.641     4.08     1083.292     61.18548     320.9045        18     1.318     0.862  71.20   0
        90    821.7328    881.8535 307.5696723  +6.3388745      3057.43     4624.675     5122.878     87.01256     173.5426     347.0161      1.613     3.51     1084.516     61.18548     454.0289        20     1.334     0.867  68.58   0
        91     89.4932    882.3176 307.8738141  +6.3141584     2376.926     3885.366      4282.02     86.73676     173.9563     347.2231      1.794     4.05     1094.067     61.18548     326.3746        20     1.347     0.911  68.04   0
        92    557.7239    873.3679 307.6796254  +6.3335557     315820.5     508802.7     534102.6     86.87477     173.6116     347.0506      1.765     3.73      1090.65     61.18548     37749.75       149     1.707     1.344  72.09   0
        93    645.6312    876.0411 307.6430195  +6.3353921      1131.43     1715.578     2140.638     86.46009     173.4044     346.9816      1.537     4.40     1088.264     61.18548     146.6531        13     1.293     0.760  78.17   0
        94    345.1763    874.3940 307.7678794  +6.3260130     11413.12     19225.61     20391.13     86.46009     173.3353     346.9816      1.818     3.75      1094.94     61.18548     1342.378        45     1.598     1.218  75.85   0
        95    663.5209    870.7207 307.6357671  +6.3381866     3446.964     5124.827     5084.163     87.28748     173.8874     347.2921      1.660     3.74     1087.865     61.18548     431.8126        22     1.287     1.017  67.03   0
        96    896.1051    869.4218 307.5391949  +6.3464879     5634.998     8199.785     8622.172     86.87476     173.4044     346.9471      1.546     3.55     1082.369     61.18548     831.4025        28     1.358     0.988  72.63   0
        97    735.1595    866.6597 307.6061450  +6.3422568     755.9828     1025.769     966.4589     87.01256     173.6116     347.1887      1.546     4.95     1086.099     61.18548     108.9801         9     1.208     0.713  85.11   0
        98    638.3173    864.5183 307.6464451  +6.3399047      3000.97     4812.418     5561.994     86.73676     173.8874     347.2231      1.775     4.01      1087.85     61.18548     394.2043        24     1.469     0.956  62.61   0
        99    826.7626    863.6657 307.5681933  +6.3465510     1803.798     2733.601      2963.99     86.87477     173.5426     347.2231      1.676     4.00     1083.665     61.18548     281.9196        20     1.343     0.955  76.37   0
       100    628.5878    863.7172 307.6505136  +6.3399101     954.8221      1489.34     1844.411     86.59853     173.3354     346.9471      1.687     5.34     1087.885     61.18548     126.6006        11     1.225     0.657  72.02   3
       101    631.1564    859.2200 307.6495978  +6.3418526     2096.564     3526.136     3900.079     86.46009     173.4735     346.9471      1.871     5.61     1087.677     61.18548     269.3069        24     1.689     0.974  84.58   2
       102    953.9120    863.2324 307.5153889  +6.3509703     967.2516     1233.543     1218.994     87.15012     173.4044     347.1196      1.458     4.28     1081.188     61.18548     151.9304         8     1.080     0.607  67.56   0
       103    402.0103    876.0573 307.7442158  +6.3272314     6802.112     11384.64     11613.49     86.32142     173.6116     346.8089      1.745     3.88     1093.968     61.18548     817.3539        36     1.529     1.166  76.74   0
       104    914.8648    857.2310 307.5318107  +6.3521463     3277.823     4742.769     4734.263     86.73676     173.7495     347.0506      1.535     3.64      1081.88     61.18548     461.6542        24     1.370     0.945  72.25   0
       105    325.3167    858.3984 307.7766680  +6.3319504     911.5634     1413.611     1348.761     86.18253     173.1279     346.8089      1.708     5.37     1095.155     61.18548     159.7125         9     1.396     0.584  45.29   0
       106    373.1979    853.4027 307.7569474  +6.3356182     2387.802     4153.702     4152.062     86.32142     173.1279     346.8434      1.790     4.32     1093.852     61.18548     303.4103        25     1.467     1.093  78.57   0
       107    509.2785    843.0395 307.7007699  +6.3444549     2809.524     4722.034     4628.648     86.87477     173.6806     347.1196      1.794     4.90     1091.025     61.18548     331.6584        26     1.482     1.125  72.96   0
       108    854.0044    841.8857 307.5576076  +6.3564517     933.3417     1466.887     1409.488     86.46009     173.1971     346.8089      1.611     5.56     1082.025     61.18548     138.5992         9     1.158     0.753  61.51   0
       109    556.1778    839.1617 307.6814185  +6.3476254     5493.781     9127.128     9983.364     86.59853     173.3353     346.9125      1.756     3.76     1088.951     61.18548     666.9771        33     1.485     1.143  68.52   0
       110    474.0678    838.4025 307.7155524  +6.3451903     1351.502     2564.003     2432.733     86.32142     173.1971     346.9125      1.968     6.74     1091.968     61.18548     159.6335        20     1.593     0.934  60.79   0
       111    267.7961    839.4638 307.8011997  +6.3378375     658.9269      1009.79      1055.93     86.18253     173.3353      346.878      1.711     3.73     1095.555     61.18548     92.92773         5     1.024     0.390  83.90   0
       112    563.1902    838.7944 307.6785179  +6.3480117     1201.076     2027.209     2384.131     86.46009     173.4044     346.9816      1.807     5.46     1088.698     61.18548     149.4371        13     1.265     0.804  49.42   0
       113    891.8420    836.9919 307.5420534  +6.3597341     1582.486     2375.284     2279.359     86.32142     173.4044     346.8434      1.603     3.71     1081.226     61.18548      227.401        15     1.193     0.870  81.59   0
       114    115.7767    837.2767 307.8644191  +6.3336355     1253.265      1887.61     1621.248     86.59853     173.4735     347.0851      1.667     5.26     1093.603     61.18548     146.2933        14     1.265     0.803  76.25   0
       115    526.8389    833.0832 307.6938104  +6.3491530      17968.1     29727.83     30983.78     87.01255     173.5426     347.0851      1.760     3.74     1089.735     61.18548     2229.984        46     1.562     1.209  74.32   0
       116    368.1464    835.4045 307.7596525  +6.3428790      645.765     1131.104     1334.479     86.32142     173.3353     346.7744      1.581     3.52     1093.294     61.18548     116.6552         5     0.845     0.424  19.80   0
       117    940.4398    831.3040 307.5220556  +6.3637026     4172.358     5898.433      5580.25     87.01256     173.4735     347.2921      1.538     3.43      1079.99     61.18548     541.6099        24     1.398     0.917  75.70   0
       118    173.4548    832.5300 307.8406214  +6.3375328     607.6283     655.2664      483.225     86.87477     173.4735     347.0851      1.403     5.97     1094.547     61.18548     80.04541         5     1.086     0.924 -46.44   0
       119     37.4952    823.6884 307.8973944  +6.3366132     1512.037     2717.223     3043.808     87.01256     174.0251     347.1887      1.991     3.69     1093.006     61.18548      220.311        14     1.196     0.766  63.44   0
       120    319.5349    821.8685 307.7803017  +6.3468371     3034.731     5173.959      5763.98     87.01256     173.6806     347.1541      1.854     4.08     1094.197     61.18548     353.6428        28     1.499     1.097  66.01   0
       121    784.9446    817.5424 307.5871131  +6.3641967     54561.53     83497.14     86777.24     87.15012     173.6806     347.1541      1.652     3.53      1082.72     61.18548     7216.586        67     1.551     1.217  68.57   0
       122     19.4897    819.8039 307.9050048  +6.3376112      2131.54     3666.297     3479.058     86.46009     173.2662     346.7744      1.794     4.65     1092.942     61.18548      261.017        21     1.419     0.966  83.08   0
       123    242.3378    815.3892 307.8125873  +6.3469218     4597.827     8509.649     10835.03     86.46009     173.4044      346.878      2.192     4.17     1094.934     61.18548     560.8837        41     1.732     1.268  74.68   0
       124    428.1347    815.9254 307.7353901  +6.3529310     860.2627     1495.059     1460.843     87.15012     173.6116     347.1196      1.890     3.62     1091.989     61.18548     122.0933         9     0.933     0.700 -19.25   0
       125    910.2118    812.7814 307.5352340  +6.3703417     8902.938     12994.58     13344.49     86.59853     173.2662     347.0161      1.574     3.50     1079.901     61.18548     1283.079        33     1.420     1.001  75.50   0
       126    713.2286    812.1628 307.6170859  +6.3640225     19956.76     33332.19     35722.71     86.59853     173.3353     346.9125      1.783     3.70     1084.236     61.18548     2522.162        51     1.599     1.200  78.71   3
       127    706.8865    808.7042 307.6198367  +6.3652385     82345.14       133113     140041.6     87.01256     174.0251     347.1887      1.762     3.73     1084.337     61.18548     10446.21        81     1.643     1.283  72.55   3
       128    351.8344    809.6544 307.7672965  +6.3529625      17675.1      31063.4     33151.89     86.87477     173.6116     347.1196      1.873     4.06     1092.531     61.18548     2037.049        57     1.706     1.301  70.02   0
       129    401.2950    810.0153 307.7467384  +6.3544714     1322.383     2258.158     2147.608     86.73676     173.3354     346.9125      1.848     5.18     1092.226     61.18548     141.8777        17     1.163     1.115 -37.96   0
       130    413.6837    807.4675 307.7416780  +6.3559384     19486.88     33512.13     34963.24     87.15012     173.8874     347.1541      1.840     3.99     1092.082     61.18548     2253.141        52     1.612     1.303  71.32   0
       131    640.8753    808.6881 307.6472595  +6.3630389     735.9266     1192.397     1112.036     87.01256     173.9563     347.2231      1.578     4.75     1085.734     61.18548     99.24548         6     0.991     0.645  79.07   0
       132    950.6774    806.3380 307.5186395  +6.3743509       2182.5     3036.838     2734.659     87.28748     173.6806     347.1196      1.550     3.81     1078.194     61.18548     324.8375        17     1.295     0.786  75.98   0
       133    241.7316    794.0341 307.8135599  +6.3557173     775293.2      2053708      2283560     86.87477     173.6806     347.2231      2.441     6.04     1094.424     61.18548     63991.83       519     2.417     1.961  76.29   4
       134    880.3955    805.0939 307.5478783  +6.3725211     762.7057     1056.891      1043.44     86.73676     173.2662     346.8434      1.500     5.85     1080.354     61.18548     121.2437         8     1.185     0.813  79.31   0
       135    647.6825    803.2785 307.6446135  +6.3654997     5955.713     9395.274     9563.312     87.15012     173.8874     347.2577      1.713     3.77     1085.495     61.18548     736.1617        30     1.471     1.074  68.21   0
       136    436.5604    801.2961 307.7323829  +6.3592526     1481.719     2528.753     1906.087     87.01256     173.4735     347.2921      1.785     5.77     1091.238     61.18548     176.6288        18     1.307     1.073  81.32   0
       137    875.9443    795.9150 307.5500354  +6.3761621     477.7018     778.5579     699.1604     87.01256     173.6116     347.2577      1.868     3.77     1080.125     61.18548     105.4871         5     1.475     0.277  68.64   0
       138    682.8857    793.5795 307.6303154  +6.3706805     2359.057     3912.033     3538.267     86.73676     173.3353     347.0161      1.717     3.86     1084.552     61.18548     294.9567        21     1.357     0.962  81.62   0
       139    600.9462    795.0835 307.6643042  +6.3673201      746.265     1502.583     1721.735     87.01256     173.6116     347.2577      2.447     7.05     1085.397     61.18548      119.964        12     1.548     0.900  75.70   0
       140    152.2598    794.3891 307.8507138  +6.3525662     746.1187     1391.386     1318.765     86.32142     173.4735     346.8089      1.695     5.58     1093.326     61.18548     151.2576         8     1.272     0.690  26.24   0
       141    127.0826    794.1418 307.8611805  +6.3518223     997.1917     1706.714     1899.562     87.15012     173.6116     347.1887      2.071     5.15     1092.949     61.18548     136.0337        13     1.108     0.921 -85.96   0
       142    416.6389    790.1346 307.7410345  +6.3631930     45795.21     80431.16     85485.41     87.01256     173.5426     347.2231      1.884     4.06     1091.397     61.18548     5492.209        80     1.715     1.399  70.38   0
       143    279.0811    792.5009 307.7980967  +6.3576037      864.105     2022.764     2948.722     87.01256     174.0939     347.2231      2.787     7.19     1094.505     61.18548     128.6355        12     1.665     0.871 -65.73   0
       144    959.3846    792.0212 307.5155021  +6.3805517     715.5228     1233.338     1272.743     86.73676     173.3353     347.0161      1.506     4.14     1077.221     61.18548     116.0444         7     1.299     0.376  75.64   0
       145    534.3522    789.1469 307.6921682  +6.3675428     6346.366     10658.61     10913.01     87.15012     173.6116     347.1541      1.802     3.90     1086.984     61.18548     712.0555        37     1.638     1.140  76.56   0
       146    451.1626    787.6497 307.7267767  +6.3653754     3750.589     6527.488      7346.76     86.73676     173.4735     346.9471      1.917     4.05     1090.135     61.18548     426.2461        29     1.432     1.169  62.42   3
       147    447.8784    781.3643 307.7283527  +6.3678602     1850.188     3472.168     3483.113     86.87477     173.6806     347.1196      2.024     5.72     1089.903     61.18548     199.1637        22     1.468     1.110  64.12   3
       148    907.1631    804.1774 307.5367890  +6.3737922     6947.595     10642.58     11021.33     86.59853     173.3353      346.878      1.623     3.67     1079.575     61.18548      900.875        34     1.465     1.076  62.73   0
       149    779.5093    785.7339 307.5904390  +6.3771471     11054.43     17100.28     18245.71     87.01256     173.7495     347.1541      1.712     3.72     1081.248     61.18548     1319.076        36     1.501     1.083  67.13   0
       150      9.1880    782.2967 307.9105527  +6.3527482     1063.279      1947.42     1831.543     86.73676     173.3354     346.9125      1.921     5.89     1092.257     61.18548     140.6393        11     1.028     1.004  88.64   0
       151    137.3878    777.8664 307.8574498  +6.3588874     9996.151     17587.51     18695.42     86.46009     173.4044     347.0161      1.859     4.12     1092.772     61.18548     1220.555        43     1.646     1.245  72.43   0
       152    801.1065    779.7236 307.5816687  +6.3803494     1282.811     2042.934     1714.225     86.73676     173.8185     347.1196      1.661     4.27     1080.686     61.18548     203.4213        14     1.247     0.876  40.64   0
       153    145.4909    778.1416 307.8540745  +6.3590461     2662.065     4680.747      4895.88     86.87476     173.6116     347.2577      1.903     4.68     1092.891     61.18548     342.4725        25     1.566     1.047  70.90   0
       154    129.6183    775.3128 307.8607635  +6.3596805     2596.429     4475.244     5111.866     86.73676     173.3354     346.9471      1.923     4.10     1092.607     61.18548     305.5747        24     1.466     0.981  73.41   3
       155    129.8615    768.7384 307.8608846  +6.3624027      1717.54     3115.747     3796.327     87.01256     173.6116     347.1541      2.235     5.89     1092.484     61.18548     183.3181        22     1.614     1.002  75.19   3
       156    925.0452    774.1806 307.5303660  +6.3867723     6552.053     9908.538     10039.17     86.59853     173.4735     346.9471      1.573     3.48     1077.519     61.18548     943.3486        29     1.408     1.000  74.04   0
       157    974.5014    774.2425 307.5098178  +6.3883952     1616.518     2272.604     2604.337     87.01256     173.4735     347.3611      1.526     4.32     1075.972     61.18548      209.797        14     1.242     0.762  63.44   0
       158    680.5604    771.6447 307.6320186  +6.3796583     1469.473     2656.016     2917.487     86.73676     173.6116     347.0161      1.920     5.03     1083.315     61.18548     207.8983        19     1.388     1.068  67.76   0
       159    567.4022    771.1389 307.6790445  +6.3760831     2016.054     3682.766     4166.598     86.32142     173.4044     346.8089      1.964     4.56     1084.964     61.18548      217.188        23     1.323     1.143  82.98   0
       160    415.5014    770.7957 307.7421587  +6.3711385     1064.757     1898.878     2112.845     86.73676     173.2662     346.7398      2.120     6.06     1090.485     61.18548     140.9655        16     1.588     0.989  63.48   0
       161    919.2609    766.0286 307.5330424  +6.3899450     2962.537     4203.182     4473.192     86.59853     173.6116     347.0506      1.503     3.57     1077.314     61.18548     419.8658        20     1.314     0.845  72.88   0
       162    979.5292    765.4888 307.5080224  +6.3921767     1915.758     2559.379     2790.433     87.15012     173.8874     347.1541      1.395     3.87     1075.505     61.18548     265.8977        16     1.273     0.767  85.82   0
       163    948.7272    765.7758 307.5208093  +6.3910317     3239.691     4584.692     4192.269     86.59853     173.4735     347.0506      1.515     3.41     1076.405     61.18548     445.0538        20     1.241     0.904  72.81   0
       164    671.7635    765.5283 307.6358787  +6.3818893     1295.695     2055.316     2828.573     86.87477     173.6116     347.1541      2.008     4.96     1083.293     61.18548     169.1646        13     1.100     0.876  56.08   0
       165    818.7158    763.5988 307.5748944  +6.3875941     881.1475     1315.417     934.7673     86.18253     173.1279     346.8089      1.515     5.82     1079.745     61.18548     145.3268        12     1.495     0.639  79.89   0
       166    894.1311    761.5038 307.5436341  +6.3909750     712.3345     1069.947     876.7975     86.87476     173.7495     347.1541      1.492     4.42     1078.008     61.18548     117.4523         7     0.925     0.602 -83.24   0
       167    244.3959    760.6069 307.8135815  +6.3696062     1533.749     3007.301     3837.834     86.32142     173.2662     346.9816      2.246     5.84     1093.096     61.18548     188.0179        21     1.555     0.966  78.04   0
       168    937.0215    755.9561 307.5260016  +6.3946955     944.6277     1288.366     1508.655     86.46009     173.4735     346.9125      1.373     4.24     1076.241     61.18548     184.7899         7     1.127     0.456  58.88   0
       169    910.9171    754.7424 307.5368872  +6.3943262     1101.305     1547.054     1334.047     87.01256     173.6116     347.1887      1.513     4.59     1077.052     61.18548     181.0292        12     1.190     0.789  71.68   0
       170    159.7883    755.5488 307.8488987  +6.3688532      608.584     1157.892     1352.222     86.32142     173.4735     346.8434      2.084     6.05     1092.656     61.18548     81.64819         6     1.114     0.924 -15.01   0
       171    963.4954    753.5372 307.5150842  +6.3965765     2478.476     3667.779     3887.118     86.87477     173.7495     347.1541      1.545     3.57     1075.525     61.18548     337.0354        19     1.312     0.856  68.97   0
       172    264.3393    754.9662 307.8054872  +6.3726042     678.0551     1189.609     2463.338     86.73676     173.6806     347.0506      1.987     4.11     1092.866     61.18548     100.9635         6     0.840     0.640 -55.79   0
       173    259.3312    753.8318 307.8076059  +6.3729045     655.9443     1623.663     3509.534     86.87477     173.6116     347.1196      3.060     4.43     1092.822     61.18548     90.36121         7     1.207     0.462 -85.47   0
       174    683.2815    752.4780 307.6315324  +6.3876620     810.0179     1544.892     1874.733     87.28748     173.8874     347.2577      2.094     6.92     1082.033     61.18548     99.48853        11     1.412     0.951  63.56   0
       175   1005.3469    746.8325 307.4979216  +6.4007390     1783.092      2617.17      2422.43     86.87477     173.6116     347.0506      1.563     3.92     1074.347     61.18548     237.1912        15     1.232     0.868  73.93   0
       176    806.9247    745.5510 307.5803987  +6.3946514     1170.313     1755.137     1471.354     86.87476     173.6806     347.1541      1.479     5.07     1079.122     61.18548     181.6401        10     1.119     0.684  80.56   0
       177    892.9169    742.6470 307.5447710  +6.3987194     1651.711     2294.958      2616.88     87.01256     173.6116     347.1196      1.527     4.21     1077.164     61.18548     228.6809        16     1.182     0.957  54.27   0
       178    867.2243    738.7554 307.5555755  +6.3994690     818.2512     1137.181     1091.194     86.46009     173.6116     346.9816      1.547     4.41     1078.017     61.18548     120.9677         7     1.078     0.514  68.70   0
       179    850.0130    734.2094 307.5628785  +6.4007716     1438.658     2119.972     2227.041     86.73676     173.3353     347.0161      1.569     4.15     1077.953     61.18548     197.3527        16     1.345     0.766  87.11   0
       180     49.0927    733.1693 307.8956384  +6.3743710     2170.354     3788.741     4750.973     87.15012     173.4044     347.1196      1.977     4.95     1091.248     61.18548     290.6187        27     1.664     1.039  66.27   0
       181    113.1257    730.7146 307.8691218  +6.3775372     903.1042     1952.083     2347.858     87.15012     173.9563     347.1541      2.482     6.06     1091.364     61.18548     122.1251        11     1.248     0.828 -53.09   2
       182    661.6215    721.5872 307.6415692  +6.3996908     5378.021     8756.265     8848.655     86.73676     173.4044     346.9816      1.762     3.85     1080.729     61.18548     667.0719        33     1.532     1.121  75.19   0
       183    608.3977    720.6899 307.6637109  +6.3982816      1276.88     2328.005     2538.311     86.32142     173.2662     346.8434      1.886     4.43     1081.112     61.18548     177.0111        16     1.321     0.854  72.80   0
       184    530.7258    721.4092 307.6959547  +6.3953857     553.5615     962.3298     1016.889     86.59853     173.1279     346.9816      2.014     4.47     1083.627     61.18548     79.18982         5     1.163     0.488   3.42   0
       185    635.3363    717.3059 307.6526332  +6.4005795      1825.26      3318.53     3829.355     86.87477     173.6806     347.1887      1.963     5.19      1080.61     61.18548     192.3873        22     1.499     1.015  85.70   0
       186    124.8101    717.6832 307.8647084  +6.3833096     3239.253     5702.029     6457.393     86.59853     173.3353     346.9471      1.872     3.99     1091.001     61.18548     437.7361        31     1.592     1.135  70.40   0
       187    998.5668    716.6573 307.5017495  +6.4129707     2629.971     4062.254     4102.692     86.87477     173.6806     347.0851      1.701     3.88     1073.085     61.18548     361.0807        21     1.344     0.951  70.52   0
       188    247.7658    717.4491 307.8136384  +6.3875359     747.7825     1459.228     2068.183     86.87477     173.6116     347.0506      2.612     5.36     1091.022     61.18548     119.1637         7     1.463     0.554 -64.80   0
       189    778.5306    713.6492 307.5932661  +6.4068737     18742.96     30149.89      31167.4     87.01256     173.5426     347.1541      1.759     3.86     1077.311     61.18548      2194.67        45     1.550     1.188  74.79   0
       190    908.4832    713.5282 307.5392805  +6.4112600     3702.395     5605.751     5822.681     87.28748     173.9563     347.1541      1.677     3.60      1074.98     61.18548     459.9895        22     1.331     0.920  75.73   0
       191    506.0650    713.4263 307.7064685  +6.3978558     817.2197     1474.512     1539.665     86.59853     173.5426     347.0161      2.042     6.18     1084.294     61.18548     114.8016        10     1.113     0.963  49.89   0
       192    477.6620    713.7232 307.7182582  +6.3967821     1224.942     1937.857     2214.104     87.28748     173.6806     347.1196      1.811     4.48     1085.428     61.18548     158.6539        13     1.109     0.828  40.98   0
       193    324.0658    713.0842 307.7820887  +6.3918980     591.9283     1114.741     1484.442     87.15012     173.8874     347.1887      2.542     5.34     1089.262     61.18548     100.7573         5     0.946     0.850  44.54   0
       194    252.1510    707.3836 307.8121564  +6.3918384     4955.934     9204.636     9802.646     86.46009     173.6806     346.8089      1.946     4.45      1090.47     61.18548     549.0393        38     1.656     1.254  72.34   0
       195    659.0946    706.4525 307.6431278  +6.4058545     6028.115     10232.27      11297.6     86.87476     173.5426     347.3956      1.845     3.91     1079.743     61.18548     745.9153        37     1.556     1.207  71.67   0
       196    642.1937    707.5164 307.6501135  +6.4048502     805.2013     1633.149     2300.142     86.59853     173.2662     346.9816      2.504     5.71     1079.967     61.18548     121.6884         8     1.158     0.845  -8.09   0
       197    918.4703    699.1760 307.5356126  +6.4175182     980.7015     1649.663     1425.195     86.59853     173.4735     347.0506      1.676     5.19     1073.966     61.18548     158.7168        10     1.438     0.700  79.95   0
       198    730.6501    694.9512 307.6137863  +6.4129939     3268.515     5961.056     6285.192     87.01255     173.4735     347.0506      1.946     4.30     1077.271     61.18548     380.2906        29     1.535     1.118  69.60   0
       199    686.2234    695.7186 307.6322179  +6.4111926     919.1832     1672.857     1281.715     86.59853     173.2662     347.0161      1.816     6.62     1078.669     61.18548     123.3757        12     1.479     0.831  59.77   0
       200    997.0733    691.4165 307.5032157  +6.4233414     9277.082      13597.4     13732.44     86.46009     173.4044     347.0161      1.563     3.63     1071.697     61.18548     1295.109        32     1.437     0.997  75.53   0
       201    985.6320    692.2889 307.5079400  +6.4226001     611.1426      856.295     233.4635     87.15012     173.4044     347.1196      1.289     4.10     1072.031     61.18548     102.3333         6     1.043     0.461  57.26   2
       202    935.6161    691.9438 307.5287316  +6.4210756     2418.761     3497.762     3735.696     86.32142     173.5426     346.8434      1.496     3.42     1073.301     61.18548     321.4562        18     1.242     0.861  70.24   0
       203     16.6470    691.1402 307.9105383  +6.3906299     1626.519     2806.877     3936.808     87.01256     173.6116     347.2231      1.999     4.25     1090.261     61.18548       208.05        18     1.338     0.907  71.78   0
       204     74.5771    686.5026 307.8866301  +6.3944928     21652.41     38342.12     40847.39     87.01256     173.3354     346.9125      1.906     4.19     1089.811     61.18548     2621.721        60     1.737     1.321  70.49   0
       205    535.7758    687.5085 307.6949979  +6.4095501     1745.054     2932.821     2856.571     87.15012     173.4044     346.9471      1.802     5.19     1082.288     61.18548     207.6719        18     1.277     1.072  55.50   0
       206    504.4982    684.2471 307.7081020  +6.4098494     1049.599       1881.5     1993.681     87.01256     173.5426     347.3267      1.964     5.36     1082.946     61.18548     133.5482        15     1.232     0.879  61.65   0
       207    925.5143    683.4417 307.5332137  +6.4242488     1066.667     1503.859     1158.608     87.01256     173.4735     347.1196      1.578     4.10     1073.107     61.18548     161.5474        11     1.204     0.652  51.21   0
       208    545.5964    680.6934 307.6911474  +6.4126923      590.626     989.3117     567.8201     86.73676     173.2662     346.8089      1.635     3.47     1081.781     61.18548     93.25598         5     0.766     0.455  72.61   0
       209    720.5342    678.4622 307.6185431  +6.4194632     3175.292     5262.236     5301.458     87.01256     173.6116     347.1196      1.782     4.07     1076.774     61.18548     346.6671        26     1.404     1.118  72.16   0
       210    742.4413    676.8878 307.6094944  +6.4208450     3481.703     5739.045     6620.308     87.01255     173.5426     347.1541      1.875     3.95     1076.161     61.18548      422.757        29     1.503     1.116  71.35   0
       211    573.8798    674.8170 307.6795947  +6.4160647     2639.279     4673.879     4545.661     86.59853     173.2662     347.0161      1.832     4.32     1079.911     61.18548     307.6655        27     1.417     1.170  87.76   0
       212    410.0081    674.9769 307.7476700  +6.4105112     1080.918      1981.19     1782.999     86.59853     173.4044     346.9125      1.887     5.22     1085.919     61.18548     158.2899        11     1.098     0.918  50.53   0
       213    234.6901    674.1183 307.8205332  +6.4049849     1488.587     2635.255     2972.112     86.73676     173.8874     347.1887      1.961     5.95     1088.654     61.18548     166.8218        18     1.379     0.988 -83.73   0
       214   1015.3694    672.9848 307.4962318  +6.4315604     5135.545     7440.682      7061.21     86.59853     173.3354     347.0506      1.519     3.47      1070.19     61.18548     689.7344        23     1.347     0.895  72.97  16
       215    980.7001    671.8126 307.5106753  +6.4308893     8161.204     11975.96      12547.4     86.73676     173.3354      346.878      1.557     3.45      1071.09     61.18548     1103.541        32     1.466     0.969  71.33   0
       216    317.9795    674.1429 307.7859308  +6.4077698     1065.995     1946.378     1585.783     86.59853     173.5426     346.9125      1.899     7.07     1087.551     61.18548     128.4424        16     1.242     1.186 -21.97   0
       217    701.1057    671.2842 307.6268562  +6.4217773      737.785     1358.935     1164.548     86.87477     174.0251     347.2577      1.872     6.35     1076.925     61.18548     121.1606        10     1.317     0.859  17.88   0
       218    534.0228    672.0169 307.6962477  +6.4158868     442.3736     978.9331     497.2458     86.59853     173.4735     347.0506      1.534     4.69      1081.76     61.18548     97.18579         6     1.446     0.432 -28.48   0
       219    139.3117    665.4424 307.8604497  +6.4053629     19623.39     35792.86     37886.89     87.01256     173.5426     347.1541      1.946     4.40     1088.945     61.18548     2261.197        56     1.758     1.311  73.45   0
       220     92.5306    669.1358 307.8797591  +6.4022658     781.9316     1444.633     1915.146     87.01256     173.6806     347.1541      2.338     5.93     1089.109     61.18548     112.6741         8     1.218     0.813  64.71   0
       221    426.0914    666.3288 307.7412797  +6.4146204     2230.258     4246.161     4607.248     86.87477     173.8185     347.1196      2.019     4.66     1084.997     61.18548     254.4578        25     1.429     1.147  79.17   0
       222    807.5690    666.1836 307.5827955  +6.4274388     1203.658     1841.506     2062.652     86.59853     173.3353     347.0506      1.687     4.50     1073.479     61.18548     146.8875        15     1.175     0.932  49.25   0
       223    975.5953    654.7753 307.5133673  +6.4377528     7020.404     11162.82     11958.26     86.46009     173.3354     346.9471      1.699     3.81     1070.003     61.18548     926.0465        35     1.601     1.019  62.99   0
       224    569.2288    650.1494 307.6823571  +6.4260927     38294.42     71141.01     76012.85     86.59853     173.7495     347.0161      1.960     4.36     1078.925     61.18548     4202.458        71     1.747     1.398  72.01   0
       225     20.5611    653.5834 307.9101831  +6.4062656      886.839     1070.486     1770.886     86.59854     173.4735      346.878      1.385     4.59     1089.316     61.18548     134.9692         7     0.903     0.664  27.44   0
       226    933.3411    651.7659 307.5310240  +6.4375868     643.6351     1033.314     534.3898     86.87477     173.6116     347.0506      1.851     5.53     1071.303     61.18548     116.6555         7     1.329     0.649  78.31   0
       227    213.3826    650.9729 307.8301667  +6.4138244      503.611      1055.08     1480.304     86.59853     173.3354     347.0161      2.631     5.28     1087.808     61.18548     70.63989         5     1.648     0.478  56.41   0
       228    528.8319    650.6010 307.6991253  +6.4245543     657.2947     1224.333     950.5138     86.32142     173.4044     346.8434      1.922     5.02     1080.789     61.18548     103.3405         5     1.017     0.701  71.69   0
       229    176.8485    646.6539 307.8454904  +6.4143804     2017.252     3801.684     3868.019     87.01256     173.6116     347.1541      1.974     4.78     1088.139     61.18548     221.7714        26     1.482     1.179  61.09   0
       230     69.7736    641.4672 307.8901486  +6.4129227      1042.22     2255.222     2301.204     86.59853     173.4735     347.0161      2.362     7.06     1088.455     61.18548     130.6748        15     1.517     0.961  83.43   0
       231    466.4825    633.9408 307.7255902  +6.4293443     48733.66     92160.98     98638.09     87.15012     173.6806     347.1541      2.010     4.45     1082.417     61.18548     5092.799        81     1.810     1.447  72.48   0
       232      9.6979    635.6875 307.9153015  +6.4132878     1434.893     2711.431     2914.545     87.01256     174.0939     347.1541      2.199     7.14     1088.982     61.18548     217.4185        19     1.562     1.128 -50.57  16
       233    652.2911    631.1125 307.6484876  +6.4367300     745.8986      1485.27     1740.002     86.87477     174.0939     347.2577      2.158     5.69     1075.945     61.18548     87.42371         6     1.258     0.724 -84.22   0
       234    141.2302    629.2350 307.8608763  +6.4203745     1327.992     2331.765     1092.814     86.59853     173.3353     346.9125      1.832     5.92     1087.771     61.18548     160.9741        20     1.601     0.905  85.19   0
       235    935.9765    626.6912 307.5307699  +6.4480265     656.9609     808.0488     812.7785     87.01255     173.4044     346.9471      1.441     4.43     1069.703     61.18548     93.55347         6     1.087     0.514  51.65   0
       236    612.2887    625.0989 307.6653099  +6.4378750     842.1921     1347.711     1039.717     87.01256     174.0939     347.0851      1.766     5.41     1075.912     61.18548     100.5869         9     1.060     0.785  49.71   0
       237    312.2047    623.4794 307.7900393  +6.4284913     1619.454     3327.137     3783.124     86.59853     173.0587     346.8434      2.106     6.41     1084.286     61.18548     172.7794        25     1.601     1.162  71.44   0
       238     13.7772    625.7881 307.9139418  +6.4175117     678.7861     1211.771     1774.498     86.59853     173.4044     347.0161      1.888     4.76     1088.688     61.18548      114.886         5     1.128     0.653  75.73   0
       239    738.5801    617.4687 307.6130950  +6.4452464     4613.314     7715.438     8100.037     86.59854     173.4735     347.0161      1.783     4.13     1073.946     61.18548     510.6382        31     1.500     1.139  77.67   0
       240    792.0303    612.6592 307.5910487  +6.4490170     12166.12     20615.89     22021.07     86.73676     173.6116     347.0851      1.821     3.83     1072.272     61.18548     1492.094        46     1.618     1.212  76.05   0
       241   1009.2355    613.3672 307.5007779  +6.4559687     1103.639     1794.355     1784.784     86.59853     173.3354     346.8434      1.872     4.68     1065.387     61.18548     151.0443        10     1.190     0.658  73.80   0
       242    534.6558    612.3358 307.6979939  +6.4405463     1002.827     2255.168     2427.289     87.15012     173.6116     347.1196      2.328     6.54      1078.44     61.18548     123.5742        19     1.513     1.227  72.71   0
       243    615.9131    610.8314 307.6642840  +6.4438863     2342.767     4461.669     4497.586     87.15012     173.4044     347.0506      1.943     5.17     1075.374     61.18548     239.6254        28     1.530     1.208  81.56   0
       244    932.9891    606.8831 307.5326753  +6.4561046     1141.025     1784.855     2353.706     86.59853     173.2662      346.947      1.731     3.54     1068.691     61.18548     160.3929        12     1.103     0.706  81.16   0
       245    229.0500    604.2147 307.8252368  +6.4336533      983.148     1996.657      2068.12     86.32142     173.6116     346.8089      2.168     7.00      1085.39     61.18548     142.2734        15     1.660     0.831  79.64   0
       246    374.0768    604.4013 307.7649772  +6.4384423     742.1642     1402.863     1859.945     86.18253     172.9894     346.9125      2.090     5.15     1082.001     61.18548      103.567         8     1.040     0.881 -54.64   0
       247    868.0845    595.9960 307.5600082  +6.4584346     2484.744     3855.311      4351.29     86.46009     173.1971     346.7744      1.658     3.74     1070.718     61.18548     317.1537        22     1.334     1.012  55.59   0
       248    826.9875    593.3563 307.5771724  +6.4581529     2397.698     4172.705     4661.375     86.46009     173.4735     346.8434      1.863     4.57     1071.157     61.18548      290.979        26     1.587     1.039  71.34   0
       249    797.8903    589.3879 307.5893954  +6.4588200     2216.882     4007.724     5083.716     86.73676     173.3353     346.9125      2.160     4.54      1071.47     61.18548     263.2086        25     1.495     1.109  67.31   0
       250    254.9921    588.4923 307.8149897  +6.4410148     5833.838     11380.65     12616.59     86.59853     173.2662     346.9125      2.046     4.75     1083.662     61.18548     635.2405        42     1.765     1.275  73.20   0
       251    807.4478    584.5436 307.5855870  +6.4611390     137724.3     233612.4       246262     87.01256     173.6116     347.2231      1.848     4.06     1071.201     61.18548     15192.26       112     1.725     1.396  74.83   0
       252    189.1023    583.0272 307.8425491  +6.4410584      43793.8     86691.35     95904.51     87.15012     173.3353     347.0851      2.100     4.70     1085.237     61.18548     4787.801        95     1.888     1.558  68.27   0
       253    113.1706    579.3324 307.8742205  +6.4400321     4838.679     9360.501     9686.449     86.73676     173.6116     347.0851      1.996     4.68     1086.251     61.18548     596.1656        39     1.631     1.311  71.50   0
       254    978.4952    576.5399 307.5147848  +6.4701483     1292.153     1759.446     1762.762     86.87477     173.6116     347.2231      1.511     3.72     1065.081     61.18548     190.0006        12     0.996     0.866 -84.89   0
       255    998.9442    575.1802 307.5063337  +6.4713911     818.4196      1038.08     993.4381     86.46009     173.6116     346.9125      1.439     4.57     1063.882     61.18548     118.4366         8     1.014     0.585  67.08   0
       256    227.8282    574.6786 307.8267418  +6.4458055     534.3319     882.3392      578.267     86.87477     173.5426     347.1196      1.757     4.26     1083.482     61.18548     79.45056         6     0.775     0.668 -62.06   0
       257    844.0866    571.8450 307.5707898  +6.4676043     3814.673     6219.141     6737.898     87.01255     173.4735     347.0851      1.779     3.74     1069.913     61.18548     505.7924        29     1.447     1.226  51.34   0
       258    362.5357    570.1583 307.7709270  +6.4521917     12413.02     24895.43     26672.44     87.01256     173.5426     347.1887      2.097     4.79     1080.731     61.18548     1298.691        58     1.825     1.434  68.10   0
       259    164.1723    568.9181 307.8533833  +6.4460454     1376.168     2907.586     3767.475     86.87476     173.4044     347.0506      2.441     5.88     1085.482     61.18548     169.1177        22     1.527     1.185  55.85   0
       260    528.9117    565.0089 307.7019739  +6.4598921     4819.498     9351.263     9876.807     86.59853     173.2662      346.878      1.999     4.66     1076.195     61.18548     491.9006        37     1.603     1.326  77.67   0
       261    797.9161    565.1010 307.5902003  +6.4688474     5014.618     8750.717     9036.126     87.01256     174.1627     347.2231      1.872     3.95     1070.859     61.18548      578.869        33     1.517     1.167  76.74   0
       262    240.2332    566.5858 307.8218612  +6.4495628     794.4094     1581.773      2251.64     86.59853     173.3354     347.0161      2.698     6.69       1082.7     61.18548     107.6499        12     1.370     0.916  24.48   0
       263    102.1895    566.2490 307.8792251  +6.4450640     730.9443     1417.808     1325.825     86.46009     173.4044     346.7744      1.831     4.88     1085.965     61.18548     100.4596         8     1.187     0.568  20.71   0
       264    387.2834    562.2258 307.7609123  +6.4562963     1108.914     2133.778     2298.202     87.01256     173.3353     347.0506      1.958     6.15     1080.267     61.18548     172.8813        14     1.407     1.047 -78.40   0
       265    175.9210    558.1998 307.8488643  +6.4508649     5008.628     10023.23     11564.44     86.18253     172.9202     346.8434      2.124     4.71     1084.528     61.18548     548.5756        41     1.699     1.332  83.62   0
       266    573.5056    558.1066 307.6836779  +6.4642341     1868.402     3890.929      4288.52     87.01256     174.1627     347.0851      2.121     5.90     1075.048     61.18548     200.5964        28     1.548     1.318 -48.18   0
       267    814.5981    557.6530 307.5835189  +6.4724791     1229.358     2166.018     2656.005     86.32142     173.3354     346.6707      2.009     5.52     1070.187     61.18548     148.9177        16     1.263     0.927  48.07   0
       268    271.1338    554.6688 307.8094251  +6.4555198     62555.21     127613.9     137643.3     87.01256     173.6806     347.1541      2.127     4.82     1081.376     61.18548     6689.759        95     1.881     1.529  72.03   0
       269     47.5758    557.0509 307.9022260  +6.4470245     3962.793     7545.647     8091.193     86.59853     173.6116     347.0161      1.989     4.57     1086.505     61.18548     460.5034        35     1.599     1.289  66.51   0
       270    560.5364    551.9349 307.6892743  +6.4663479     739.5623     1339.907     1050.059     87.01256     173.6116     347.1196      1.931     6.36      1074.95     61.18548     108.3059        10     1.468     0.933  35.39   0
       271    255.0537    549.5720 307.8162781  +6.4570841     1022.112     2244.646     579.0272     86.73676     173.7495     347.0161      2.079     7.70      1081.36     61.18548     130.6696        16     1.530     1.084  52.97   0
       272    794.1644    546.9555 307.5923685  +6.4762133     13522.96     23504.91     24759.32     86.73676     173.5426     346.9816      1.843     4.10     1070.431     61.18548     1630.935        49     1.648     1.256  73.20   0
       273    497.8417    545.4005 307.7155437  +6.4669467        29708     62852.05     69962.67     86.32142     173.2662     346.7398      2.206     4.81     1075.752     61.18548     3084.637        88     1.934     1.625  56.62   0
       274    970.3795    548.3301 307.5191027  +6.4815240     1649.017     2573.943     2181.587     86.59853     173.4735     347.0506      1.727     4.84     1064.174     61.18548     186.1945        20     1.256     1.198  -3.83   0
       275    210.4706    541.8707 307.8350615  +6.4587664     1493.491     3145.076     4272.064     87.01256     173.7495     347.0851      2.478     6.32     1082.093     61.18548     174.4122        23     1.505     1.184  79.92   0
       276     46.4887    542.0773 307.9031843  +6.4531692     1085.006     2071.354     2162.219     87.01255     173.8874     347.1887      2.028     7.23     1086.154     61.18548     125.9158        16     1.443     1.015  25.51   0
       277    719.3341    538.0066 307.6237619  +6.4774083      846.679     1826.023     2063.825     86.46009     173.3354     346.9125      2.642     8.38     1070.942     61.18548     134.1935        11     2.317     0.846  73.58   2
       278    657.7983    540.3246 307.6492525  +6.4743945     2261.009      4162.62     5069.732     86.32142     172.9894     346.9816      2.000     4.57     1072.749     61.18548     256.9852        28     1.392     1.305  50.31   0
       279    668.2505    540.2269 307.6449129  +6.4747843     956.3962     1789.963     2064.088     86.59853     173.7495     347.0506      2.037     7.49     1072.448     61.18548     106.2084        14     1.347     1.165 -33.09   0
       280    395.9016    536.3010 307.7582057  +6.4672877     1093.072      2255.37     2619.972     87.01256     174.0251     346.9471      2.260     7.43     1078.961     61.18548     121.7202        15     1.471     1.051  39.73   0
       281    327.1672    534.4567 307.7868264  +6.4657440     2762.867     5523.757     6123.586     86.87477     173.6806     347.1196      2.107     5.10     1079.409     61.18548     310.0087        30     1.552     1.289  86.57   0
       282    142.2329    533.0519 307.8637106  +6.4601144     19336.57     37781.58      40428.2     86.87476     173.6116     347.0161      2.052     4.56     1084.169     61.18548     2259.629        63     1.809     1.427  74.08   0
       283    506.9274    533.7307 307.7121616  +6.4720686     1585.699     3372.063     3347.075     87.15012     173.7495     347.1196      2.058     5.74     1075.162     61.18548     180.6265        26     1.440     1.298  87.78   0
       284    870.0317    532.6071 307.5613263  +6.4846690     1370.757     2033.082     2195.728     86.32142     173.4735      346.878      1.591     4.57     1067.342     61.18548     197.6285        15     1.238     0.839 -87.95   0
       285    107.6004    531.5162 307.8781515  +6.4595842     1841.538     3770.301     4508.167     86.18253     173.0587     346.7398      2.252     5.20     1084.833     61.18548     207.1475        25     1.391     1.253 -83.61   0
       286    967.7340    527.3967 307.5209038  +6.4900780     4622.433     7470.759     7623.008     86.18253     173.3354      346.878      1.689     3.74     1063.368     61.18548     596.9095        30     1.487     1.055  70.69   0
       287    540.6552    519.9294 307.6986124  +6.4788954     1124.822     2195.957      1916.06     86.87477     173.5426     347.0851      2.022     4.89     1073.888     61.18548     159.1107        13     1.272     0.832 -83.08   0
       288      6.5443    517.4176 307.9206144  +6.4620051     19630.57     36758.14     39898.28     86.46009     173.5426     334.5005      1.984     4.39     1086.105     61.18548     2342.129        64     1.823     1.384  73.79  16
       289    439.1886    514.1463 307.7409670  +6.4778845     30026.93     61819.69     66783.04     86.32142     173.5426     346.8089      2.106     4.80     1076.647     61.18548     3026.478        72     1.815     1.502  74.06   0
       290    647.2209    513.7595 307.6545410  +6.4850079     9131.546     17315.65     17902.94     86.59853     173.4044     346.9125      1.991     4.46     1071.567     61.18548     976.2064        47     1.634     1.362  82.11   0
       291    286.9357    513.8208 307.8042386  +6.4729131     729.4612     1728.662     1784.969     86.59853     173.6116     346.9816      2.230     6.59     1078.686     61.18548     87.75586        10     1.389     0.877 -46.15   0
       292    204.4161    511.7411 307.8385948  +6.4710012     13641.77     28583.59     31270.93     86.46009     173.5426     346.8434      2.171     4.86     1080.584     61.18548     1487.576        64     1.903     1.474  65.54   0
       293    170.2883    512.8064 307.8527384  +6.4694149     1234.768       2387.9     2092.593     86.46009     173.2662     346.8434      1.979     6.03     1081.927     61.18548     175.0594        17     1.292     1.062  76.63   0
       294    981.3506    512.2842 307.5157523  +6.4967709     1085.678     1679.952     2221.768     87.01256     173.6116     347.2231      1.730     4.77     1062.232     61.18548     155.3284        10     0.996     0.830  61.71   0
       295    569.0370    510.5841 307.6871342  +6.4837034     1933.022     3887.947     4405.233     86.59853     173.4044     346.8434      2.122     5.21     1073.055     61.18548     212.1079        30     1.570     1.287  45.34   0
       296    909.4341    511.3015 307.5456686  +6.4947791     685.4411     1039.375     1426.249     87.01256     173.4735     347.2577      1.562     4.58     1065.016     61.18548     102.4707         7     1.375     0.433  79.37   0
       297    942.8259    507.6003 307.5319175  +6.4974205     4533.487     7246.235     7184.442     86.59853     173.2662     346.9125      1.677     3.75     1063.425     61.18548     590.1161        27     1.430     1.027  71.79   0
       298    615.9425    506.1794 307.6677926  +6.4870911     4885.835      9070.93     9490.958     86.59853     173.4735     346.9125      1.953     4.45     1071.885     61.18548     550.6759        39     1.705     1.249  72.90   0
       299    103.6409    506.7798 307.8806330  +6.4696627     778.0203     1497.491      1798.02     86.59853     173.4044      346.878      2.046     6.74     1084.034     61.18548     97.07666         9     1.584     0.804  67.40   0
       300    965.3384    499.9445 307.5228197  +6.5013316     3162.832     4992.991     5313.391     87.15012     173.6116     347.1196      1.680     4.16      1062.29     61.18548     396.9834        21     1.401     0.926  68.30   0
       301    528.0694    497.3773 307.7046013  +6.4877843     5246.288     10700.59     11507.58     86.59853     173.5426     347.0851      2.136     5.04     1073.336     61.18548      537.153        42     1.827     1.318  67.61   0
       302    405.0592    499.5121 307.7556412  +6.4827821     638.2823     1123.861     1424.671     87.01256     173.6116     347.2231      1.830     4.77     1076.677     61.18548     98.07056         5     1.047     0.615 -77.78   0
       303    373.8648    497.7891 307.7686607  +6.4824475     1722.375     3683.165     3565.436     86.46009     173.4044     346.9471      2.150     6.80     1076.645     61.18548     204.2294        25     1.493     1.243  73.55   0
       304    995.7366    495.3055 307.5103437  +6.5042598     653.7831     892.3957     564.9526     86.87477     173.7495     347.1887      1.420     4.34       1061.2     61.18548     109.2274         5     1.012     0.530  52.85   0
       305    884.7529    493.1165 307.5565346  +6.5014633     2671.237     4434.708     5343.833     87.01256     173.6116     347.1541      1.858     4.19     1065.455     61.18548     293.6956        24     1.416     1.018  66.14   0
       306    892.1343    487.4463 307.5536576  +6.5040504     1965.299     3073.113     3338.349     87.01256     173.5426     347.1196      1.685     3.97     1064.812     61.18548     256.9362        20     1.346     0.974  54.31   0
       307    931.4075    486.8093 307.5373596  +6.5056231     1193.739     1944.911     1687.782     86.46009     173.4044     346.9816      1.715     5.04     1062.501     61.18548       162.22        15     1.313     0.822  59.45   0
       308    715.8117    483.5120 307.6270571  +6.4997879     2341.503     4390.747     4240.929     86.59853     173.3353     346.9816      1.951     5.04     1068.369     61.18548     246.3116        27     1.437     1.233  61.26   0
       309    386.9418    481.7741 307.7637672  +6.4894974     2563.755       5222.3       5562.2     86.59853     173.6116     346.9471      2.088     4.92     1075.592     61.18548     288.8627        30     1.476     1.321  68.47   0
       310     77.8618    482.7628 307.8921561  +6.4787104     1395.667     2633.057      3335.42     87.01256     173.6806     347.1196      2.209     5.69     1083.924     61.18548     171.9762        19     1.361     1.150  56.53   0
       311    614.6708    478.4239 307.6692549  +6.4985069     7467.075     14483.52     15570.21     86.59853     173.4735     347.0506      2.028     4.59      1070.19     61.18548      711.674        42     1.641     1.363  80.86   0
       312    427.2827    480.7464 307.7470398  +6.4912739     658.1306     1325.474     1798.182     87.01256     173.6116     347.2232      2.699     4.22     1075.235     61.18548      101.962         7     1.446     0.351  46.27   0
       313    777.6005    474.5910 307.6016818  +6.5055349     13099.79     23962.85     26630.01     86.32142     173.2662      346.878      1.979     4.53     1067.112     61.18548      1520.92        62     2.005     1.480 -60.51   0
       314    297.1831    475.2452 307.8012829  +6.4891819     1858.602     3987.252      3819.95     86.46009     173.4735      346.878      2.199     5.91     1076.112     61.18548     203.4147        28     1.663     1.189  75.99   0
       315    380.3425    471.9684 307.7668400  +6.4933242     1138.722     2190.498     2556.362     86.87476     173.6116     347.0506      2.033     6.81      1074.78     61.18548     127.4669        19     1.441     1.087 -77.26   0
       316    962.5953    469.6705 307.5249746  +6.5137385     1816.717      2978.23     3626.408     86.46009     173.1971     346.9816      1.874     5.14     1060.947     61.18548     230.1956        22     1.552     1.036  74.89   0
       317    806.1130    471.6580 307.5899324  +6.5076978     1045.254     1765.057     1787.083     87.01256     173.6116     347.2577      1.635     4.45     1066.632     61.18548     127.2522        12     1.022     0.922  -6.46   0
       318    114.9540    466.8773 307.8772818  +6.4865154     3220.096     6465.085     6469.996     86.87477     173.6806     347.1196      2.032     4.78     1081.784     61.18548     396.9005        33     1.646     1.229  76.86   0
       319    752.9380    465.6798 307.6122293  +6.5083900     1648.137     3148.828     3103.479     87.15012     173.6806     347.0851      1.945     5.59     1066.791     61.18548     194.8788        24     1.616     1.056  76.24   0
       320   1016.5523    464.5427 307.5027250  +6.5176535     4225.874     6776.176     6745.432     87.01256     173.6116     347.2577      1.774     4.20     1059.372     61.18548     491.3513        31     1.530     1.067  44.62  16
       321    272.8606    463.9452 307.8117705  +6.4930305     1100.775     2098.352     2555.293     87.15012     173.5426     347.0851      2.171     4.38     1076.013     61.18548     128.2091        14     1.073     0.982  34.16   0
       322    350.8766    461.6424 307.7794318  +6.4965989     2257.768     4725.153     4916.341     86.87477     173.6116     347.1541      2.135     5.33     1074.246     61.18548     247.9353        28     1.442     1.344  63.32   0
       323    706.9163    459.5636 307.6315585  +6.5093774      1203.44     2429.316     3147.231     87.01255     173.6116     347.0506      2.519     7.03     1067.166     61.18548     128.8331        21     1.528     1.154  65.16   0
       324    548.1027    451.9004 307.6978085  +6.5072291     804.3605     1547.512     1832.825     87.01256     174.0939      346.947      1.993     4.69     1070.021     61.18548     111.1862         8     1.144     0.737   5.66   0
       325    470.5854    450.4375 307.7300682  +6.5052372     1098.161     1881.479      1722.61     86.59854     173.4044      346.878      1.853     5.38     1071.122     61.18548     152.8496        11     1.221     0.766  50.06   0
       326    832.7511    449.4253 307.5796098  +6.5177655     1251.639     2016.071     1792.786     86.59853     173.6116     347.0161      1.711     5.90     1064.371     61.18548      162.004        13     1.235     0.861  81.96   0
       327    818.5078    448.4956 307.5855597  +6.5176739     1648.533     2709.656     2604.894     87.01256     174.2315     347.0851      1.817     6.41     1064.679     61.18548     164.0924        21     1.428     1.053  73.06   0
       328    715.8430    446.5808 307.6282856  +6.5150354     11568.32     21650.42     23369.55     86.46009     173.4735      346.878      1.971     4.39     1066.237     61.18548     1264.142        49     1.670     1.352  73.58   0
       329    637.0262    442.6632 307.6611687  +6.5140178     1927.011     3701.003     4290.397     86.59853     173.6116     347.0506      2.091     5.35     1067.808     61.18548     206.0461        25     1.571     1.112 -89.29   0
       330    609.2760    437.7653 307.6728647  +6.5151116     10104.36     23981.85     29476.32     86.87477     173.6806     347.0851      2.557     6.83     1068.364     61.18548     1050.648        74     2.531     1.499  41.72   0
       331    941.1880    436.4915 307.5349831  +6.5267224     3552.125     5371.961     4892.347     86.73676     173.3353     346.9125      1.644     3.93     1060.047     61.18548     413.5043        22     1.351     0.948  66.53   0
       332    380.2567    432.5462 307.7682052  +6.5095958        20412     41884.26     44998.14     87.15012     173.6116     347.1196      2.122     4.88     1071.493     61.18548     2037.395        66     1.832     1.491  77.64   0
       333    126.5816    432.3561 307.8736178  +6.5011573     1661.628     3458.128     4191.167     86.46009     173.4735     346.8434      2.364     7.28     1079.652     61.18548     182.2031        23     1.480     1.202  83.58   0
       334    896.2134    431.2516 307.5538482  +6.5273858     1163.263     2453.053     3003.292     86.32142     173.5426     346.8434      2.338     7.51     1061.112     61.18548     176.5634        17     2.134     0.740  54.31   0
       335    909.8769    426.9879 307.5483134  +6.5296018     4613.261     7794.628     8286.963     86.59853     173.1971      346.947      1.812     4.11     1060.537     61.18548     562.9084        31     1.519     1.099  78.24   0
       336     59.8694    426.8106 307.9015247  +6.5012031     1017.814     2196.839     2508.712     86.46009     173.4044     346.9125      2.215     6.07     1081.937     61.18548     135.2792        11     1.230     0.841 -16.32   2
       337    237.8213    423.1520 307.8277073  +6.5086944     9290.146     19793.84     21179.21     86.59853     173.6116      346.947      2.147     5.16     1075.226     61.18548     978.6606        54     1.838     1.476  71.35   0
       338   1010.0236    415.3049 307.5070883  +6.5377633     678.2953     989.5241     848.7441     87.15012     173.3353     346.9816      1.512     4.55     1056.436     61.18548     114.3705         7     0.912     0.646  74.13   0
       339    961.0582    415.1835 307.5274405  +6.5361816     898.3215     1476.676     1343.378     86.32142     173.5426     346.8434      1.684     5.41     1058.358     61.18548     131.6066         9     1.095     0.765 -81.46   0
       340    733.4407    416.3465 307.6219892  +6.5281052     583.6039     1054.273      1777.47     86.87477     173.6116     347.1541      2.148     4.95     1064.156     61.18548      90.0105         6     0.992     0.699 -15.12   0
       341    350.7681    412.5846 307.7811319  +6.5168475     1029.433     1892.778       1979.3     86.59853     173.3354     347.0161      2.116     6.63     1070.618     61.18548     122.6228        14     1.163     1.061  -8.42   0
       342    138.2274    411.7617 307.8694752  +6.5100504     3605.734     7549.541     7776.111     86.59853     173.4044     346.9471      2.137     5.13     1078.531     61.18548     401.5315        38     1.719     1.320  76.95   0
       343    183.4373    412.7596 307.8506560  +6.5111579     720.5438     1216.097     1203.243     86.73676     173.6116     346.9816      1.814     4.84     1077.071     61.18548     95.64709         8     1.041     0.834  46.74   0
       344    243.2188    410.4820 307.8258925  +6.5141061     1080.188     2166.266     1815.378     86.59853     173.2662     347.0506      1.990     5.54     1074.205     61.18548     135.9946        14     1.210     1.076  20.09   0
       345    160.2483    407.5250 307.8604684  +6.5125396      1806.09     3791.242       4184.1     86.87477     173.6806     347.1541      2.300     6.22     1077.764     61.18548     192.8881        30     1.672     1.265 -89.63   0
       346    554.9364    406.2754 307.6965050  +6.5262933     815.1218     1502.892     1162.218     87.28748     173.6116     347.0851      1.955     4.60     1066.623     61.18548     105.9205         8     1.107     0.575  66.19   0
       347    383.5770    402.1491 307.7678508  +6.5222558     1471.088     3067.481     3226.102     86.46009     173.6116     347.0161      2.206     6.70     1068.729     61.18548     154.4204        24     1.732     1.189  87.28   0
       348    271.3382    403.3207 307.8144500  +6.5180065     630.0866     1001.726     685.0873     87.15012     173.6806     347.1196      1.845     5.35     1072.235     61.18548     93.03955         6     1.264     0.640 -53.40   0
       349    972.0780    401.7629 307.5233111  +6.5420895     834.9134     1420.965     1564.134     86.87476     173.6806     347.1196      1.918     4.80     1057.084     61.18548     106.5856         7     0.882     0.760  42.23   0
       350      2.5315    401.6796 307.9261995  +6.5096481     675.5435     988.6688     786.9666     87.15012     156.3286     281.9104      1.802     4.23      1083.36     61.18548     91.25134         6     1.078     0.473  80.49  16
       351     33.9402    396.7154 307.9133169  +6.5127544     2473.576     5122.135     5442.824     87.15012     173.6806     347.2231      2.250     5.85     1081.792     61.18548      301.614        36     1.766     1.439 -87.12   0
       352    437.4799    395.9148 307.7456623  +6.5266364      5080.67     10869.52     11700.48     86.87476     173.9563     347.2231      2.178     5.22     1067.101     61.18548     498.7471        41     1.651     1.457  76.57   0
       353    778.0129    393.1799 307.6042455  +6.5391581     10155.71     18581.91     19581.03     86.73676     173.2662     347.0161      1.916     4.32     1062.501     61.18548     1129.083        45     1.640     1.298  74.24   0
       354    770.0859    394.7658 307.6074864  +6.5382386      1628.78      2996.69     3132.769     87.01256     173.4735     347.1196      1.899     4.88     1062.692     61.18548      195.541        20     1.407     1.014  78.01   0
       355    341.1756    392.0278 307.7858115  +6.5250120      902.437     1950.494     2253.709     86.46009     173.4735      346.947      2.430     6.44     1068.847     61.18548     113.1702        12     1.125     1.036  86.79   0
       356    485.6680    379.7704 307.7261821  +6.5349158     2204.524     4317.156     4815.831     86.73676     173.6116     347.0851      2.063     5.17     1065.085     61.18548     237.9677        29     1.440     1.354  81.91   0
       357    457.8521    380.1060 307.7377296  +6.5338453     1625.137     3510.269     3532.769     86.87476     173.4735     347.3956      2.194     5.43     1065.545     61.18548     181.3893        28     1.456     1.362  77.24   0
       358    914.9889    379.9019 307.5477688  +6.5492111     707.4257     1046.005     1385.063     86.73676     173.1971      346.947      1.668     4.54     1058.008     61.18548     109.6261         7     1.116     0.525  32.70   0
       359    843.3315    376.0478 307.5776769  +6.5484116     27690.17      49374.7     52625.32     87.01255     173.5426     347.1196      1.912     4.27     1059.869     61.18548     3226.667        62     1.749     1.332  79.33   0
       360   1021.8258    388.1650 307.5030934  +6.5493609     3504.059     5104.561     5259.287     86.32142     163.6663     292.0541      1.556     3.62     1053.915     61.18548     469.5701        22     1.278     0.921  65.97  24
       361    615.3066    368.3712 307.6726940  +6.5439614     1909.003     3745.069     3528.276     87.15012     173.3354     347.0161      2.071     5.77     1064.017     61.18548     204.4044        27     1.537     1.258  68.34   0
       362     23.5905    368.6725 307.9185665  +6.5239825     929.9825     1580.235     1846.752     86.46009     173.1971     346.9471      1.870     3.41     1080.696     61.18548     149.3173        10     0.965     0.822  16.80   0
       363    699.8024    362.0844 307.6377922  +6.5493823     59116.96     114184.5     122651.6     86.32142     173.1971     346.7744      2.019     4.54     1062.015     61.18548     6231.546        90     1.785     1.491  74.31   0
       364    858.0804    364.0545 307.5719503  +6.5538551     897.7357      1826.91     2392.138     87.01256     173.6116     347.1541      2.496     7.28     1058.795     61.18548     115.8347        13     1.302     1.140  77.66   0
       365     79.2495    361.6653 307.8956760  +6.5287479     1035.478     2175.341     2138.484     86.87477     173.4735     347.0851      2.184     6.56     1078.874     61.18548     147.7252        17     1.616     1.079  72.71   0
       366    562.2915    358.8929 307.6950441  +6.5461003     1816.567     3896.509     4760.294     87.01256     174.1627     347.1196      2.417     5.72      1063.58     61.18548     190.3992        28     1.515     1.324  82.62   0
       367    941.0770    359.3385 307.5376172  +6.5585705     720.5307      1237.01     1052.104     87.28748     173.6806     347.1196      1.882     4.98     1055.902     61.18548     106.9414         8     1.026     0.801  57.04   0
       368     99.6502    357.7461 307.8873316  +6.5310519     4219.625      8893.54     9643.458     87.15012     173.6116     347.1541      2.168     5.38     1078.162     61.18548     474.6125        41     1.750     1.419  73.44   0
       369    545.6155    355.0559 307.7021032  +6.5471261     4951.183     10326.67      10813.8     86.32142     173.5426     346.8089      2.101     4.96     1063.321     61.18548     477.8907        42     1.682     1.414  87.33   0
       370    408.5203    350.2552 307.7592359  +6.5445151      17801.9     37483.02     41619.58     87.15012     173.6116     347.1541      2.184     5.08     1064.231     61.18548     1712.816        71     1.873     1.569  78.15   0
       371    274.6075    352.6103 307.8148038  +6.5390505     1798.963      4138.93     4686.099     86.46009     173.4044     346.9816      2.334     5.76     1068.184     61.18548     222.0015        31     1.559     1.403  65.28   0
       372    516.6547    349.4538 307.7143268  +6.5484691     913.9712     2015.388     1713.795     87.28748     173.5426     347.1196      2.146     8.09     1062.897     61.18548     113.5339        16     1.631     1.121 -59.99   2
       373    388.6729    348.3636 307.7675473  +6.5446306     788.1627      1694.19     2523.037     86.87477     173.6116     347.1196      2.577     6.21      1064.28     61.18548     105.0958        10     1.421     0.764 -80.47   0
       374    486.3524    345.9326 307.7270379  +6.5489079     599.6881     1401.413     1347.707     87.01255     173.5426     347.1541      1.903     4.14      1062.69     61.18548     94.13489         7     1.545     0.317  50.57   0
       375    497.6501    340.6401 307.7225214  +6.5514712     5855.816     12123.97     12760.42     87.01256     173.6116     347.0506      2.126     4.92     1062.323     61.18548     558.2607        46     1.721     1.434  73.42   0
       376    803.5397    342.6753 307.5953341  +6.5608606     669.8981     1075.736      669.006     87.28748     173.6116     347.0851      1.558     4.19     1059.719     61.18548     92.18103         5     0.994     0.504 -48.60   0
       377    766.7852    339.2446 307.6107237  +6.5610494     2399.784      4746.94       5217.4     86.32142     173.4044      346.878      2.041     5.18     1059.896     61.18548     266.2657        30     1.473     1.330  76.51   0
       378    324.5252    337.7937 307.7945608  +6.5468424     796.8479     1571.636     1926.889     86.59853     173.0587     346.9471      2.095     6.90      1065.53     61.18548     115.8193        12     1.501     0.890 -81.05   0
       379    922.1470    338.1089 307.5461964  +6.5667036     725.4915     1278.017     964.2447     86.87476     173.4044     347.2577      1.743     5.78     1055.623     61.18548     121.6993         8     1.162     0.810 -42.23   0
       380    714.7917    338.0193 307.6323722  +6.5598181       539.11     808.9329     841.7638     86.73676     173.3353     346.9471      1.796     4.68     1060.455     61.18548     71.79688         5     0.956     0.650 -58.95   0
       381    160.4562    330.9828 307.8629694  +6.5441444     794.3486     1453.245     1297.651     86.46009     173.5426     346.8434      2.051     5.49     1074.019     61.18548      101.189         9     1.317     0.646  27.10   0
       382    243.6147    325.7541 307.8285898  +6.5490967     1547.442     3442.821     4089.813     86.32142     173.4044      346.878      2.367     7.25     1068.806     61.18548     166.5377        29     1.783     1.274  86.10   0
       383    387.4668    324.7690 307.7688444  +6.5543306     4999.833     10779.81     12045.86     86.73676     173.6116     347.0851      2.176     5.12     1063.384     61.18548     492.0677        47     1.840     1.462  72.65   0
       384    740.8561    324.5644 307.6219927  +6.5662437     769.6657     1401.495     1793.188     86.87477     173.6116     347.1541      1.815     5.99     1059.203     61.18548     105.9708         9     1.367     0.739 -82.78   0
       385    755.3037    320.6235 307.6161210  +6.5683533     42716.23     78150.56     83147.01     87.15012     173.3354     346.9816      1.955     4.36      1058.74     61.18548     4590.044        76     1.749     1.439  72.23   0
       386    427.1111    320.2055 307.7525236  +6.5575436     1665.622     3530.607     4026.943     86.46009     173.2662     346.8434      2.153     5.52     1061.841     61.18548     170.5083        24     1.475     1.194  41.38   0
       387    572.0296    317.5441 307.6923895  +6.5634962     705.8359     1598.459     1769.546     86.73676     173.6806     347.0161      2.488     6.16     1060.173     61.18548     110.9119         9     1.240     0.859 -78.89   2
       388    990.0859    317.6616 307.5186475  +6.5774099     1618.612     2400.239     2157.456     87.15012     173.7495     347.1196      1.644     4.53     1050.954     61.18548     200.3439        13     1.068     0.862  66.53   0
       389    931.1334    316.8692 307.5431744  +6.5757718      2158.59     3113.188      3353.59     87.01256     173.6806     347.1196      1.548     4.16      1054.16     61.18548     273.6055        18     1.373     0.850  68.29   0
       390    464.3979    316.6891 307.7371470  +6.5602448     782.5795     1612.338     1717.097     86.32142     173.1971      346.878      2.379     6.28      1060.94     61.18548     101.4617         9     1.370     0.809 -55.26   0
       391    413.6727    316.0807 307.7582472  +6.5587959     1227.953      2664.45     2816.172     87.28748     173.8874     347.1541      2.291     7.27     1061.868     61.18548      139.765        22     1.532     1.237  82.12   0
       392    834.5140    309.9493 307.5835609  +6.5754051     973.4639     1971.786     1848.716     87.01256     173.4735     347.1887      1.956     6.67      1056.86     61.18548     125.1073        14     1.547     0.807  57.03   0
       393    444.5769    308.3071 307.7456665  +6.5630409      859.133     1299.467     1561.126     87.01256     173.4044     346.9471      1.863     6.78     1060.648     61.18548     94.44324        13     1.276     1.009  63.87   0
       394    190.1938    307.2274 307.8514150  +6.5549503     1584.461     3516.755      4460.53     86.46009     173.4044     346.9125      2.424     7.61     1071.003     61.18548     176.4192        27     1.672     1.212  72.88   0
       395    753.7426    305.1568 307.6172896  +6.5746863     4624.389     8641.291     9354.771     86.87477     173.5426     347.1196      1.965     4.98     1057.606     61.18548     520.3096        35     1.639     1.207  74.89   0
       396     87.6860    305.6733 307.8940646  +6.5521458     626.2983     1368.784     1203.285     87.15012     173.9563     347.1196      2.295     5.99     1076.997     61.18548     99.89355         7     1.809     0.559  77.38   0
       397    769.9453    303.2705 307.6106193  +6.5760063     2196.653     3819.996     4230.746     86.87477     173.5426     347.0851      1.986     4.70     1057.227     61.18548     253.5907        24     1.438     1.121  70.23   0
       398    359.9982    297.7254 307.7811718  +6.5645736     1223.835     3129.381      3533.24     86.46009     172.9894     346.9816      2.545     9.07     1063.989     61.18548     148.7472        24     1.988     1.156  -6.74   0
       399     73.3104    298.3774 307.9002852  +6.5546741     923.9866     1810.193      2134.42     87.01256     173.4044     346.9816      2.229     6.19     1077.544     61.18548     97.24792        12     1.264     0.852  56.21   0
       400   1008.2664    294.0345 307.5118839  +6.5877699     5812.884     8770.908     9260.989     86.87477     173.6806     347.1887      1.620     3.58      1048.56     61.18548     766.3038        31     1.460     1.030  70.34   0
       401    486.3041    293.9766 307.7288088  +6.5703550     1402.022     3129.566     3098.343     87.15012     173.3353     346.9816      2.247     7.58     1058.966     61.18548     143.1849        24     1.501     1.247  81.65   0
       402    249.0229    289.6904 307.8275606  +6.5641660     3849.282     8473.073      9616.62     87.01255     173.4044     346.9816      2.264     5.35     1066.857     61.18548     416.7488        40     1.709     1.419  69.67   0
       403    813.5729    288.8535 307.5929724  +6.5834150     536.1541     787.1238     1042.835     86.73676     173.7495     347.0506      1.862     5.12     1055.702     61.18548     86.21545         7     1.436     0.516  18.02   0
       404    768.9761    283.2532 307.6116949  +6.5842377     735.1166     1339.094     1945.725     86.46009     173.6116     346.9125      1.795     3.65      1056.14     61.18548     133.1578         5     0.912     0.643  31.00   0
       405    383.3862    280.2389 307.7720423  +6.5725768     1263.975     2570.583     3014.569     86.59853     173.4044     346.8089      2.200     6.18     1061.821     61.18548     158.2631        20     1.498     1.020 -89.11   0
       406    969.8230    279.8379 307.5283372  +6.5923496      1022.12     1760.227     2133.011     86.59853     173.3353     346.9125      1.789     4.92     1050.134     61.18548     131.1777        10     1.081     0.680  73.22   0
       407    153.1156    276.4424 307.8678638  +6.5664128     1269.368     2830.026     3096.385     87.01255     173.4735     347.0506      2.152     7.52     1072.397     61.18548     134.8336        23     1.553     1.150  76.83   0
       408    305.3480    277.2135 307.8045751  +6.5712076     733.9485     1375.075      1112.02     86.32142     173.5426     346.8434      1.809     5.95     1064.635     61.18548     110.4146         8     1.431     0.696 -23.48   0
       409    562.4181    271.7899 307.6979246  +6.5820631     1516.986      3147.21     2803.247     86.73676     173.2662     346.9816      2.075     6.01     1056.963     61.18548     171.6475        24     1.589     1.183  69.88   0
       410    906.1986    271.0083 307.5550762  +6.5938732     1430.949     2774.029     3134.767     86.32142     173.2662      346.878      2.192     5.49     1052.765     61.18548     199.3159        16     1.520     0.810  65.25   0
       411    726.1004    269.4020 307.6299795  +6.5885234     3878.849     7358.583     7183.316     86.46009     173.3353     346.8089      1.966     4.61      1056.49     61.18548      387.347        34     1.562     1.280  67.33   0
       412    667.0783    269.3527 307.6545106  +6.5865708     1634.088     3093.487     3333.646     87.01256     173.6806     347.0851      2.036     4.72     1057.228     61.18548     204.5096        24     1.378     1.190  75.20   0
       413    964.0276    268.8922 307.5311130  +6.5966751     686.3762     988.3296     334.2391     87.15012     173.3353     346.9816      1.351     3.53     1050.041     61.18548     121.0157         5     0.813     0.485 -62.49   0
       414    922.2698    261.4809 307.5487166  +6.5983425     1037.181     1692.692     2458.128     87.28748     173.8874     347.1541      1.806     4.06     1051.497     61.18548     149.1879        12     1.040     0.886 -20.45   0
       415    225.8475    254.6745 307.8383745  +6.5778428     1562.611      3343.34     3393.068     86.87477     173.6806     347.1196      2.116     5.95     1067.851     61.18548     193.7668        29     1.589     1.366  75.94   0
       416    868.4498    253.6308 307.5713483  +6.5997879     1328.592     2281.463     2239.136     86.59853     173.6806     347.0161      1.799     6.07     1053.361     61.18548     198.3167        18     1.425     1.009  61.26   0
       417    758.8162    253.1225 307.6169300  +6.5963372     1329.271     2458.787     2949.061     86.59853     173.2662     346.9816      1.968     5.76     1055.819     61.18548     155.6047        19     1.465     1.001  83.02   0
       418    459.9058    244.3484 307.7414524  +6.5899583      15356.7     33378.56     37218.14     86.87477     173.5426     347.3956      2.260     5.47     1056.918     61.18548     1454.256        83     2.278     1.753 -55.04   0
       419    785.5908    243.6363 307.6061210  +6.6011478     10497.52     19415.79     21456.52     86.46009     173.3354      346.878      1.990     4.32      1055.55     61.18548     1183.095        53     1.653     1.441  76.39   0
       420    147.9764    237.9585 307.8713007  +6.5821267     1700.631     3776.926     3803.025     86.59853     173.4044      346.878      2.253     6.85     1072.586     61.18548     205.1945        31     1.754     1.413  75.20   0
       421    122.7416    236.9116 307.8818231  +6.5817105     944.0853     1462.008     1353.432     87.01256     173.6116     347.2577      1.580     4.27     1073.874     61.18548     116.1272        10     1.022     0.758  -7.46   0
       422    921.9023    234.0722 307.5497891  +6.6096455     1126.204     2206.587      2686.03     86.73676     173.7495     347.0851      2.104     6.96     1049.957     61.18548     142.1406        18     1.631     0.834  65.58   0
       423    583.6059    230.4358 307.6905115  +6.5998444     3169.455     6653.604     6583.827     86.04341     173.3354      346.878      2.087     5.04     1054.536     61.18548     326.1138        36     1.615     1.399  86.00   0
       424    546.3535    230.3907 307.7059953  +6.5986160     1414.658     3003.728     3287.919     86.46009     173.4735     346.7398      2.173     5.61     1054.612     61.18548     163.9591        22     1.441     1.174  71.99   0
       425    387.9749    229.6304 307.7718427  +6.5936229     1034.955     2077.379     2163.194     86.46009     173.4735     346.9471      1.930     7.79     1059.373     61.18548     127.0972        18     1.677     1.013  89.04   0
       426    304.9008    230.5808 307.8063354  +6.5904435     687.6902     1008.573     638.2877     87.01255     173.4735      346.878      1.607     4.02      1063.81     61.18548     104.2396         5     0.770     0.606  74.66   0
       427    944.5591    227.3064 307.5405995  +6.6131942     2440.523      3714.34     3647.728     87.15012     173.5426     347.2231      1.673     3.92      1048.92     61.18548     285.6608        21     1.305     1.018  67.65   0
       428    890.6513    226.8252 307.5630209  +6.6115949     9636.866      16392.2     17259.88     86.59853     173.6116     347.0161      1.797     4.04     1050.773     61.18548     1166.759        40     1.597     1.166  68.48   0
       429    977.2327    224.5900 307.5271107  +6.6154049     9123.059     14463.89     15288.66     86.46009     173.3354     346.9471      1.704     3.83     1048.134     61.18548       1206.9        37     1.510     1.101  69.47   0
       430    688.7907    224.7481 307.6469873  +6.6057108     2171.324     4189.643     4817.212     86.46009     173.4735     346.8434      2.110     5.01     1055.213     61.18548     255.5205        27     1.520     1.197  81.28   0
       431     16.9129    223.6347 307.9262516  +6.5836308     18523.59     37744.77     40421.37     87.01256     173.4735     347.1196      2.101     4.97     1080.746     61.18548     1941.722        62     1.846     1.428  75.25   0
       432    262.7330    225.4702 307.8240323  +6.5911376     729.9642      1535.68     830.2982     87.01256     173.6806     347.1196      1.884     5.67     1066.178     61.18548     96.64819         7     1.633     0.555  56.48   0
       433    497.3715    219.5914 307.7267162  +6.6014338     1278.815     2808.433     3108.683     86.59853     173.4044     346.9125      2.207     7.23     1054.484     61.18548     132.4819        21     1.472     1.118  41.76   0
       434    829.1587    216.4615 307.5889265  +6.6138212     1649.875     2787.202     2552.284     87.01256     173.6116     347.1541      1.781     5.60     1053.269     61.18548     185.1841        17     1.416     0.924  76.27   0
       435    509.2680    215.5116 307.7219094  +6.6035166     1676.575     3459.339     4047.237     87.15012     173.8185     347.1196      2.163     6.56     1054.277     61.18548     174.9219        26     1.560     1.317  71.86   0
       436    881.2915    215.1990 307.5673013  +6.6160823     1863.843     3480.166     4355.598     86.18253     173.1279      346.878      2.100     5.34     1050.635     61.18548     283.0305        25     1.571     1.214  44.88   0
       437    740.8485    212.7882 307.6257535  +6.6123882      30294.7     58357.42     62721.89     86.32142     173.4735     346.7744      2.021     4.51     1055.026     61.18548     3284.593        70     1.777     1.424  70.47   0
       438    344.0388    212.3835 307.7906843  +6.5992690      4492.32     10944.21     12917.77     86.59853     173.4735      346.878      2.522     6.33     1060.551     61.18548     480.1189        57     2.212     1.508 -85.55   0
       439    974.5771    211.7714 307.5286444  +6.6206083     2804.773     4697.995     5022.165     86.46009     173.4044     346.9471      1.774     4.02     1047.567     61.18548      345.704        24     1.462     0.998  62.01   0
       440    452.3232    209.0468 307.7457938  +6.6042775     3281.283     7172.553      8064.25     86.87476     173.6806     347.0851      2.254     5.40     1055.775     61.18548     315.9608        40     1.719     1.452  73.70   0
       441    908.7297    209.8914 307.5560755  +6.6191888     6687.713     11180.25     12219.14     86.87477     173.7495     347.1196      1.778     3.88     1049.293     61.18548     852.5582        37     1.537     1.186  62.75   0
       442   1012.9791    210.1826 307.5127366  +6.6225441     1614.062     2410.952     2292.103     86.73676     173.4735     347.0161      1.568     3.31     1046.642     61.18548     247.3525        14     1.071     0.857  64.66   0
       443    226.9104    205.6681 307.8395888  +6.5981091     639.0166     1204.609     1391.145     87.15012     173.8185     347.0851      1.830     5.34     1068.264     61.18548     71.83411         9     1.013     0.795  52.99   0
       444    109.7079    200.4671 307.8884724  +6.5963168       3439.1     7246.333     7629.067     86.87477     173.7495     347.1541      2.121     5.45     1073.588     61.18548     370.6198        37     1.793     1.292  76.31   0
       445    280.0530    197.1218 307.8177918  +6.6034218     22725.76     49459.81     53783.69     87.15012     173.6116     347.1196      2.215     5.29     1066.259     61.18548     2282.846        74     1.904     1.565  72.84   0
       446    255.3383    198.2444 307.8280252  +6.6021286     4478.894     9670.756     10388.84     87.01256     173.5426     347.2231      2.220     5.19      1067.28     61.18548     439.5839        42     1.741     1.460  78.02   0
       447    928.9767    199.2825 307.5480163  +6.6242438     747.6352     1295.605     2057.342     86.87476     173.3353     347.0506      1.711     4.51     1047.972     61.18548     102.6987         8     0.995     0.590  65.36   0
       448    404.0733    192.5747 307.7664023  +6.6094601        32912     72523.78     79159.83     86.59853     173.4735     347.0506      2.218     5.16     1057.304     61.18548     3056.098        78     1.885     1.596  73.72   0
       449    160.1716    193.9062 307.8677223  +6.6007220     2890.501     6103.327     6376.453     87.15012     173.3353     347.0161      2.114     5.23     1071.676     61.18548     305.0149        37     1.745     1.322  78.10   0
       450    709.5755    195.9921 307.6393159  +6.6182770     609.3226     1317.421     1165.095     86.59853     173.4735     346.9471      2.388     4.66     1054.537     61.18548     73.16235         5     1.066     0.579  14.43   0
       451    421.9900    193.1309 307.7589372  +6.6098312     877.0373     1750.173     1697.152     86.46009     173.4044      346.947      1.970     4.70     1056.459     61.18548     132.6841         8     1.207     0.679 -85.86   0
       452    308.1183    190.3113 307.8063579  +6.6071755     12255.86     27022.75     29421.27     86.73676     173.8185     347.2231      2.237     5.34     1064.194     61.18548       1238.1        62     1.866     1.581  71.65   2
       453    315.5517    190.6128 307.8032584  +6.6073005     1533.657     3360.688     4634.636     86.32142     173.5426     346.8089      2.652     7.37     1063.374     61.18548     161.4858        28     1.716     1.370 -84.16   3
       454    743.3292    188.7254 307.6255314  +6.6224049     25574.55     47790.56     50504.54     87.28748     173.7495     347.1196      1.980     4.44     1054.268     61.18548     2866.494        67     1.776     1.388  67.86   0
       455    691.6689    191.2039 307.6469194  +6.6196551      682.032     1169.301     1213.309     86.32142     173.1971      346.878      1.863     4.51     1054.378     61.18548     88.54614         6     1.293     0.446  82.95   0
       456    791.6882    189.5885 307.6054031  +6.6236640     991.6339     1747.972     1434.384     86.59853     173.3354     346.9816      1.878     6.96     1053.263     61.18548     134.4691        13     1.381     0.982  53.56   0
       457     60.2678    186.1562 307.9095031  +6.6005613     6664.739     13338.01      14699.2     87.01256     173.5426     347.1541      2.114     4.70     1076.222     61.18548     725.1075        45     1.738     1.364  73.44   0
       458     94.2435    184.1629 307.8954508  +6.6025272     1159.228     1906.458     2086.161     86.73676     173.5426     346.9471      1.827     6.31     1073.668     61.18548      133.311        13     1.138     0.984  46.83   0
       459   1001.6833    182.9165 307.5183458  +6.6334240     978.9078     1515.519     1785.755     86.73676     173.8874     347.2231      1.533     4.81     1045.602     61.18548     160.6161         8     1.227     0.535  76.58   0
       460    576.1266    172.9791 307.6955548  +6.6233136     579.6224     1077.452     942.2294     86.59853     173.4735     347.0506      1.832     4.61      1053.12     61.18548     75.74622         5     1.212     0.497  20.20   0
       461   1002.6819    169.5517 307.5183790  +6.6389748     2102.262     3211.239      3509.01     87.01256     173.6116     347.1541      1.785     4.54     1044.963     61.18548     277.3137        18     1.403     0.849  59.80   0
       462    338.2469    165.3213 307.7946799  +6.6185028     755.5939     1948.408     2420.751     87.01256     173.6806     347.0851      2.613     8.50     1061.297     61.18548     103.8032        12     1.735     1.165  53.18   0
       463    278.9266    163.3629 307.8194001  +6.6173203     20784.74     45159.07     49224.65     86.87476     173.6116     347.1887      2.196     5.22     1067.329     61.18548     2068.471        64     1.850     1.519  73.74   0
       464    594.1083    165.1268 307.6883456  +6.6271571     1526.213     2908.368     3381.599     87.01256     173.7495     347.1541      1.993     7.24     1053.102     61.18548     170.3239        22     1.460     1.207  47.31   0
       465     24.2234    161.9924 307.9253007  +6.6093232     3275.131      6903.36     7980.444     86.46009     173.4044     346.9471      2.219     5.40      1077.96     61.18548     349.8473        36     1.774     1.278  68.85   0
       466    710.5166    159.8973 307.6401387  +6.6332094     6239.671     11461.93     12041.37     87.01256     174.0251     347.1887      1.954     4.47     1053.565     61.18548     705.1298        38     1.618     1.262  65.29   0
       467    121.4791    157.2199 307.8850434  +6.6145656     3530.762      7361.63     8028.832     86.59853     173.2662     347.0851      2.180     5.29     1072.061     61.18548     375.9202        41     1.812     1.356  72.41   0
       468    392.1262    153.1895 307.7726963  +6.6253184     2663.473     6053.273     6500.412     86.46009     173.1971     346.9816      2.268     6.32     1056.709     61.18548     268.6299        38     1.851     1.342  87.45   0
       469    460.4955    154.3182 307.7442426  +6.6271445     1033.144     1834.035      1782.56     86.73676     173.9563     347.2577      1.782     6.37     1053.137     61.18548     118.4331        14     1.164     0.979  -7.01   0
       470    356.4497    152.0819 307.7875615  +6.6245790     2251.754     4667.306     5418.515     87.01255     173.6116     347.1541      2.162     5.50     1059.688     61.18548     244.4685        30     1.607     1.235  67.11   0
       471    111.1113    152.1132 307.8895250  +6.6163250     1260.101     2595.856     3010.295     86.73676     174.0939     347.2577      2.072     7.95     1072.207     61.18548     137.3621        21     1.470     1.202  85.39   0
       472    939.2166    151.1752 307.5453746  +6.6444456      520.249      497.518     137.3592     86.73676     173.4735     347.0506      1.138     3.77     1045.523     61.18548     82.93652         5     1.190     0.343 -78.46   0
       473   1002.9702    146.2964 307.5190391  +6.6485850     1342.861     2036.961      2507.66     87.15012     173.3353     347.1541      1.547     3.87     1043.661     61.18548     201.4918        11     1.088     0.731  46.19   0
       474    208.3606    141.0375 307.8494823  +6.6241664     3915.609      8003.72     8323.979     86.73676     173.5426     346.9816      2.103     5.00     1069.845     61.18548     389.6788        38     1.701     1.339  69.85   0
       475     91.2377    140.9465 307.8981623  +6.6202663     1548.202     3128.975     3544.785     86.87476     173.6806     347.1196      2.067     6.69     1072.859     61.18548      169.407        23     1.594     1.146  84.49   0
       476    670.0959    139.7098 307.6576182  +6.6401919     4784.275     9295.733     10234.08     87.01256     174.0939     347.1196      2.066     4.77     1052.304     61.18548     496.3708        39     1.695     1.284  78.72   0
       477    817.7661    139.9773 307.5962311  +6.6450159     927.5463     1599.502     1943.098     86.46009     173.4044     346.8434      1.883     4.07     1049.469     61.18548     149.5897        11     1.136     0.830  28.40   0
       478    622.2969    136.8434 307.6775818  +6.6397764     6980.025     14210.25     15251.94     87.01256     173.5426     347.2921      2.114     4.93     1052.207     61.18548     674.1373        50     1.776     1.448  69.15   3
       479    625.7672    128.4444 307.6764221  +6.6433598     38880.12     77531.15      83150.7     86.59853     173.6116     346.9816      2.066     4.82      1051.79     61.18548       3963.2        80     1.831     1.492  71.55   3
       480    256.3406    138.8064 307.8296167  +6.6266991     642.1899     1170.571     943.4189     86.32142     173.4735      346.878      1.795     6.22     1068.546     61.18548     106.0778         7     1.399     0.776  14.02   0
       481     21.9801    137.3316 307.9270681  +6.6194279     721.5854     1093.738     1020.174     86.59853     173.4735     347.0161      1.497     5.42     1078.007     61.18548     105.3772         7     1.097     0.757 -38.65   0
       482    349.3720    132.9429 307.7911491  +6.6322425     2624.333     5835.007     6857.224     86.59853     173.6806     347.0161      2.348     5.34     1061.146     61.18548      271.297        38     1.643     1.471  83.58   0
       483    531.1386    131.8156 307.7156398  +6.6388007     1304.666     2554.999     2759.296     86.46009     173.5426     346.9125      1.998     6.75     1051.741     61.18548     150.8744        19     1.368     1.114  80.05   0
       484    995.1580    131.3470 307.5227876  +6.6544962     908.4098     1310.232     1626.111     87.01256     173.6806     347.1541      1.590     6.12     1043.012     61.18548     134.4047        11     1.253     0.840  73.57   0
       485    304.9175    122.2980 307.8099848  +6.6351450     2468.575     5469.783     6094.854     87.01256     174.0251     347.2231      2.263     6.11      1066.34     61.18548     251.0836        32     1.729     1.254  59.49   0
       486      2.8659    105.4635 307.9360913  +6.6319396     747163.1      1765789      1906145     87.01256     160.3387     287.4233      2.273     9.28     1079.387     61.18548     63072.86       239     2.217     1.538  86.25  28
       487    675.8239    115.1644 307.6560633  +6.6505165     1040.505     1862.733      1695.24     86.46009     173.4044      346.878      1.749     6.10     1050.701     61.18548     131.8903        12     1.166     0.898 -78.52   0
       488    704.7267    115.6076 307.6440350  +6.6512998     654.1334       1155.1     843.2415     86.59853     173.1279     346.9816      1.729     3.44     1050.613     61.18548     101.8921         5     0.738     0.464  15.27   0
       489    690.2128    112.4238 307.6501747  +6.6521290     2581.696     4803.152     4867.539     86.73676     173.4044     347.0506      1.944     4.58      1050.43     61.18548     273.4994        28     1.419     1.258  57.48   0
       490    432.0089    103.3133 307.7578025  +6.6472456     2933.826     6249.022      6920.67     86.59853     173.2662     346.9471      2.169     5.21     1053.379     61.18548     345.0869        35     1.685     1.301  62.53   0
       491     40.7181    101.5886 307.9204908  +6.6348135     602.8625     1453.541     1655.458     86.59853     173.3354     346.9471      2.285     3.57      1076.45     61.18548     105.2411         5     0.949     0.386 -47.93   2
       492    886.2391     99.5872 307.5691266  +6.6639756     1900.847     2987.626     2649.283     86.46009     173.4044      346.878      1.677     4.20     1044.788     61.18548      251.485        17     1.390     0.785  68.48   0
       493    904.3565     98.5937 307.5616292  +6.6649902     3585.726     5767.298     5940.626     86.46009     173.2662     346.7744      1.718     4.22     1044.183     61.18548     460.4156        25     1.472     0.992  62.48   0
       494    596.4676     97.2572 307.6896504  +6.6552543      1304.48      2723.78     2971.567     87.15012     173.5426     347.0851      2.254     6.68     1050.675     61.18548     167.7205        23     1.698     1.091  55.10   0
       495    395.3422     95.6253 307.7733019  +6.6491899     1385.036     2807.908     2877.949     86.59853     173.6116     346.9471      2.027     6.52     1056.819     61.18548     182.7258        21     1.329     1.223  42.78   0
       496    143.3970     92.4876 307.8781239  +6.6420247     2325.052     4458.657     4238.153     86.32142     173.1971     346.8434      1.954     4.83     1070.663     61.18548     255.1827        30     1.569     1.215 -87.33   0
       497     25.2201     90.1387 307.9273197  +6.6390184     8959.647     18363.79     20240.78     86.59853     173.6116     347.0161      2.120     5.02     1077.251     61.18548     892.6183        49     1.824     1.352  75.20   0
       498    291.9391     90.6874 307.8164466  +6.6477587     932.9688     2226.918     2762.074     87.15012     173.8185     347.1541      2.456     8.64      1068.44     61.18548     97.80457        20     1.550     1.344  29.13   0
       499    553.7437     90.4764 307.7076369  +6.6566234     554.0516     1189.872     1803.405     87.01256     173.5426     347.0851      2.238     4.97     1050.508     61.18548     99.53748         6     1.406     0.497 -25.49   0
       500    565.1849     89.1930 307.7029247  +6.6575363     566.8834     1180.981     1042.874     86.59853     173.3353     346.9471      1.955     4.99     1050.467     61.18548     81.96704         6     1.261     0.559  51.02   0
       501    945.6542     88.8322 307.5447908  +6.6703974     616.9439     840.1534     384.9097     86.87477     173.6806     347.0851      1.388     4.30     1042.287     61.18548     85.57239         5     0.982     0.537 -41.23   0
       502    759.7891     89.2045 307.6220359  +6.6640399      681.257     1023.961     1157.782     86.59853     173.3353     347.0161      1.634     4.37     1048.268     61.18548     119.7903         5     0.819     0.664  32.54   0
       503    826.7557     84.5969 307.5943553  +6.6681786     5328.845     9280.328     9648.194     86.32142     173.1971     346.7398      1.845     4.04     1046.094     61.18548     651.7084        36     1.503     1.239  67.12   0
       504    771.9263     85.1715 307.6171266  +6.6661103     2609.582     4587.052      4790.11     86.87476     173.6116     347.0851      1.890     4.37     1047.817     61.18548     353.9126        26     1.378     1.203  67.57   0
       505    415.7319     84.9892 307.7651860  +6.6542644     610.0046     1207.113     1762.663     86.46009     173.4044     346.9471      1.996     4.94      1054.54     61.18548     112.5225         5     1.432     0.482  66.04   0
       506    533.9973     83.2194 307.7160890  +6.6589580     740.3574     1423.687     2353.165     86.59853     173.1279     346.8434      2.636     6.90     1050.467     61.18548     99.94946        10     1.350     0.988  56.70   0
       507     65.6330     81.8060 307.9108055  +6.6438184      2383.93     4668.429     4837.357     86.32142     173.4044     346.9125      2.082     5.95     1073.858     61.18548     272.0568        30     1.733     1.226  74.01   0
       508     50.0421     83.0396 307.9172436  +6.6427844     702.7532     1400.914     1228.734     86.73676     173.6116     346.9816      1.967     5.37     1075.044     61.18548      113.967         7     1.338     0.609 -43.95   0
       509    426.5476     81.6252 307.7608040  +6.6560157     729.0528     1583.121     1893.336     86.59853     173.6116     347.0161      2.181     5.02     1053.982     61.18548     116.5139         7     1.152     0.691 -54.55   0
       510      7.9226     77.6171 307.9349328  +6.6436050     1967.445     4181.794     5217.657     86.46009     173.3353     344.9385      2.351     5.63      1077.71     61.18548     270.4476        29     1.661     1.223  69.62  16
       511    588.9271     78.8446 307.6934047  +6.6626031     891.1516     1698.195      1417.51     86.87477     173.6806     347.1541      1.962     5.48      1050.13     61.18548     100.9486         9     1.194     0.710  43.40   0
       512    766.6336     72.6271 307.6197482  +6.6711122     1415.579     2604.901      2731.57     86.46009     173.3354      346.878      2.018     6.86     1047.393     61.18548     150.7556        21     1.539     1.066  76.27   0
       513    407.1020     72.9420 307.7691794  +6.6589483     854.7737     1587.427     1613.995     86.73676     173.5426     347.2921      2.116     5.77     1056.025     61.18548     111.3624        10     1.143     0.932 -74.47   0
       514     80.6803     73.6527 307.9048276  +6.6476904      702.769     1333.873     982.5006     87.01256     173.6116     347.1196      1.855     4.95     1072.504     61.18548     96.23401         7     1.084     0.640 -18.93   0
       515     93.2406     66.2578 307.8998575  +6.6511657     6998.208     14013.18     15116.79     87.01256     173.6116     347.1887      2.102     4.73     1071.446     61.18548     763.3829        50     1.770     1.415  76.15   0
       516    422.4140     66.0672 307.7630469  +6.6622997     1746.961     3757.641     4416.465     86.46009     173.4735     347.0506      2.246     5.31     1054.793     61.18548     201.5798        28     1.530     1.279  69.52   0
       517    635.9524     58.1761 307.6745541  +6.6727090     13613.94     26605.59     28443.42     86.59853     173.6116     346.9816      2.046     4.74     1049.103     61.18548     1482.803        55     1.762     1.382  70.18   0
       518    259.7755     59.9598 307.8308530  +6.6593634     1019.761     2269.885     3532.283     86.59853     173.4044      346.878      3.405     7.84     1069.038     61.18548     138.5844        17     1.617     1.064 -20.20   0
       519    535.7597     54.2400 307.7163330  +6.6709803     3757.999     7723.646     8141.705     86.73676     173.7495     346.9816      2.113     5.01     1049.837     61.18548      401.832        39     1.675     1.358  76.61   0
       520    254.0451     54.5823 307.8334165  +6.6613908     1295.662     2747.504     4191.843     86.59853     173.4735     346.8434      3.088     6.35     1069.096     61.18548     172.6749        24     1.558     1.189  62.23   1
       521      3.1378     52.7779 307.9377628  +6.6536976     901.0551     1953.954     2295.972     86.59853     163.3733     291.6026      2.224     6.32     1076.323     61.18548     149.1995        15     1.451     1.110  73.32  24
       522    441.3254     49.9744 307.7557292  +6.6695772     15905.72     33508.87     36239.46     86.59853     173.4044     347.0851      2.148     5.00     1053.948     61.18548     1499.178        63     1.839     1.497  67.30   0
       523    261.8647     50.2951 307.8303112  +6.6634232     6504.593     13896.79     16104.92     86.87477     173.7495     347.1541      2.269     5.08     1069.014     61.18548     633.6514        54     1.844     1.505  78.79   0
       524    622.1683     48.6095 307.6806057  +6.6761972     2628.844     5314.693     6883.837     86.46009     173.3353     346.9471      2.417     6.63      1048.97     61.18548     273.9354        37     2.192     1.089  69.48   0
       525    918.9125     49.8920 307.5572136  +6.6855812     1741.617     2715.184     2537.806     87.01256     174.0939     347.2231      1.675     4.49     1041.597     61.18548     241.4667        20     1.472     0.880  75.87   0
       526     27.1461     50.1653 307.9278729  +6.6555844      1775.66     3508.725     3837.623     86.87476     173.6116     347.1196      2.104     5.81     1074.738     61.18548     183.7374        23     1.389     1.168  71.27   0
       527    249.8294     46.8704 307.8354293  +6.6644328     2284.492     4932.299     6226.705     86.87476     173.6116     347.0506      2.418     5.40     1069.131     61.18548     265.8497        32     1.548     1.404  63.74   0
       528    302.3799     45.3442 307.8136384  +6.6668274     713.5521     1386.193     1611.536     86.46009     173.6116     346.9125      2.162     6.64     1067.487     61.18548      108.809         7     1.505     0.823 -70.00   0
       529    939.7196     40.1055 307.5488930  +6.6903153     1006.074      1502.13     1111.241     86.73676     173.8874     347.1887      1.538     5.47     1040.007     61.18548     139.4149        12     1.183     0.850  37.82   0
       530    691.0568     39.5138 307.6522770  +6.6822562     1527.011      2635.05     2809.807     87.01256     173.6116     347.2921      1.811     5.13     1047.905     61.18548     177.5919        20     1.416     0.966  57.88   0
       531    203.1499     35.6233 307.8552115  +6.6675074     548.0274     982.4818     723.3288     86.59853     173.6806     347.0161      1.784     5.17      1069.38     61.18548     85.41785         5     1.008     0.750 -70.72   0
       532    179.4506     32.4837 307.8651682  +6.6680069     7920.864     16185.46     17113.24     87.01256     173.5426     347.2231      2.090     5.13     1069.354     61.18548     810.7137        48     1.768     1.408  77.41   0
       533    523.5846     30.7983 307.7221837  +6.6802497     2260.543     4437.387     4588.242     86.59853     173.1971     346.9125      1.985     5.08     1049.722     61.18548     259.2911        31     1.564     1.301  57.58   0
       534    924.9431     29.9063 307.5553777  +6.6940331     3915.477     5927.909     5594.969     86.87477     173.6116     347.3267      1.597     3.73     1040.666     61.18548     493.9246        23     1.308     1.035  66.39   0
       535    725.6837     28.6666 307.6382483  +6.6878918     1661.899     3007.711     2651.715     87.28748     173.8874     347.1887      1.930     5.50     1046.675     61.18548     206.9427        20     1.472     1.010  83.03   0
       536    461.6357     28.7211 307.7480038  +6.6790317     1238.497     2982.979     3392.435     86.87477     173.6806     347.1196      2.232     7.66     1052.647     61.18548     170.1168        21     1.492     1.251  79.17   0
       537    974.1564   1022.0034 307.5016599  +6.2860975      663.488     940.6634     1101.351     86.32142     161.5297     289.1686      1.451     2.96     1087.697     61.18548     126.2655         6     0.881     0.463  51.89  16
       538    546.0599   1014.1620 307.6797334  +6.2750410     4417.814     6821.574     7505.527     87.01256     173.6806     347.1541      1.669     3.55     1094.395     61.18548     579.0629        28     1.427     1.015  73.19   1
       539    516.5953   1015.1964 307.6919364  +6.2736280     1237.865     1646.295     1940.323     86.32142     173.1279     346.9471      1.441     3.84     1094.854     61.18548     182.9106        11     1.088     0.683  67.16   0
       540    750.5820   1013.4622 307.5948092  +6.2821662     8682.467     12176.95     12156.27     86.59854     173.5426     346.9471      1.559     3.40     1092.307     61.18548     1252.272        36     1.395     1.069  66.97   0
       541    296.3815   1012.8381 307.7834781  +6.2672234        14601     22981.53     25332.44     86.59853     173.4735     346.8434      1.717     3.68     1096.592     61.18548     1846.472        54     1.597     1.431 -73.94   0
       542    505.0133     15.1807 307.7304296  +6.6860749      838.239     1619.479     2051.888     86.73676     173.3353     347.0161      2.248     4.50     1050.156     61.18548       111.48         8     1.077     0.533  51.67   0
       543    811.7195   1013.3265 307.5694201  +6.2842632     1055.093     1260.603     1562.465     87.28748     173.8874     347.1887      1.273     3.40     1091.466     61.18548     190.0259         8     1.058     0.495  70.71   0
       544    421.0194   1013.2781 307.7316972  +6.2712196     958.2515     1447.552     1392.812     86.59853     173.2662     347.0851      1.474     3.93     1096.246     61.18548      162.272         8     0.992     0.571  72.63   0
       545    267.8083   1010.2796 307.7954316  +6.2673211      925.644     1739.947     1863.085     86.59853     173.1971     346.9471      1.932     5.68     1096.376     61.18548     133.4486        12     1.476     0.698  68.97   0
       546    911.9758   1006.9324 307.5279923  +6.2902470     9877.309     13722.51     13716.69     86.59853     173.4735     347.0506      1.447     3.58     1087.444     61.18548     1426.681        30     1.350     0.915  69.85   0
       547    629.8520   1008.5045 307.6451210  +6.2801791      511.918     488.8606     427.1343     86.87477     173.5426     347.3956      1.247     4.74      1093.71     61.18548     91.08606         6     0.907     0.703 -87.71   0
       548    543.3061   1006.3130 307.6811412  +6.2781892     8639.025     13101.25     14177.78     87.01256     174.0939     347.1887      1.651     3.46     1094.378     61.18548     1109.642        36     1.457     1.072  67.70   0
       549    885.5305   1003.1114 307.5391047  +6.2909427      13433.4     19818.67     20706.06     87.01255     173.8874     347.0851      1.581     3.39      1087.71     61.18548      1886.97        44     1.466     1.117  67.64   0
       550    598.4267   1003.6310 307.6583373  +6.2811403     1467.725      2592.52     2562.629     86.46009     173.3354     346.9471      1.905     5.02     1094.344     61.18548     200.1055        22     1.613     0.914  86.28   0
       551   1007.2207   1002.4966 307.4885796  +6.2952522     5733.514     7889.208     7797.544     86.87477     173.4044     346.9125      1.505     3.64     1086.324     61.18548     809.1498        22     1.332     0.805  68.82   0
       552    529.9077   1002.3474 307.6868396  +6.2793780     4132.673     6444.583     7865.838     86.87477     173.4735     347.3611      1.819     3.64     1094.547     61.18548     570.8816        33     1.687     1.156  38.39   0
       553    639.2964   1001.6445 307.6414288  +6.2833269     1393.824     2055.703     2119.047     87.01256     173.5426     347.2921      1.589     3.86     1093.132     61.18548     221.1232        11     1.136     0.657  79.10   0
       554     64.8039   1001.1878 307.8800505  +6.2642568     943.5331      1407.75     1591.723     86.59853     173.2662     346.9816      1.577     4.88     1095.782     61.18548     140.9316         9     1.028     0.657  71.08   0
       555    482.7857    998.8135 307.7065304  +6.2792596     2296.273     3545.591     3632.461     86.87476     173.2662     347.0506      1.622     3.99     1095.196     61.18548       299.79        21     1.346     0.975  84.80   0
       556    794.4241    999.2158 307.5770773  +6.2895114     576.6764     652.6235     658.6821     86.73676     173.4044     347.0506      1.302     3.41     1091.276     61.18548     85.27246         5     0.736     0.457  70.93   0
       557    917.3109    990.6486 307.5263221  +6.2971475     48933.04     69063.09     72262.08     87.01256     173.4735     347.2231      1.530     3.40     1086.472     61.18548     6651.093        62     1.494     1.084  73.09   0
