#   1 NUMBER                 Running object number                                     
#   2 X_IMAGE                Object position along x                                    [pixel]
#   3 Y_IMAGE                Object position along y                                    [pixel]
#   4 ALPHA_J2000            Right ascension of barycenter (J2000)                      [deg]
#   5 DELTA_J2000            Declination of barycenter (J2000)                          [deg]
#   6 FLUX_APER              Flux vector within fixed circular aperture(s)              [count]
#   9 FLUXERR_APER           RMS error vector for aperture flux(es)                     [count]
#  12 FLUX_RADIUS            Fraction-of-light radii                                    [pixel]
#  13 FWHM_IMAGE             FWHM assuming a gaussian core                              [pixel]
#  14 BACKGROUND             Background at centroid position                            [count]
#  15 THRESHOLD              Detection threshold above background                       [count]
#  16 FLUX_MAX               Peak flux above background                                 [count]
#  17 ISOAREA_IMAGE          Isophotal area above Analysis threshold                    [pixel**2]
#  18 A_IMAGE                Profile RMS along major axis                               [pixel]
#  19 B_IMAGE                Profile RMS along minor axis                               [pixel]
#  20 THETA_IMAGE            Position angle (CCW/x)                                     [deg]
#  21 FLAGS                  Extraction flags                                          
         1    987.3765     18.6518 307.5285130  +6.6978054     1915.553     3207.439     2937.767     77.45895     155.5373     310.8891      1.750     4.80     815.7353     54.81561     274.2084        24     1.646     0.977 -29.45   0
         2    706.7985     15.1300 307.6452043  +6.6898764     7328.534     11283.31     11561.07     77.45895      155.104     310.8272      1.635     3.98     820.3928     54.81561     894.8506        34     1.560     0.969 -27.89   0
         3    626.9576     14.3811 307.6784007  +6.6875105     3786.097     5756.464     5989.088     77.45895     155.3517     310.7654      1.635     4.17     822.1465     54.81561     487.4993        27     1.498     0.952 -33.08   0
         4    329.1922     13.9152 307.8021252  +6.6777066     978.0542     1540.517     2262.287     77.58298     155.2279     310.8272      1.757     5.93     832.1303     54.81561     123.4802        12     1.254     0.790 -41.77   0
         5    427.2922     10.5354 307.7614831  +6.6823988     6225.087     9671.806      10425.1      77.9539     155.7227     311.0128      1.720     4.14     825.5681     54.81561      780.993        32     1.525     1.025 -30.56   0
         6     28.1273     10.1169 307.9273269  +6.6691364     8280.532     13382.51     23196.89      78.2002     155.8461     311.0128      2.837     4.03     831.5677     54.81561     6593.711        38     1.546     1.092 -26.33  16
         7    503.2784      7.6189 307.7300121  +6.6861543      747.077     1125.017     1258.239     77.45895     155.2279      307.687      1.410     4.57     822.5302     54.81561     129.8607         9     1.400     0.425 -33.17  16
         8    323.7332      5.4926 307.8046767  +6.6810006     12730.11     20298.86     21542.06     77.83045     155.7227     290.0238      1.740     4.08     832.3487     54.81561     1499.311        42     1.601     1.083 -27.82  16
         9     97.5283      5.6235 307.8986473  +6.6733315      2543.51     3944.381     4650.509     77.58298     155.4136     291.4789      1.737     4.05     832.3585     54.81561     332.7828        24     1.506     0.919 -20.80  16
        10    418.5224      5.9937 307.7652793  +6.6839794     864.5497     1200.542       1626.8     77.58298      155.042     294.8896      1.486     5.40     826.0049     54.81561     122.7404        10     1.058     0.777 -23.13  16
        11    792.4374      4.4829 307.6099806  +6.6971395     757.4354      1380.92     1797.904      77.9539     155.4755     278.7653      2.380     3.94     819.0631     54.81561     103.4604         8     0.907     0.701 -43.68  16
        12     88.6596      4.5088 307.9023693  +6.6734928     1484.419     2307.757     2907.981     77.83045     155.5373     279.0755      1.851     4.24     832.1738     54.81561     217.2495        16     1.351     0.885 -21.84  16
        13    458.7126      3.8077 307.7486556  +6.6862318     669.7524     937.4518     1230.481     77.58298      152.036     270.2893      1.684     3.57     823.7241     54.81561     108.3801         6     0.876     0.668  17.31  16
        14    390.1014      3.3358 307.7771764  +6.6841220     2322.798      3673.13     3508.656      77.9539     148.3874     264.0634      1.669     4.47      828.212     54.81561     261.4645        20     1.324     0.925 -35.08  24
        15    675.1034      9.1073 307.6585747  +6.6913015     833.4429     1399.787     1755.756      77.9539     156.0311      310.951      1.688     4.17      820.814     54.81561     115.3075         9     0.901     0.833 -33.34   0
        16    650.0020      1.2244 307.6692682  +6.6937153     1256.253     1753.449     1784.883     66.07044     121.6067     232.0041      1.373     4.26      821.243     54.81561     324.6644        10     1.651     0.392   5.13  24
        17    596.0396    995.8099 307.6583123  +6.2812356       1263.1     2193.489     2055.152     77.33471     155.3517     310.7344      1.818     5.24     856.3771     54.81561     177.1048        18     1.487     0.893 -33.33   0
        18    954.9855   1020.9649 307.5084568  +6.2828537     5818.949        10654     11267.09     77.58298     153.5464       273.05      1.903     4.46     851.0466     54.81561     660.7678        41     1.663     1.245 -29.55  24
        19    713.5964   1019.4523 307.6087178  +6.2754097     2175.753     4673.866     6013.908     77.33472     155.3517     290.2889      2.546     7.71     856.0137     54.81561      362.207        38     2.644     0.989 -29.72  24
        20    527.2705    994.6572 307.6868994  +6.2794067     3882.624     6246.783     7102.953     78.07714     155.5373      310.951      1.809     4.30     856.6801     54.81561     554.4948        28     1.504     1.035 -18.66   0
        21    636.9545    994.0451 307.6413861  +6.2833349     1374.528     2124.702     2277.071      77.9539     155.5373     310.9819      1.626     5.25     855.9641     54.81561     194.0792        16     1.408     0.759 -34.60   0
        22    792.8352    992.4752 307.5767256  +6.2891997      582.067     977.8744     1037.617     77.83045     155.5991     310.9819      1.500     3.58     853.1507     54.81561     88.48053         5     1.020     0.362  85.04   0
        23     62.1035    992.9379 307.8800575  +6.2644858     977.4101     1161.052     1696.672     77.70682     155.5991     311.0437      1.358     4.47     854.4285     54.81561     164.8112        12     1.085     0.834 -24.05   0
        24    480.3547    991.1912 307.7064921  +6.2792646     2204.255     3525.258      3259.25     77.45895     155.4136     310.6725      1.667     4.10     856.6397     54.81561     287.6562        22     1.414     0.941 -22.41   0
        25    914.7995    983.2842 307.5263992  +6.2970708     39420.34      68503.3     73518.62     77.21028      155.042     310.6725      1.846     4.08       851.42     54.81561     4881.632        74     1.722     1.335 -28.46   0
        26    516.1577    985.6322 307.6918156  +6.2827606     419.3251     749.8919     1039.889     77.45895     155.5373     310.8272      1.730     2.99     856.5589     54.81561     98.05078         5     0.752     0.428 -21.13   0
        27    221.9264    981.5300 307.8140973  +6.2745746     1634.613     2747.755     3384.268     78.07714     155.6609     311.0128      1.876     5.39     856.4786     54.81561     211.8378        16     1.451     0.766 -36.69   0
        28    621.0577    979.6707 307.6484673  +6.2887378     772.6965     1323.574     1134.107     78.07714     155.5373     310.9819      1.800     4.83     855.8146     54.81561      132.837        10     1.183     0.729  -2.46   0
        29    110.2944    980.2839 307.8604795  +6.2713332     638.9059     954.7365     893.9945     77.83045     155.9078     311.1055      1.575     4.10     854.4044     54.81561     96.28491         6     0.925     0.520 -47.02   0
        30    760.9973    974.9419 307.5905300  +6.2953746      6287.05     10499.41     11721.27     77.33471     155.3517     310.7344      1.792     4.10     854.0858     54.81561     796.9708        40     1.642     1.225 -38.56   0
        31    812.8214    976.9281 307.5689485  +6.2962876     2172.465     3402.631     4188.181     77.58298     155.4136      310.951      1.801     3.87      852.413     54.81561     275.7979        22     1.321     1.043 -20.17   0
        32    194.9104    973.3616 307.8255871  +6.2770387     870.9976     1553.395     1111.731      77.9539     155.4755     311.0128      1.755     6.71     855.4777     54.81561     115.3094        15     1.497     0.844 -49.83   0
        33    230.4783    973.7202 307.8108101  +6.2780868     1562.454     2177.509     2231.971      78.2002     155.7844     311.1364      1.577     4.53     856.2887     54.81561      199.184        16     1.399     0.740 -24.71   0
        34    949.1923    970.0233 307.5125639  +6.3036950     6117.808     10736.58     11421.42     77.45895     155.3517     310.8272      1.861     4.13     850.0912     54.81561     733.5688        39     1.613     1.187 -33.79   0
        35     55.4245    971.8575 307.8835406  +6.2729648     2735.653     4309.707     4433.904     77.58298     155.5373     310.8272      1.703     3.73     854.1595     54.81561     385.6116        22     1.416     0.883 -31.41   0
        36    548.0902    974.1053 307.6789459  +6.2885907     881.9438     1619.579      1553.46      77.9539     156.0311     310.9819      1.708     3.99     856.2281     54.81561     126.7299        10     1.116     0.620 -30.13   0
        37    631.5573    963.6710 307.6446448  +6.2956959     599.1245      921.171     592.9147     77.83045     155.5373     311.0128      1.469     3.35     855.3494     54.81561     108.9092         5     0.996     0.327 -66.55   0
        38    922.6611    961.8213 307.5238528  +6.3061958     1028.313     1923.754     2407.174     77.58298     155.5373       310.92      1.350     4.83     850.6002     54.81561     246.5712        21     1.520     0.996  -5.16   0
        39    643.7010    957.5197 307.6398095  +6.2986425     4620.188     7283.584     6747.023     77.83045     155.9078     311.0437      1.694     3.91     855.0976     54.81561     569.2609        33     1.565     1.051 -33.20   0
        40    782.6623    957.9318 307.5821050  +6.3031230     1393.914     2098.566     1759.649      77.9539     155.4755     311.0128      1.641     5.55     852.9644     54.81561     165.0009        16     1.335     0.917 -33.26   0
        41    255.8553    957.6964 307.8008146  +6.2855562     4331.929      6957.44     6751.168     77.83045     155.4755     311.1673      1.684     4.04     855.8038     54.81561     566.3978        28     1.524     0.950 -26.82   0
        42    992.8499    957.5632 307.4948550  +6.3102973     623.1432     994.4321     1465.998     77.70681     155.4755     310.8582      1.784     4.21     848.4475     54.81561     90.42993         5     0.943     0.537 -48.82   0
        43    466.1587    956.0380 307.7135656  +6.2933034     1192.331     1787.373     1356.569     77.70682     155.5991     310.8582      1.577     4.58     856.4755     54.81561     149.8265        14     1.254     0.754 -10.75   0
        44     24.6745    955.2088 307.8968667  +6.2788031     2223.113     3422.528     3562.826     77.58298      155.104     310.8272      1.657     4.09     853.9234     54.81561      304.144        20     1.349     0.867 -35.40   0
        45    875.3925    954.1593 307.5437331  +6.3077805     841.8575     1469.224     1415.641     77.33471     155.2898     310.6725      1.809     6.07     851.0167     54.81561     124.7541        12     1.126     0.920  15.14   0
        46    291.9898    951.1870 307.7860330  +6.2894584     914.9845     1430.375     1604.582     77.70681     155.2898       310.92      1.611     5.81     855.7286     54.81561     138.3059        12     1.403     0.678 -26.98   0
        47    568.1818    950.0959 307.6714104  +6.2991778     1620.996     2646.753     3044.408     77.83045     155.3517     310.7654      1.829     4.17     855.5727     54.81561     253.1648        19     1.382     0.864 -23.12   0
        48    999.7744    949.8845 307.4922367  +6.3136991     747.6898     1131.335     1307.918     78.07714     155.2898     310.8582      1.759     2.90     848.2712     54.81561      144.314         6     0.869     0.464 -56.80   0
        49     57.1755    947.2437 307.8836435  +6.2831866     672.7407     1034.932     1308.805     77.45895     155.4755     310.8582      1.470     5.01     853.8643     54.81561     119.3973         8     1.370     0.517 -33.38   0
        50    607.5123    946.3506 307.6552078  +6.3020422     1285.094     2018.101     1578.571      77.9539     155.3517     311.0437      1.698     5.63     855.1838     54.81561     185.7647        16     1.501     0.776 -33.13   0
        51    287.7884    944.0312 307.7880178  +6.2922718     1397.348     2266.574     2620.648     77.45895     155.2898     310.8582      1.723     4.55     855.4889     54.81561     207.7996        14     1.326     0.731 -35.06   0
        52    754.4351    940.2061 307.5944172  +6.3094980     865.8648     1220.664     1057.458     77.21028     155.2898     310.7654      1.541     5.76     853.6552     54.81561     98.09839        12     1.266     0.737 -16.25   0
        53    891.8557    936.8807 307.5374759  +6.3154652     6736.839     11116.85     11668.38     78.07714     155.5373     311.0128      1.760     4.25     850.3076     54.81561      833.532        32     1.564     1.045 -27.44   0
        54    427.7376    933.9538 307.7302576  +6.3011328     2096.736     2830.585     2631.227     77.83045     155.4136     311.0437      1.472     3.62     856.1844     54.81561     308.8869        19     1.340     0.864 -26.21   0
        55    329.4173    932.3245 307.7711297  +6.2985043     9759.819     14981.11     16106.07     77.45895     155.2898       310.92      1.688     4.03      855.744     54.81561     1362.986        38     1.532     1.045 -25.61   0
        56    249.5496    931.2300 307.8043228  +6.2962722     7082.188     10985.97     12010.25     77.58298     155.6609     310.8891      1.682     3.90     854.8696     54.81561     969.4791        33     1.497     1.007 -32.45   0
        57    762.2466    925.6690 307.5916609  +6.3157619     674.5007      975.776     1145.492      77.9539     155.4755     310.9819      1.544     5.11     853.1185     54.81561     116.5323         8     1.266     0.584 -41.17   0
        58    577.7255    925.9146 307.6682593  +6.3094824     1065.323     1616.207     1449.028     78.07714     155.8461     311.0128      1.597     5.81     854.9966     54.81561     156.3556        12     1.432     0.664 -32.47   0
        59    907.5104    922.2245 307.5314665  +6.3220399     1036.631     1892.819      2155.43     78.07714     155.3517     310.8272      2.337     6.00     849.6108     54.81561     150.2218        12     1.364     0.743 -48.36   0
        60    864.3363    921.0280 307.5494314  +6.3210915     781.8531     1265.121     1463.595     77.58298     155.5373       310.92      2.027     5.35     850.6122     54.81561     97.51495        10     1.113     0.725   3.50   0
        61    211.9753    921.2178 307.8202583  +6.2991427     514.1224     808.6769     786.3655     77.70681     155.4136       310.92      1.630     3.74     854.5909     54.81561     79.47498         5     0.816     0.492 -54.07   0
        62    140.4660    921.5424 307.8499335  +6.2966028     563.4177     773.7169      298.663     78.07714     155.4755     311.0128      1.384     3.98     854.0737     54.81561     99.26508         5     0.994     0.456 -13.18   0
        63    406.4170    919.9509 307.7395793  +6.3061991     522.6185      579.042     1202.549     77.45895     155.5991     310.7344      1.362     4.66     855.8688     54.81561     84.24823         5     1.039     0.592 -18.23   0
        64    837.3558    915.6179 307.5608140  +6.3224237     634.6006     740.5844     667.1013     77.58298     155.4136     310.7344      1.470     5.21     851.0115     54.81561     103.6271         6     1.110     0.690   3.00   0
        65    744.1008    915.0884 307.5995488  +6.3195236     1559.324     2331.094     2757.833      77.9539     155.9695      310.951      1.496     4.40     853.5316     54.81561     203.3366        14     1.257     0.826 -21.30   0
        66    567.5444    915.5347 307.6728343  +6.3134271     671.8586      1265.35     1297.624     78.07714     155.4136     310.9819      1.697     4.40     854.9108     54.81561     112.7418         8     1.263     0.437 -35.66   0
        67    975.3163    910.9810 307.5036906  +6.3289468     1175.758     1965.231     2366.042     77.58298     155.2279      310.951      1.875     5.44     847.9879     54.81561     150.9172        14     1.180     0.884 -65.08   0
        68    608.1536    911.6781 307.6561041  +6.3163803     843.0021     1164.754     836.8043     77.83045     155.5991     310.9819      1.526     5.00     854.5925     54.81561     109.6658        10     1.204     0.636 -32.16   0
        69    529.3422    910.6204 307.6888593  +6.3141757     974.9538     1695.996     1906.685     77.58298     155.4136     310.7963      1.842     5.24      855.206     54.81561     152.4919        10     1.324     0.586 -31.44   0
        70    662.5131    908.3718 307.6336466  +6.3195662     2529.314      3760.06     3922.668     78.07714     155.2898     310.8582      1.615     4.03     854.1386     54.81561     368.0213        21     1.470     0.807 -32.26   0
        71    952.8992    906.4131 307.5131504  +6.3300845     651.5649     1149.843     931.7883     77.70681     155.2898     310.7344      1.857     3.83     848.3027     54.81561     118.4421         6     0.925     0.786 -70.19   0
        72    823.4312    905.0997 307.5669470  +6.3263013     812.7504     1526.066     1987.048      77.9539     155.2898     311.1364      2.427     7.19      851.076     54.81561     98.92609        12     1.603     0.905 -72.03   0
        73     59.0547    904.4017 307.8843077  +6.3009391     2914.034     4481.422     4669.411     77.33471     155.2898     310.6416      1.644     4.01     852.5063     54.81561      392.671        20     1.276     0.935 -27.05   0
        74    940.7633    903.5056 307.5182862  +6.3308799      776.045     1389.347     1270.236     78.07714     155.4136     311.0746      1.934     5.49      848.533     54.81561     101.0437        12     1.342     0.734 -58.92   0
        75    202.7897    903.2427 307.8246767  +6.3062556     2271.866     3662.065     3620.088     77.45895     155.3517     310.7344      1.692     4.06     854.4283     54.81561     312.5715        21     1.395     0.891 -25.81   0
        76     76.6281    903.6920 307.8770364  +6.3018240     1997.948      3056.85     3208.642     78.07714     155.2898     310.8582      1.632     4.38     852.6783     54.81561     267.8716        17     1.391     0.780 -24.59   0
        77    657.1859    897.4844 307.6362232  +6.3238833     6760.182     10430.63     11176.74     77.58298     155.2898     310.8272      1.694     4.23     854.1057     54.81561     944.3255        33     1.552     0.988 -25.57   0
        78    341.3083    899.5833 307.7672939  +6.3124226      916.004     1443.204     1775.966     77.70682     155.3517     310.8891      1.575     4.43     855.3588     54.81561     135.1815        10     1.109     0.658 -41.83   0
        79    234.6671    900.0480 307.8115505  +6.3086468      437.639     869.6986     797.6331      77.9539     155.4755     311.0128      1.938     3.83      854.705     54.81561     90.93536         5     1.480     0.285  50.77   2
        80    237.4547    899.2926 307.8104187  +6.3090524     724.5411     937.2922     1145.828     77.83045     155.4755     311.1364      1.444     3.91     854.7163     54.81561     119.7127         6     0.727     0.681 -77.17   2
        81    794.6909    898.2433 307.5791089  +6.3281715     611.5981     786.0065     275.1324      77.9539     155.4755     311.0746      1.631     5.89     851.5334     54.81561     86.06586         9     1.332     0.733 -12.51   0
        82     17.0164    895.5542 307.9020576  +6.3031759     1046.277      1676.69     1716.175     77.45895     155.4136     310.7654      1.632     4.67     851.6108     54.81561     165.0479        11     1.146     0.729 -25.54   0
        83    894.8752    893.8519 307.5376610  +6.3333334     2643.258     4321.514     3956.853      77.9539     155.5991     310.9819      1.756     4.05     849.4687     54.81561     345.3255        25     1.428     1.033 -26.48   0
        84    446.8275    894.6602 307.7236521  +6.3179980     484.2928     537.7921     652.1982     77.58298     155.5991     310.8891      1.338     4.83     855.3107     54.81561     86.41785         6     1.543     0.428 -32.70   0
        85     30.1854    894.3683 307.8966307  +6.3041093     1059.113     1819.333     1772.472     77.58298     155.2898       310.92      1.998     5.08     851.6612     54.81561     154.3352        12     1.404     0.614 -22.69   0
        86    340.1749    890.5648 307.7680677  +6.3161083     16380.33     25485.97     26618.25     77.45895     155.3517     310.7344      1.661     3.92     855.1884     54.81561     2388.604        46     1.600     1.061 -25.14   0
        87     74.6118    891.3868 307.8782882  +6.3068368     1338.202     2057.575     2098.146     77.83045     155.2279       310.92      1.656     3.92     852.1445     54.81561     201.6255        13     1.170     0.780 -28.63   0
        88    211.2110    889.9697 307.8216275  +6.3120193      1254.81     2003.244     1938.203     77.45895     155.3517     310.8272      1.638     4.42     854.4512     54.81561     201.7589        15     1.477     0.722 -32.54   0
        89    390.9069    889.6931 307.7470351  +6.3181720     661.6318      925.113     452.4292      77.9539     156.0311      310.951      1.517     4.05     855.1461     54.81561     136.8386         6     1.121     0.417 -31.71   0
        90    418.3089    881.5013 307.7359340  +6.3224743     986.3948     1436.852     1046.079      77.9539     155.9695      310.951      1.472     4.44     854.8993     54.81561     166.8226        10     1.318     0.572 -22.77   0
        91    103.3882    881.2457 307.8666837  +6.3119930     1696.686     2616.736     2779.225     77.45895     155.3517     310.7035      1.657     4.08     852.2855     54.81561     252.2657        18     1.365     0.844 -18.53   0
        92    671.7206    877.3008 307.6308651  +6.3327041      815.786     1128.787     1196.685     77.70682     155.8461     311.0128      1.731     4.68     853.9067     54.81561     139.6962         8     1.336     0.466 -40.44   0
        93    498.7000    877.8939 307.7026793  +6.3266612     745.3557     1061.423     1543.819      77.9539     156.0311     310.8272      1.610     4.48     854.7299     54.81561     135.3837         6     1.147     0.498 -40.03   0
        94    885.2214    875.4897 307.5422831  +6.3405929     1891.533     2990.241     2837.713      77.9539     155.3517     310.8582      1.655     4.47     849.4138     54.81561     249.9711        20     1.424     0.902 -22.81   0
        95    855.9821    875.0078 307.5544392  +6.3398148     1890.102     3189.652      2993.47     77.58298     155.2898     310.8272      1.759     4.50     850.0511     54.81561     229.9431        21     1.407     0.992 -33.93   0
        96     87.0988    874.6948 307.8736669  +6.3141494     2529.704     3826.892     4098.714      77.9539     156.0311     310.8272      1.619     3.64     851.7589     54.81561     333.3646        23     1.266     1.066 -21.63   0
        97    819.2693    874.3422 307.5697042  +6.3388624     3042.488     4751.544     4993.538     78.07714     155.4755      310.951      1.722     4.03     850.6287     54.81561      397.944        21     1.353     0.926 -30.30   0
        98    555.2303    865.8181 307.6796146  +6.3335428     332932.1     513791.2     540582.7     77.58298     155.3517     310.8891      1.650     4.15     854.1256     54.81561     47663.24       191     1.756     1.324 -29.20   0
        99    335.0798    872.6636 307.7707848  +6.3233286     741.1583     1295.099     2066.972      78.2002     155.5991     310.9819      2.220     6.24     854.8738     54.81561     105.2479        10     1.426     0.767 -34.12   0
       100    399.4778    868.4072 307.7441921  +6.3272488     7699.455     11740.38     12338.09     77.58298      155.042     310.7963      1.671     4.17     854.5902     54.81561     1036.091        34     1.544     0.984 -30.63   0
       101    643.3735    868.6177 307.6429254  +6.3353402     1109.881      1863.43     1909.176     77.58298     155.3517     310.8891      1.829     4.20     853.9512     54.81561     158.9174        13     1.214     0.786 -31.44   0
       102    342.7662    866.7537 307.7677924  +6.3260270     12626.16     19547.21     21105.91     77.58298     155.5373       310.92      1.680     4.05     854.7379     54.81561     1636.958        42     1.632     1.018 -27.63   0
       103    893.3552    862.0260 307.5393563  +6.3464240     4834.662      8109.28     9161.769     77.45895     155.5991     310.8582      1.858     4.23     848.9675     54.81561     652.0193        34     1.733     1.037 -19.25   0
       104    661.0786    863.1125 307.6357590  +6.3382063     3468.658     5292.707     5429.673     77.70682     155.8461     311.1055      1.627     4.21     853.7801     54.81561     416.6899        24     1.465     0.890 -22.69   0
       105    733.3906    859.2950 307.6058639  +6.3422031     710.2997     1108.343     954.7827     77.58298      155.166     310.7654      1.426     3.81      852.765     54.81561     107.0627         6     0.920     0.453   3.72   0
       106    636.0812    857.0442 307.6463410  +6.3398748     3408.568     5097.512     4907.093      77.9539     155.5373      310.951      1.569     3.93     853.6025     54.81561     450.7141        23     1.418     0.885 -31.70   0
       107    824.4799    856.1634 307.5681491  +6.3465429     1561.416     2423.281     2677.086     77.83045     155.5991     310.9819      1.684     3.90     850.1981     54.81561     216.1514        15     1.216     0.808 -32.72   0
       108    951.6771    854.8220 307.5153819  +6.3513466     778.6022       1091.1     1211.723     77.58298     155.3517       310.92      1.451     5.48     847.0135     54.81561     106.3488        11     1.125     0.754 -54.61   0
       109    626.4535    855.9099 307.6503763  +6.3400207     1007.876     1428.497     2083.677      77.9539     155.3517     311.1055      1.556     3.88     853.6003     54.81561     158.3749        12     1.216     0.732 -36.11   3
       110    628.9741    851.4360 307.6494798  +6.3419524      2123.77     3214.997     3140.012     77.58298     155.3517     310.7654      1.631     4.95     853.3861     54.81561     294.5201        17     1.509     0.735 -32.13   3
       111    179.2810    856.2798 307.8360177  +6.3248557       520.85     617.8287     600.1926     78.07714     155.7844     311.1364      1.536     4.19     853.4079     54.81561     99.20197         5     0.949     0.528 -35.03   0
       112    912.9065    850.1121 307.5316369  +6.3519966     3071.914     5646.382     6109.953      77.9539     155.9695     311.0437      1.959     7.79     848.1493     54.81561     932.6927        26     1.546     1.099  -0.78   0
       113    322.8614    850.4152 307.7766056  +6.3321045      1120.71     1753.152     1731.979     77.45895     155.4755     310.7963      1.694     5.44      854.707     54.81561     133.1924        13     1.213     0.817 -31.83   0
       114    370.6915    845.6935 307.7569067  +6.3356608     2833.035      4200.81     4253.748      77.9539     156.0311     310.9819      1.631     4.38     854.4457     54.81561     387.9114        19     1.394     0.804 -32.31   0
       115    851.8036    834.5075 307.5575289  +6.3563984     1039.826     1719.134     2024.488     77.58298     155.2279     310.7654      1.925     4.86     849.0388     54.81561     155.5139        11     1.274     0.726 -56.90   0
       116    506.9342    835.3898 307.7006875  +6.3444875     3077.463     4563.023     4704.188     77.45895     155.3517     310.8582      1.591     4.07     853.4468     54.81561     422.0374        21     1.441     0.834 -29.50   0
       117    572.1122    833.3465 307.6736949  +6.3475165     699.7731     1053.523     956.3551      77.9539     155.4136     311.1055      1.605     4.89     852.8425     54.81561     103.3243         7     1.150     0.588 -29.25   0
       118    560.3779    831.2588 307.6786369  +6.3479852     1290.558     2220.711     2153.049     77.58298     155.4755     310.8272      1.809     4.88     852.7763     54.81561      182.282        16     1.436     0.805 -37.68   0
       119    553.6836    831.5847 307.6814054  +6.3476263     6413.066         9557     10037.79     77.58298     155.2279     310.8891      1.651     3.95     852.8208     54.81561     812.2611        29     1.456     0.947 -28.81   0
       120    471.6331    830.6768 307.7155022  +6.3452495     1462.942     2193.064      2314.39     77.83045     155.5373      310.951      1.632     4.55     853.7614     54.81561     215.0499        16     1.408     0.739 -38.04   0
       121    265.3774    831.7662 307.8010987  +6.3378729     687.9585     1047.372     680.6893     77.45895     155.3517     310.7344      1.694     5.87     854.3669     54.81561     112.1717         9     1.700     0.571 -27.00   0
       122    889.3400    829.6725 307.5421053  +6.3596492     1413.293     2116.251     2345.615     78.07714     155.5373     311.0128      1.784     4.45     848.0744     54.81561     195.5078        17     1.392     0.845 -25.91   0
       123    688.9872    829.0965 307.6253116  +6.3531863     690.4031     1075.301     819.3485     77.83045     155.2898     310.7344      1.643     5.43     852.0313     54.81561     131.7075         9     1.323     0.628 -51.16   0
       124    113.3896    829.6064 307.8642718  +6.3336513     1425.357     2208.087     2171.549     77.45895     155.3517     310.8891      1.657     4.72     851.2006     54.81561     209.0691        17     1.491     0.769 -18.64   0
       125    524.3427    825.4996 307.6937916  +6.3491551     19957.32     30235.77     31673.85     77.70682     155.5373     311.1982      1.679     4.11      852.885     54.81561     2896.002        50     1.616     1.049 -25.40   0
       126    365.9989    826.9237 307.7594859  +6.3432533     685.7879     958.6882     1151.919     77.21028     154.9799     310.8272      1.613     5.42     854.3164     54.81561     107.6459         9     1.242     0.667 -40.98   0
       127    170.7459    825.3840 307.8406017  +6.3373253     620.4596     856.2501      287.735     77.33471     155.5373     310.7035      1.533     4.35     852.4392     54.81561     105.4752         6     1.197     0.451 -47.52   0
       128    938.0519    823.7607 307.5220774  +6.3637174     3604.722     5733.502     6032.049     77.83045     155.5373     310.9819      1.677     4.08     846.8605     54.81561     459.6411        28     1.533     0.986 -32.76   0
       129    410.1236    821.4996 307.7413483  +6.3469745     458.3506     749.1757     415.8358     77.45895     155.6609     310.9819      1.563     5.03     854.0811     54.81561     85.83636         5     1.233     0.581 -50.90   0
       130     58.0393    821.2802 307.8875318  +6.3352252     563.3837     984.9484     1045.753     77.83045     155.5991      310.951      1.791     5.29      850.284     54.81561     90.57013         7     1.202     0.658 -12.08   0
       131     34.7156    815.9564 307.8973944  +6.3366376     1565.784     2666.393     3028.005      77.9539     155.4755      310.951      1.879     4.57     850.0995     54.81561     195.6935        17     1.416     0.796 -30.58   0
       132    317.0191    814.2283 307.7802482  +6.3468499     3289.197     5099.707     5375.631     77.58298     155.3517       310.92      1.639     4.25     854.5104     54.81561     427.2799        26     1.547     0.918 -29.91   0
       133    782.4958    810.0944 307.5871229  +6.3641616      55139.5     84087.18     88494.53      77.9539     156.1543     310.8891      1.675     3.95     850.2444     54.81561     7353.019        73     1.653     1.136 -25.31   0
       134     16.8512    812.2202 307.9049370  +6.3375782     2208.709     3323.698     3466.524     77.45895     155.5991     310.7963      1.637     4.08     850.0164     54.81561     275.4913        20     1.359     0.878 -33.55   0
       135    721.1864    811.9214 307.6125178  +6.3613559     598.1846     1021.503     912.2968     77.58298     155.2898     310.7963      1.512     3.88      851.183     54.81561     94.42981         5     0.865     0.499 -28.69   0
       136    239.2067    786.4364 307.8134898  +6.3557096     755467.5      1756530      1956574     77.21028     155.2898     310.7344      2.304    14.92     852.5297     54.81561     63611.95       645     2.687     2.303 -71.83   4
       137    425.8164    808.8867 307.7352567  +6.3527092     873.4899     1294.924      1230.16     77.58298     155.2898     310.8891      1.447     5.75     853.8346     54.81561     136.1985        10     1.493     0.623 -30.58   0
       138    710.8227    804.6335 307.6170651  +6.3640183      21211.2     33127.61     35320.08     77.45895     155.3517     310.7654      1.674     4.03     850.9413     54.81561     2911.318        48     1.632     1.056 -25.79   3
       139    704.4761    801.1910 307.6198156  +6.3652274     88664.72     135243.5     142995.6     77.58298      155.042     310.7963      1.680     4.10      850.791     54.81561     12241.87        94     1.714     1.155 -27.44   3
       140    907.7466    805.3443 307.5352762  +6.3703097     8549.122     13068.83     14009.22     78.07714     155.5373      310.951      1.670     4.07     846.9974     54.81561     1055.621        35     1.521     1.015 -27.30   0
       141    349.3614    802.0033 307.7672313  +6.3529842     20345.64     31674.47     33381.17     77.08565     155.3517     310.7344      1.651     3.99     854.2148     54.81561     2683.131        48     1.608     1.049 -28.03   0
       142    398.7225    802.1439 307.7467324  +6.3545839     1395.217     2168.095     2184.029      77.9539     155.5373      310.951      1.583     4.92     853.9608     54.81561     189.7543        13     1.286     0.715 -38.51   0
       143    411.2642    799.8570 307.7416020  +6.3559492     22246.24     33739.26      35185.5     78.07714     155.4755     311.0128      1.629     4.19     853.8448     54.81561     3045.018        49     1.593     1.031 -26.73   0
       144    638.2837    801.2969 307.6472955  +6.3629672     771.2327     1218.748     1139.812      77.9539     155.9078     311.0437      1.798     5.37     851.2513     54.81561     126.2758         8     1.357     0.600 -26.02   0
       145    948.1688    798.8853 307.5187081  +6.3743268     1959.495     3084.075     2780.351      77.9539     155.3517     310.8582      1.691     4.86     846.0695     54.81561     255.9352        20     1.492     0.901 -31.63   0
       146    904.7277    796.7353 307.5368175  +6.3737636     6673.902     10270.39     10603.68      77.9539     155.5373     311.0128      1.653     3.88     846.8661     54.81561     837.3909        33     1.519     0.987 -25.78   0
       147    877.7386    797.4780 307.5479991  +6.3725552     726.3248      1130.95     1132.467     78.07714     155.5991      310.951      1.628     3.52     847.2823     54.81561      120.397         7     0.962     0.659  -7.69   0
       148    645.2450    795.7584 307.6445908  +6.3654873     6398.772     10052.42     10622.54     77.83045     155.5373     310.8272      1.695     4.29     850.9254     54.81561     952.5424        30     1.530     0.957 -26.78   0
       149    434.1538    793.5524 307.7323102  +6.3593207     1828.805     2456.871     2257.746      77.9539     155.4136     311.0128      1.506     4.08     853.3333     54.81561     276.0057        15     1.319     0.684 -28.96   0
       150    598.2583    787.7626 307.6643681  +6.3672148     861.3773     1420.971     2059.702      77.9539     155.5991     311.0128      1.822     5.35     850.8269     54.81561     147.5063         9     1.613     0.605 -30.15   0
       151    873.8616    787.4912 307.5499429  +6.3765494      605.346     933.9724     1230.142      77.9539     155.6609     311.0746      1.631     5.52     847.1887     54.81561     74.80157         7     1.054     0.816 -36.68   0
       152    680.5446    785.8120 307.6302675  +6.3707764     2464.255       3935.6     4096.734     77.33471     155.4755     310.6725      1.732     4.19     850.2388     54.81561     366.2751        21     1.433     0.915 -22.36   0
       153    414.1443    782.5374 307.7409882  +6.3631972     54048.88     82621.88     86644.94     78.07714     155.5373     310.9819      1.661     4.07     853.0233     54.81561     7830.264        77     1.691     1.119 -27.75   0
       154    149.6355    786.2319 307.8506850  +6.3527806     927.2619     1378.736     1557.335     77.58298     155.2898     310.7344      1.687     5.31     850.9874     54.81561     146.0475        12     1.257     0.787 -35.43   0
       155    124.7969    786.1932 307.8609988  +6.3519605         1135     1688.901     2168.691     77.33471     155.2279     310.8582      1.550     5.57     850.5249     54.81561     159.0123        12     1.243     0.704 -13.55   0
       156    956.9190    784.7396 307.5155476  +6.3804600     644.5361     963.9086     1263.974     78.07714     155.5373      310.951      1.327     4.26     845.6923     54.81561     125.6017         7     1.281     0.404 -26.99   0
       157    531.9578    781.5419 307.6921052  +6.3675610     7101.345     10821.28     11371.44     77.83045     155.5373     311.0437      1.652     4.04     850.8533     54.81561     1023.413        33     1.502     0.980 -28.53   0
       158    448.9726    780.1205 307.7266087  +6.3653641     4449.489     6800.072     7722.314     77.83045     155.4755     310.9819      1.657     4.41     852.5885     54.81561      609.771        28     1.886     0.858 -24.10   0
       159    777.1161    778.2316 307.5904234  +6.3771383     11694.46     17886.78     18726.15      77.9539     155.3517     310.8582      1.634     4.15      849.236     54.81561     1560.085        35     1.496     1.008 -27.94   0
       160    671.7582    777.1630 307.6342056  +6.3740535     575.6406     932.4145      436.484     77.70682     155.5373     310.8582      1.542     5.73     849.9037     54.81561     82.35565         6     1.113     0.831 -23.20   0
       161    445.1959    773.5352 307.7283980  +6.3679565     2345.674     3314.025     3708.979     77.21028     155.2279     310.7654      1.530     3.75     852.3749     54.81561     332.3584        19     1.288     0.857 -28.71   0
       162      6.8972    773.7641 307.9103669  +6.3531209      1122.96     1839.061     2707.911      77.9539     155.4136     302.8363      1.892     4.98      850.153     54.81561     207.8427        11     1.429     0.641 -41.17  16
       163    798.8505    772.2808 307.5815981  +6.3803224     1310.064     1874.464     2261.326      77.9539     155.5991     310.9819      1.538     3.86     848.6308     54.81561     181.9763        14     1.234     0.732 -35.41   0
       164    134.8736    770.0505 307.8573591  +6.3589650     11285.35     17822.54     19797.09      77.9539     155.5991     311.0128      1.701     4.08     850.3736     54.81561     1455.256        43     1.603     1.083 -25.47   1
       165    143.0190    770.2816 307.8539695  +6.3591438     2972.524     4598.535     5082.266     77.58298     155.2279       310.92      1.663     4.04     850.4733     54.81561     396.5447        23     1.450     0.902 -32.92   0
       166    971.9888    766.8300 307.5098887  +6.3883583     1526.755     2296.938     2553.201     77.45895     155.3517     310.8272      1.583     4.18     845.2162     54.81561     185.9997        18     1.289     0.985 -23.63   0
       167    922.6257    766.7531 307.5303884  +6.3867417      6357.51     9973.639     10179.93     77.58298     155.5991     310.8582      1.696     4.19     846.0907     54.81561     813.9851        32     1.544     0.994 -25.34   0
       168    127.0471    767.3922 307.8606981  +6.3597991     2871.726      4576.83     5700.616     77.45895     155.4136     310.6106      1.729     3.88     850.2199     54.81561     372.0873        19     1.320     0.858 -33.26   0
       169    678.2422    764.2643 307.6319456  +6.3795966      1761.89     2698.468     3211.958      77.9539     155.4755     311.0128      1.680     4.75     849.3997     54.81561      226.913        16     1.256     0.804 -18.58   0
       170    564.9868    763.6088 307.6789931  +6.3760730     2470.385     3643.845     3769.203     77.70681     155.2898     310.8891      1.559     4.23      849.382     54.81561     423.1155        19     1.351     0.850 -26.57   0
       171    412.9529    763.2288 307.7421317  +6.3711298     1186.329     1920.266     2381.628     77.58298     155.5991     310.8891      1.906     4.81     852.0761     54.81561     155.1237        16     1.391     0.820 -23.38   0
       172    127.2733    760.9468 307.8608214  +6.3624680     1963.098     3125.293     3844.741     77.83045     155.5373     310.9819      1.786     4.53     850.1119     54.81561     276.5574        21     1.529     0.878 -30.82   0
       173    977.0081    758.1198 307.5080957  +6.3921225     1724.359     2921.856     2888.764     77.58298      155.166     310.8272      1.769     4.51     845.0579     54.81561     257.4161        23     1.552     0.958 -29.91   0
       174    916.9453    758.8441 307.5330115  +6.3898177     2951.328      4613.01     4664.961      77.9539     155.5373     310.9819      1.686     3.84     846.0554     54.81561     430.8608        24     1.493     0.875 -26.27   0
       175    669.0693    758.0661 307.6359621  +6.3818488     1581.202     2359.232     2440.341      77.9539     155.5991     310.9819      1.573     4.46     849.1623     54.81561     230.7717        18     1.370     0.940 -48.92   0
       176    946.3090    758.2762 307.5208378  +6.3910329     2991.934     4845.449     5299.751      77.9539     155.7844     310.9819      1.776     4.14     845.5654     54.81561     376.3734        24     1.410     0.996 -21.24   0
       177    816.8355    756.3299 307.5746642  +6.3875102     984.7766     1405.353     1316.834     77.83045     155.5373     311.0437      1.544     4.51     847.6814     54.81561     150.1157        10     1.146     0.727 -36.20   0
       178    891.5010    754.2861 307.5437292  +6.3908497      714.047     1239.344     1388.834      77.9539     155.9695     311.0437      1.945     5.30      846.382     54.81561     97.16254        10     1.208     0.656 -37.61   0
       179    241.8182    752.8348 307.8135365  +6.3696715     1836.792     3157.543     3847.121     77.45895     155.3517     310.7654      1.906     3.95     851.2494     54.81561      280.471        20     1.464     0.820 -31.72   0
       180    934.8871    748.1981 307.5259174  +6.3948129     895.0894     1379.944     1164.132     77.21028      155.166     310.7035      1.664     5.73     845.5897     54.81561     137.8464        11     1.197     0.771 -26.39   0
       181    908.4009    747.6101 307.5369350  +6.3941710     1216.138     1878.488     1856.181     77.45895     155.2279     310.7963      1.701     4.70     846.0226     54.81561     172.5167        13     1.284     0.717 -34.39   0
       182    262.2851    747.9602 307.8052028  +6.3723724     800.4268     1107.132     1246.552      77.9539     155.4755      310.951      1.599     4.81     851.3105     54.81561     116.8539         7     1.238     0.530 -25.38   0
       183    157.4495    747.6899 307.8487393  +6.3689574     829.3818     1227.285     930.9668      77.9539     155.3517     311.1364      1.659     6.62     850.0025     54.81561     119.0276        11     1.437     0.856 -40.82   0
       184    961.3672    746.1371 307.5149908  +6.3965482     2405.166     3667.454     4212.322     77.70681     155.5991      310.951      1.699     4.59     845.1925     54.81561     328.4517        21     1.359     1.011 -10.16   0
       185    680.9811    745.0959 307.6314508  +6.3876032     876.6406     1562.982     2416.189     77.83045     155.4136     310.7654      2.485     4.50     848.6729     54.81561     131.2384         9     1.253     0.603 -35.73   0
       186   1003.1652    739.4626 307.4978576  +6.4006995     1591.651     2586.581     2748.864     77.83045     155.5991      310.951      1.739     4.59     844.5834     54.81561     226.7568        20     1.450     0.989 -24.45   0
       187    629.1743    739.4125 307.6531529  +6.3882149     749.3832     1476.637     1634.735     77.58298     155.3517       310.92      2.164     6.30      848.054     54.81561     95.87085        10     1.310     0.852 -59.02   0
       188    472.4806    740.4460 307.7181806  +6.3825348     604.1876     892.9373     665.2726      77.9539     155.5373     310.9819      1.584     3.92     850.9479     54.81561     103.3625         5     1.086     0.405 -73.14   0
       189    401.1632    740.5205 307.7477900  +6.3801104     458.7636     701.0456     788.7938     77.83045     155.5991     310.9819      1.897     4.79     851.0339     54.81561     98.19568         6     1.288     0.506 -40.96   0
       190    804.5120    737.8170 307.5804009  +6.3947423     1226.474     1843.958     2107.011     77.70682     155.2898     310.8582      1.682     4.84     847.1959     54.81561     184.5575        11     1.201     0.697 -30.83   0
       191    890.6061    735.2377 307.5447379  +6.3986853     1381.608     2118.797     2173.743     77.08565     155.2898     310.7344      1.593     3.85     846.0952     54.81561     242.3808        17     1.277     0.909 -31.48   0
       192    865.3160    730.2050 307.5554077  +6.3999182      951.353     1282.361     1855.637     77.45895      155.166     310.6725      1.695     3.84     846.4281     54.81561     168.8864        11     1.182     0.590 -24.26   0
       193    847.6523    726.5563 307.5628644  +6.4008344     1586.976     2318.787     2153.279      77.9539     155.5373     311.0128      1.586     3.71     846.5124     54.81561     226.5844        16     1.203     0.863 -25.60   0
       194     46.4909    725.5315 307.8955553  +6.3743700     2366.178      3517.62     3612.812      77.9539     155.6609     310.9819      1.630     4.59     849.8597     54.81561     334.7416        18     1.470     0.778 -36.96   0
       195    111.0165    725.9721 307.8687498  +6.3763615     714.2494       1473.7     2249.032     77.58298     155.2898     310.8891      2.771     4.75     849.5154     54.81561     101.7737         7     1.059     0.627 -74.40   2
       196    459.0158    724.4926 307.7243072  +6.3886703     629.5933     822.6602     684.7674     77.70681     155.3517     310.8272      1.606     4.20     850.1677     54.81561     81.60168         6     0.924     0.544 -69.72   0
       197    564.6360    720.0709 307.6805996  +6.3940385     565.6436     917.6744     692.0237     77.83045     155.5373     311.0128      1.608     3.48     847.4305     54.81561     95.59564         5     0.804     0.434 -72.19   0
       198    659.3170    714.1146 307.6414849  +6.3996703     6228.943     9353.365     9322.287     77.70681     155.7227     311.0746      1.609     4.12     847.6133     54.81561     855.1927        31     1.533     0.951 -24.58   0
       199    606.3361    713.3830 307.6635089  +6.3981975     1278.535     2343.611     2733.791     77.45895     155.4755     310.8272      1.994     5.06     847.2964     54.81561     184.6202        15     1.433     0.925 -24.31   0
       200    528.2106    713.9138 307.6959311  +6.3953595     665.9249     1069.294     740.9635     77.58298     155.2898     310.8272      1.461     3.91      847.937     54.81561     108.1625         6     0.912     0.479 -58.51   0
       201    517.0811    713.6924 307.7005598  +6.3950777     901.4623     1410.922     1218.515     77.70681     155.7844     311.0437      1.586     3.81     848.3391     54.81561     152.2772         9     1.080     0.609 -40.41   0
       202    633.3137    709.8286 307.6524261  +6.4005691     2073.078     3182.748     3279.493     78.07714     155.2279     310.8582      1.598     4.37     847.3668     54.81561     343.2305        21     1.411     0.887 -29.45   0
       203    309.0261    710.2905 307.7870631  +6.3894974     633.9633      1032.77     1235.022     78.07714     155.2898     310.8272      1.796     5.52     850.0507     54.81561     87.97308         9     1.362     0.631 -36.57   0
       204    122.3157    709.7493 307.8646052  +6.3834403     3734.015     5787.465     5963.483      77.9539     155.4755     311.0746      1.663     3.97     849.2584     54.81561     516.8635        27     1.496     0.924 -24.00   0
       205    996.3162    709.3603 307.5017074  +6.4129007     2343.852     3844.647     3943.642      77.9539     155.4755       310.92      1.753     4.39     844.0182     54.81561     271.7322        23     1.477     0.945 -14.90   0
       206    244.9486    709.2637 307.8137035  +6.3877673     653.2488     1089.714     1365.478      77.9539     155.4755      310.951      1.813     4.43     849.8158     54.81561     98.19928         7     1.316     0.424 -45.08   0
       207    776.1183    706.2347 307.5932485  +6.4068335     20057.17     30702.42     32672.52      77.9539     155.5373      310.951      1.646     4.13     846.7499     54.81561     2686.813        47     1.578     1.051 -28.19   0
       208    906.1353    705.9324 307.5392696  +6.4113047     3572.411     5689.388     5939.314      77.9539     155.5373     311.0128      1.674     4.16     845.4171     54.81561     510.9995        27     1.506     0.967 -31.39   0
       209    475.1801    706.4037 307.7182030  +6.3966817     1371.203     2100.601     1577.871     77.58298      155.166     310.7963      1.584     4.90      849.241     54.81561     190.3685        14     1.379     0.656 -35.32   0
       210    503.9428    705.8760 307.7062777  +6.3978645     951.6616     1435.963     1303.906      77.9539     155.4755       310.92      1.526     4.40     848.4951     54.81561     130.6414        11     1.190     0.673  -8.71   0
       211    320.9611    706.2480 307.7822434  +6.3915676     655.2347     941.2396     1003.479     77.83045     155.5991     310.8272      1.453     3.84     849.8835     54.81561     128.4396         8     1.056     0.596   8.00   0
       212    277.5146    706.1066 307.8002879  +6.3901658     586.9998     476.4748      20.2208     77.83045     155.9695     311.0746      1.251     4.30      849.901     54.81561     93.44263         6     1.096     0.480 -33.88   0
       213    656.6382    698.9705 307.6431050  +6.4058338     6993.461      10864.9     11186.46     77.58298     155.2898     310.8582      1.650     4.06     847.2015     54.81561     958.7776        33     1.533     0.990 -26.37   0
       214    638.9896    699.9675 307.6503999  +6.4048310     958.5713     1668.886     2367.459     77.45895     155.2898     310.8272      2.147     4.29     847.1603     54.81561     150.9904        12     1.165     0.769 -41.45   0
       215    249.6237    699.7100 307.8120839  +6.3918692     6105.388     9220.684      10028.8      77.9539     155.3517     310.8272      1.665     4.06     849.5781     54.81561     788.5221        30     1.543     0.924 -26.66   0
       216    351.7726    698.7921 307.7697006  +6.3956814     665.7855     881.9411     332.6936     77.58298     155.3517     310.7963      1.413     4.47     849.5781     54.81561     114.3266         7     1.029     0.748 -24.46   0
       217    916.6035    691.5919 307.5354022  +6.4175759     1207.897     1901.427      1434.97     77.33472     155.2279     310.8582      1.624     4.69     845.0789     54.81561     200.8369        14     1.423     0.642 -27.14   0
       218    728.3229    687.5247 307.6137220  +6.4129599     3568.656     5783.198     6341.264      78.2002     155.7844     311.0437      1.785     4.43     846.9386     54.81561      446.626        28     1.562     0.967 -34.56   0
       219    683.7379    688.0167 307.6322192  +6.4112642     1034.005     1804.195      2200.82     77.45895     155.4755     310.7963      1.738     4.77     846.9386     54.81561     180.7116        14     1.367     0.797 -28.19   0
       220    994.7137    684.0790 307.5032176  +6.4232864     8616.048     13686.58     13619.05     77.83045     155.8461     311.0746      1.704     4.07     843.4618     54.81561     1095.615        38     1.603     1.044 -24.82   0
       221    933.2409    684.5323 307.5287295  +6.4210466     2441.782     3702.544      3536.46     77.83045     155.4755     311.0437      1.578     4.13     844.7673     54.81561     373.6473        18     1.387     0.766 -31.72   0
       222     13.7425    683.6898 307.9105638  +6.3905425     1907.764     3277.862      4030.52     77.83045     155.4755     311.1055      1.942     5.18     849.5403     54.81561     253.0219        19     1.528     0.880 -15.87   0
       223     72.0525    678.7614 307.8865194  +6.3945423     24964.17     39552.69     41946.04     77.70681     155.5991     310.9819      1.671     4.10     849.0464     54.81561     3408.053        55     1.625     1.118 -27.01   0
       224    547.6403    682.3083 307.6889241  +6.4090612     654.3523      1031.68     987.9121      77.9539     155.4755     311.0437      1.417     4.27     846.7023     54.81561     88.50867         7     1.154     0.450 -27.12   0
       225    533.3998    679.7095 307.6949246  +6.4096568     2118.883      3055.79     3065.858     77.21028      155.042     310.7344      1.560     4.21     846.8962     54.81561     289.9929        15     1.291     0.727 -29.08   0
       226    502.1229    677.0720 307.7080005  +6.4096968      1326.26     1995.045      1820.93      78.2002     155.7844     310.9819      1.561     4.54     847.3737     54.81561     207.4437        12     1.340     0.630 -27.27   0
       227    923.0116    676.1161 307.5332587  +6.4241802     1191.479     1805.433     1755.445     77.58298     155.2898     310.8272      1.585     5.42     844.7996     54.81561       175.73        13     1.337     0.670 -31.37   0
       228    542.3316    673.4654 307.6914253  +6.4125345     1075.681     1821.673     1887.355      77.9539     155.5991     311.0128      1.880     4.33     846.5773     54.81561     149.4853        14     1.189     0.877  -9.85   0
       229    718.0902    671.0159 307.6185242  +6.4194341     3462.881     5307.604     5522.328     77.70682     155.3517     310.8272      1.646     4.08     846.4367     54.81561     455.4717        25     1.405     0.967 -30.09   0
       230    740.0383    669.3316 307.6094667  +6.4208641     3998.005     6291.431     6189.657     77.83045     155.5373     311.0746      1.649     4.14     846.3207     54.81561     590.8007        30     1.617     0.956 -26.47   0
       231    407.8161    667.9692 307.7474660  +6.4102905     1113.874     1977.878     2442.034     77.58298     155.2898       310.92      1.902     5.93     847.5077     54.81561     148.4468        13     1.368     0.724 -38.00   0
       232    571.5557    667.2682 307.6794982  +6.4160731     3232.129     5075.775     5012.367      77.9539     155.4755     311.0128      1.689     4.23     846.4292     54.81561     471.2506        24     1.537     0.878 -26.25   0
       233   1012.9490    665.4694 307.4962669  +6.4315792     4854.484     7792.891     7683.528     77.83045     155.4136     311.0128      1.724     4.03     842.3336     54.81561     596.0237        29     1.537     0.978 -28.01   0
       234    232.1295    666.6828 307.8204597  +6.4049177     1810.701     2655.627     2343.152      78.2002     155.7844     311.0128      1.551     4.01     848.5886     54.81561     271.2197        16     1.325     0.769 -25.28   0
       235    978.2930    664.3976 307.5106942  +6.4308650      7916.17     12555.31     13044.36     77.58298     155.2279     310.7035      1.721     4.14     843.0824     54.81561     1040.021        34     1.528     1.048 -27.37   0
       236    315.7931    665.9761 307.7857440  +6.4080223     1514.355     2063.867     1483.504     77.45895     155.3517     310.8272      1.442     4.77     848.3376     54.81561      239.119        14     1.321     0.714 -14.83   0
       237    698.5300    663.0065 307.6269151  +6.4220865     973.8939     1489.785      1098.66     77.45895      155.166     310.8582      1.610     5.13     846.1787     54.81561      156.641        12     1.526     0.704 -20.85   0
       238    230.8876    659.5975 307.8212139  +6.4078015     2728.568      4599.26     5499.077     77.33471      155.166     310.7344      2.226     7.32     848.3749     54.81561     662.5727        23     2.790     0.538  34.26   0
       239     89.8593    660.9391 307.8797268  +6.4025008     731.9699     957.6309     1527.603      77.9539     155.5373     311.0128      1.463     4.68     848.6036     54.81561     108.3765         8     0.997     0.624 -28.53   0
       240    805.4745    658.4772 307.5826573  +6.4275351      1135.69     1789.379     1802.898      78.2002     155.7844     311.0437      1.573     4.99     845.1039     54.81561     146.6929        15     1.294     0.972 -22.80   0
       241    423.5568    658.8000 307.7412380  +6.4146050     2802.242     4697.911      5728.51     77.21028      155.166     310.5797      1.871     4.11     847.1044     54.81561     351.7982        25     1.431     1.004 -29.42   0
       242    136.8000    657.6528 307.8603469  +6.4054383     23485.21     37232.58      38911.2     77.21028      155.042     310.5178      1.680     4.08     848.3468     54.81561     3046.657        53     1.624     1.092 -27.74   0
       243    973.2489    647.4141 307.5133565  +6.4377094     6527.407     11116.59     11545.04     77.33471     155.4755     310.7035      1.820     4.21     842.2358     54.81561     831.2223        38     1.512     1.237 -11.79   0
       244     17.4929    646.5641 307.9102593  +6.4059978     1104.859     1723.188     1534.536     78.07714     155.4136     311.0746      1.786     4.72     849.4534     54.81561     152.2641        12     1.205     0.705 -42.04   0
       245   1023.8328    643.2173 307.4924906  +6.4411307     794.5946      1416.85     2008.681     65.04375     120.7338     231.2153      2.537     5.46     840.7786     54.81561     200.6549        10     1.782     0.496  89.29  24
       246    566.7827    642.5834 307.6823086  +6.4261057     47801.68     73255.38     76926.27     77.70682     155.2279       310.92      1.668     4.08     846.0422     54.81561      6355.78        69     1.650     1.128 -26.21   0
       247    931.2631    643.8779 307.5309101  +6.4377675     565.8748     843.0908     517.7317      78.2002     155.5991     310.9819      1.478     3.90     843.0776     54.81561     88.67261         6     1.234     0.353 -29.26   0
       248    526.1613    642.5427 307.6991780  +6.4247605     677.0344     1077.081     1045.262      77.9539     155.5991     310.9819      1.688     4.41     846.3018     54.81561     112.0035         7     1.235     0.448 -41.95   0
       249    174.2922    639.2526 307.8453992  +6.4142977     2667.876     4283.273     4088.559     77.83045     155.4136     311.1982      1.675     4.25     847.9278     54.81561     371.2513        22     1.433     0.881 -36.02   0
       250    977.6132    638.6440 307.5118372  +6.4414764     707.0218     827.5703     1356.002     77.45895     155.3517     310.7344      1.427     5.15     841.6615     54.81561     110.1611         7     1.059     0.708 -46.18   0
       251     67.2108    633.2702 307.8900639  +6.4131621     1144.794     1793.682     1868.767     77.45895     155.2898     310.7963      1.670     4.94     848.5244     54.81561      161.798        12     1.265     0.644 -30.33   0
       252    464.0367    626.3580 307.7255190  +6.4293592     61125.27      95469.8       100478     77.70681     155.5373     310.8582      1.675     4.15     846.2651     54.81561     8241.358        76     1.659     1.147 -27.87   0
       253    649.9456    623.5895 307.6484116  +6.4367352     949.6648     1337.825     1090.877     77.33471     155.4755     310.6725      1.481     5.44     845.1379     54.81561      129.139        11     1.280     0.652 -25.42   0
       254    138.4738    621.3621 307.8608749  +6.4204790     1644.719     2534.595     2266.314     77.83045     155.5991     311.0437      1.660     4.30     847.6636     54.81561     185.8798        18     1.370     0.852 -13.74   0
       255    933.8800    619.2772 307.5306460  +6.4480130     536.4167     1014.701     708.5217      78.2002     155.7844     311.1364      1.648     4.42     841.6404     54.81561     88.73059         6     1.301     0.427 -32.25   0
       256    418.4673    618.9020 307.7446923  +6.4309082      899.973     1201.282     1019.598      77.9539     155.6609     311.0128      1.481     5.13     845.9282     54.81561     129.2542         9     1.181     0.631 -11.53   0
       257    610.1253    617.9223 307.6651376  +6.4377412     864.9999     1212.254     811.7331      78.2002     155.7844     311.0437      1.488     4.53     845.3911     54.81561     120.7329         7     0.935     0.622 -34.73   0
       258      7.3861    628.0562 307.9150803  +6.4132989     1602.182     3004.817     3321.206     77.33471     155.4136     305.9006      2.018     6.71     849.7164     54.81561     221.2274        23     1.846     0.915 -39.94  16
       259    309.4992    615.5615 307.7900537  +6.4286271      2193.96     3613.068     3924.469      77.9539     155.4136     311.1982      1.811     4.32     845.3572     54.81561     283.5007        21     1.453     0.896 -28.80   0
       260     10.9724    616.6812 307.9139750  +6.4181164     602.5883     1012.269     1214.881     77.83045     155.3517      310.951      2.156     5.36      849.684     54.81561     104.5115         9     1.285     0.631 -35.75   0
       261    462.1691    613.8937 307.7267132  +6.4344430     767.5516     1328.189     1581.766     78.07714     155.3517      310.951      1.745     5.16     845.9346     54.81561      107.514        10     1.233     0.610 -19.40   0
       262    736.1220    609.8924 307.6130843  +6.4452763      5211.18     8093.131     8288.099     77.70682     155.7227     311.0128      1.630     4.11     844.4693     54.81561     742.4665        28     1.496     0.922 -26.86   0
       263    789.6656    605.2197 307.5910055  +6.4489972     14018.74     21101.78      21996.4     77.58298     155.5373     310.8582      1.637     4.14     844.2747     54.81561     1840.166        41     1.542     1.007 -24.92   0
       264   1006.7670    605.8134 307.5008274  +6.4560060     907.3394     1345.082     1101.985     77.45895     155.2898     310.8891      1.671     4.87     839.0543     54.81561     125.5065         9     1.128     0.595 -37.87   0
       265    531.8723    605.0347 307.6980658  +6.4404393     1124.787     2005.038     2569.247     77.83045     155.4755     310.9819      2.369     4.84     845.5345     54.81561     153.0826        16     1.365     0.913 -27.73   0
       266    613.6147    603.2447 307.6641809  +6.4439187     2878.212     4533.574     4551.745     77.33471     155.3517     310.7654      1.606     4.20     844.9503     54.81561      391.991        23     1.478     0.908 -31.92   0
       267     34.9728    603.9623 307.9044386  +6.4241769     631.3024     752.5279     620.8198     77.58298     155.3517     310.8272      1.364     4.46     848.8902     54.81561     97.50726         6     1.041     0.543 -14.67   0
       268    930.6691    599.4109 307.5326438  +6.4561088     1143.656     1656.485      2285.15     77.45895     155.3517     310.8582      1.753     5.38     840.9149     54.81561     157.6454        14     1.367     0.738 -23.72   0
       269    190.1699    597.4255 307.8402152  +6.4321023     682.9357     830.4251     1074.816     77.45895     155.3517     310.8272      1.435     4.90     846.8401     54.81561     95.60675         7     1.168     0.583 -55.79   0
       270    372.2934    596.7673 307.7646104  +6.4384971     949.8279     1626.277      1361.95     78.07714     155.4136     311.0437      1.716     6.25     844.7961     54.81561     119.0569        14     1.503     0.755 -34.97   0
       271    226.1361    596.6708 307.8253058  +6.4336240     1376.464     2029.565      2857.71      77.9539     155.5373     311.0128      1.581     4.76     846.3538     54.81561     189.2772        12     1.218     0.705 -24.95   0
       272    865.7304    588.4719 307.5599778  +6.4584560     2698.938     3819.827     3886.604     78.07714     155.6609      310.951      1.589     4.07     842.3604     54.81561     370.2964        20     1.404     0.809 -25.56   0
       273    824.5656    585.7729 307.5771633  +6.4581942     2527.973     3786.387      4284.48     77.45895     155.2898     310.7654      1.648     4.19     843.0515     54.81561      325.548        20     1.420     0.827 -22.63   0
       274    805.0150    577.0856 307.5855732  +6.4611276     155621.6       240235     253344.4     77.58298     155.2898     310.8891      1.637     4.28     843.0607     54.81561     21305.29       129     1.728     1.242 -28.93   2
       275    795.5316    581.7040 307.5893569  +6.4589033     2637.368     4314.272      6214.55     77.83045     155.6609     311.0128      2.243     8.75     843.3411     54.81561     359.5852        26     2.268     0.943 -39.30   3
       276    252.4534    580.7572 307.8149134  +6.4410799     7572.085     11826.31     12961.67      77.9539     155.5373     310.9819      1.731     4.31      845.004     54.81561     928.8914        36     1.622     1.011 -25.75   0
       277    186.6483    575.2817 307.8424236  +6.4411269     56661.57     89854.41      95799.2      77.9539     155.5373     311.0128      1.728     4.12     846.1838     54.81561     7384.353        85     1.735     1.197 -29.22   0
       278    160.7874    588.3235 307.8527228  +6.4348716     894.4451     1289.949     1572.283     77.58298      155.166     310.7963      1.504     3.98     847.0537     54.81561     127.1923        11     1.099     0.720 -30.64   0
       279    734.9199    577.6109 307.6146651  +6.4585655     601.8387      889.888     1821.079     77.58298     155.2898     310.8272      1.697     5.13     843.1993     54.81561     96.08997         9     1.436     0.518 -27.70   0
       280    110.7408    571.4449 307.8740734  +6.4401557     5994.999     9413.604     10219.58     77.83045     155.4755     311.1055      1.752     4.15     846.8921     54.81561       733.98        36     1.635     1.018 -26.53   0
       281    976.2043    568.9084 307.5147532  +6.4702245     1465.881     2097.233     2507.259     77.58298     155.2279     310.7654      1.550     4.92     838.3879     54.81561     206.2587        13     1.296     0.713 -28.36   0
       282    996.6451    568.1269 307.5062903  +6.4712296     842.0098      1287.65     1574.767     77.83045     155.5991     311.0128      1.557     4.89     837.5213     54.81561     118.5157         9     1.137     0.595 -30.24   0
       283    225.8543    566.7502 307.8264304  +6.4459687     793.1301     1328.007      1598.28      77.9539     155.5373     311.0128      1.750     3.92     844.8434     54.81561     105.3755         9     0.931     0.671 -67.42   0
       284    841.7197    564.2920 307.5707584  +6.4676376     4482.325     6525.026     6932.383     77.70682     155.7844     311.0437      1.597     4.32     841.7852     54.81561     580.7206        25     1.422     0.886 -23.95   0
       285    360.0549    562.4435 307.7708469  +6.4522583     16655.05     26055.56     27192.53      77.9539     155.5373     310.9819      1.685     4.16     843.7385     54.81561     2176.611        43     1.552     1.069 -27.09   0
       286    450.5793    562.1675 307.7332640  +6.4554121     816.5577     1244.428     1232.872     77.45895     155.3517     310.8272      1.575     4.49     843.8505     54.81561     115.3964         9     1.070     0.614 -28.99   0
       287    162.0802    561.3469 307.8530950  +6.4460537     1804.335     2880.987     2910.073      77.9539     155.5373     311.0437      1.667     4.14     846.5219     54.81561     251.2757        19     1.382     0.883 -27.31   0
       288    795.6103    557.7395 307.5901268  +6.4688013     5602.995     8634.215     8980.273     77.33471     155.4136     310.7035      1.643     4.29     842.3669     54.81561     773.8549        31     1.492     0.985 -26.95   0
       289    526.4371    557.3321 307.7019244  +6.4599538     6339.082     9623.792     10428.24     77.83045     155.5373     311.1055      1.671     4.17     843.7551     54.81561     839.8028        31     1.465     1.005 -28.93   0
       290    236.9823    558.7938 307.8220774  +6.4496282     916.2936     1425.559     2103.071     77.58298     155.2898     310.8272      1.737     5.29     844.3064     54.81561     146.6017        11     1.344     0.587 -34.08   0
       291    167.8365    558.6872 307.8507943  +6.4473456     715.3564     1214.335     2157.722      77.9539     155.4136     310.9819      2.070     5.66     846.2904     54.81561     91.06152        11     1.343     0.672 -28.43   1
       292     99.5505    558.6116 307.8791529  +6.4450776     943.2769     1573.242     1970.115     77.33472     155.4755     310.6725      2.103     5.60     846.7625     54.81561     124.6283        15     1.353     0.941 -19.90   0
       293    384.7181    553.7546 307.7608972  +6.4566745      1300.84     2117.776     2383.534      77.9539     155.5373      310.951      1.781     3.95     843.5745     54.81561     171.6868        14     1.205     0.774 -45.99   0
       294    571.2298    550.4277 307.6835546  +6.4643067     2345.934     3847.415     4321.315     77.45895     155.2898     310.7654      1.849     5.51     843.4032     54.81561      327.703        25     1.801     0.804 -30.95   0
       295    268.6447    546.9177 307.8093290  +6.4555966     84528.62     133601.1     141155.2      77.9539     155.5373      310.951      1.713     4.08     843.5166     54.81561     10597.95        96     1.705     1.229 -27.13   0
       296    173.4277    550.4583 307.8487498  +6.4509314     6683.582     10433.87     11168.86     77.58298     155.5991     310.8891      1.721     4.07      845.908     54.81561     873.6632        36     1.553     1.034 -24.62   0
       297    854.4077    550.5435 307.5659493  +6.4737387     600.0845     999.2651     1063.359     77.33472     155.4136     310.7344      2.131     4.69     840.9754     54.81561     108.8602         8     1.187     0.525 -38.81   0
       298    812.0775    550.0515 307.5835454  +6.4725265     1435.781     2095.804     1779.376      77.9539     155.5991     310.9819      1.586     4.36     841.8118     54.81561     201.2422        17     1.348     0.835 -34.29   0
       299     45.0127    549.1507 307.9021188  +6.4471464     4793.238     7753.344     7923.838     77.33471     155.4755     310.7035      1.672     4.02     846.7271     54.81561      620.931        31     1.494     1.053 -27.60   0
       300    558.5463    544.5045 307.6890207  +6.4663272     868.1564     1248.085     1035.411     77.83045     155.5373     311.2291      1.640     5.04     843.3194     54.81561     114.5184         9     1.118     0.642 -28.05   0
       301    968.1351    540.8400 307.5190426  +6.4815450     1635.333     2538.135      2795.69      77.9539     155.4755     311.1055      1.568     4.23     837.7061     54.81561     246.4004        15     1.353     0.757 -27.49   0
       302    791.7465    539.4686 307.5923433  +6.4762163     15991.61     24363.36     25607.66     77.83045     155.4755     310.8891      1.672     4.17     841.6996     54.81561     2210.817        46     1.609     1.034 -24.85   0
       303    252.4558    541.9084 307.8162203  +6.4571205     1446.086     1145.767     654.6326     77.83045     155.4136     311.1055      1.583     4.27     843.4653     54.81561     182.9319        14     1.178     0.806 -21.06   0
       304    645.9000    536.6302 307.6530079  +6.4725062     997.8586     1392.644     1692.745      77.9539     155.2898     311.0746      1.590     6.50     842.6784     54.81561     153.8177        16     1.640     0.723 -34.29   0
       305    207.9380    534.1292 307.8349691  +6.4588350     1849.127     3001.344     3270.656     78.07714     155.5373     311.0128      1.660     4.02     844.0499     54.81561      226.267        20     1.297     0.945 -36.10   0
       306     43.6931    534.1786 307.9031719  +6.4532838     1253.467     1915.022     2191.872     77.83045     155.3517     310.7963      1.555     4.51     846.3796     54.81561     171.4822        14     1.270     0.760 -22.42   0
       307    655.2119    532.8088 307.6492689  +6.4743960     2908.834     4716.744     4777.748     77.45895     155.3517       310.92      1.737     4.39     842.5028     54.81561     376.8574        23     1.487     0.901 -34.68   0
       308    495.4199    537.8121 307.7154609  +6.4669733     39000.77     66172.93     71021.65     77.70682     155.2279     310.8891      1.840     4.47     842.8417     54.81561     4652.219        74     1.807     1.249 -20.76   0
       309    717.6521    531.7402 307.6233735  +6.4769281     1252.017     2063.987     2552.324      77.9539     155.4755     310.9819      1.738     5.67      841.825     54.81561     186.8023        17     1.473     0.847 -33.06   0
       310    665.6018    533.0272 307.6449466  +6.4746538     1355.077     1829.875     1809.406     77.45895     155.2898     310.7654      1.457     4.50     842.5383     54.81561     195.3467        11     1.080     0.673 -24.95   0
       311     74.5044    530.0208 307.8905176  +6.4560387      709.023     1417.929     1478.801     77.83045     155.3517     310.7963      2.268     5.91      846.304     54.81561     86.51855        10     1.241     0.791 -45.71   0
       312    393.1015    528.4257 307.7582674  +6.4674144     1595.937     2533.415     2199.929     78.07714     155.2898     310.8582      1.715     4.76     842.6776     54.81561     229.8243        17     1.432     0.791 -31.50   0
       313    324.6167    526.7224 307.7867650  +6.4658169     3693.907     5704.178     5675.418     77.45895     155.2898     310.8582      1.651     3.96     842.7753     54.81561     477.3652        26     1.453     0.952 -33.34   0
       314    139.7499    525.2389 307.8635849  +6.4602107     25084.22      39570.3     41603.43     77.83045     155.5373      310.951      1.690     4.13     845.8395     54.81561     3171.951        50     1.624     1.082 -27.57   0
       315    867.8199    525.4392 307.5612194  +6.4845530     1583.557     2251.665     1963.622     77.58298     155.3517     310.7344      1.566     4.56     840.1436     54.81561     230.9922        15     1.351     0.761 -43.14   0
       316    504.5940    526.1858 307.7120415  +6.4720817     1994.795     3227.185     3729.021     77.58298     155.2898     310.8272      1.765     4.62     842.3831     54.81561     243.1438        21     1.509     0.857 -27.61   0
       317    105.0290    523.3525 307.8780668  +6.4598203     2494.424     4172.477     3940.692     77.58298     155.5991     310.8891      1.717     4.29     846.1001     54.81561     320.2191        23     1.483     0.951 -36.30   0
       318    341.7328    521.8196 307.7798220  +6.4684164     1005.617     1580.942     1990.596     77.58298     155.5373     310.8891      1.874     4.31     842.6441     54.81561     142.0639        12     1.282     0.710 -25.44   0
       319    965.2843    519.9406 307.5209253  +6.4900795      5050.28     7719.434     7873.862      77.9539     155.5991     311.0746      1.647     4.05      837.362     54.81561     726.4223        27     1.471     0.943 -27.31   0
       320    538.5543    512.2935 307.6984046  +6.4789570     1486.976     2335.725     2870.843     77.83045     155.4755     311.1055      1.815     4.77     841.6536     54.81561     169.7451        17     1.277     0.912 -26.94   0
       321      4.0658    509.5946 307.9204570  +6.4620985      24146.7     38341.26     40175.95     77.45895     153.5464     273.3667      1.704     4.08     845.9259     54.81561     3122.202        53     1.595     1.143 -29.43  24
       322    436.7336    506.4477 307.7408864  +6.4779543     41227.89     64524.11     68169.55      77.9539     155.4755     310.9819      1.713     4.18     841.6747     54.81561     5123.669        68     1.666     1.165 -27.97   0
       323    644.7507    506.1902 307.6545061  +6.4850366     11778.71     18165.07     18969.59     77.45895     155.3517     310.6725      1.642     4.19     841.0911     54.81561     1516.042        38     1.557     0.993 -26.36   0
       324    284.6866    506.6728 307.8040219  +6.4727531     924.8175     1317.695     1195.812     78.07714     155.7844     310.9819      1.582     5.62     842.1618     54.81561     123.7568        12     1.324     0.673 -10.17   0
       325    201.8845    503.9821 307.8384985  +6.4710790     17967.59     30602.25     32483.04     77.58298     155.2279       310.92      1.826     4.09     843.3177     54.81561     2150.241        56     1.693     1.222 -19.60   0
       326    167.6617    505.1022 307.8526726  +6.4694647     1579.767     2441.313     2144.527     77.70681     155.5991     311.0437      1.632     4.45     844.7689     54.81561     221.8323        17     1.337     0.912 -47.04   0
       327    978.6746    504.5845 307.5158775  +6.4968674     1199.683     1593.313      2153.42     77.45895     155.2898     310.8272      1.558     5.69     836.6635     54.81561     180.6464        15     1.392     0.761 -25.98   0
       328    907.9144    503.8860 307.5452888  +6.4947925     715.3642     1158.986      684.343     77.70682     155.6609     311.0128      1.704     5.18     838.5627     54.81561      85.0589        10     1.255     0.605 -29.44   0
       329    818.8773    504.0705 307.5822610  +6.4917401      953.795     1369.446     1180.312      78.2002     155.7844     310.9819      1.553     4.82     840.6157     54.81561     143.3283        10     1.281     0.513 -28.07   0
       330    566.4858    502.9368 307.6871188  +6.4837570     2825.788     4407.414      4256.33     78.07714     155.6609     311.0128      1.667     4.67     841.0558     54.81561     338.8296        22     1.460     0.859 -33.45   0
       331    940.6317    500.1900 307.5318244  +6.4974116     4762.552     7071.842     7581.894     77.45895     155.2898     310.8272      1.600     4.33     837.4538     54.81561     684.8047        25     1.414     0.906 -23.60   0
       332    613.5891    498.5323 307.6677045  +6.4871545     6365.247     9646.459     10055.84     77.45895     155.3517     310.8272      1.661     4.16     840.6989     54.81561     840.7692        29     1.494     0.936 -29.02   0
       333    101.1510    499.1882 307.8804920  +6.4696670     1083.564     1836.856     1665.544     77.33471     155.4755     310.6725      1.741     5.08     845.6657     54.81561     157.0259        16     1.392     0.856 -30.65   0
       334    962.9980    492.4730 307.5227932  +6.5013450     3375.199     5183.911     5735.906     77.45895      155.042     310.8582      1.667     4.55     836.7612     54.81561     452.9899        24     1.476     0.969 -22.61   0
       335    525.8361    489.7815 307.7044424  +6.4878258     7035.031     11201.98     12150.89     77.45895     155.3517     310.7654      1.704     4.13     840.6459     54.81561     912.7247        37     1.629     0.981 -29.89   0
       336    401.4545    491.3386 307.7560455  +6.4830083     687.5916     909.2441     1466.406     78.07714     155.4755      310.951      1.471     4.92     841.2238     54.81561     98.06799         9     1.389     0.494 -33.81   0
       337    371.9302    489.7865 307.7683589  +6.4826575     2566.108     4032.107     3902.708     77.45895     155.2898     310.8582      1.654     3.89     841.5504     54.81561      369.487        23     1.426     0.946 -29.80   0
       338     94.9706    488.7696 307.8834099  +6.4737605     463.4217     793.9295      770.486     77.45895     155.2898     310.7344      1.660     4.28      845.529     54.81561     76.68329         5     1.054     0.495 -37.38   0
       339    882.3892    485.7538 307.5564966  +6.5014266     3082.856     4803.957     5381.159     77.45895     155.3517     310.6725      1.724     3.76     839.0101     54.81561     455.8481        22     1.374     0.943 -25.68   0
       340    534.7760    486.5830 307.7008370  +6.4894463     752.8897     1251.749     1014.677     77.70682     155.4136       310.92      1.462     6.15     840.3895     54.81561     103.2325        10     1.446     0.735 -22.92   1
       341    230.1184    485.0188 307.8274122  +6.4798588     727.3636     1089.826     1134.174     77.58298     155.2279       310.92      1.577     4.19     841.6946     54.81561      101.001         8     1.007     0.663 -13.00   0
       342    889.6481    479.9917 307.5536746  +6.5040484     2124.015      3365.25     3454.569     77.45895     155.4136     310.6416      1.768     4.49      838.531     54.81561     290.1848        21     1.339     0.923 -29.72   0
       343    929.1418    479.2629 307.5372963  +6.5056689       1184.6     1725.705     2190.091     78.07714     155.4755     311.0128      1.670     5.65     836.8678     54.81561      175.837        14     1.593     0.614 -25.99   0
       344    108.8203    479.5505 307.8779693  +6.4780336     716.2283     1136.508     1158.062     77.45895     155.5991     310.8582      1.866     4.82     845.1452     54.81561      101.267         9     1.171     0.697 -24.54   0
       345    713.6765    475.9609 307.6268941  +6.4998269     2986.002     4552.089     4864.745     77.83045     155.5373     311.0128      1.631     4.53       839.97     54.81561     424.9164        23     1.482     0.906 -18.63   0
       346    384.5099    474.2072 307.7636585  +6.4895128       3473.6     5521.505     6005.628     77.58298     155.2279     310.7654      1.774     4.09     840.7239     54.81561     488.1074        27     1.537     0.936 -28.22   0
       347    424.7366    474.3582 307.7469473  +6.4908014     1185.591     1634.809     2569.828      77.9539     155.4755     311.0437      1.643     4.72       840.32     54.81561     162.2688        14     1.278     0.801 -38.26   0
       348     75.4404    474.6405 307.8919969  +6.4789363     1824.016     2840.933     3200.347     77.70682     155.5991     310.8582      1.725     5.25     845.1802     54.81561     227.6356        20     1.502     0.982 -13.01   0
       349    612.2301    470.7177 307.6692022  +6.4985939     9741.988     14920.09     16247.88     77.83045     155.3517      310.951      1.667     4.14     839.3962     54.81561     1352.313        39     1.568     1.009 -28.70   0
       350    774.9937    467.3471 307.6017166  +6.5054358     15929.24     24601.08     25788.44     77.45895     155.3517     310.7035      1.663     4.22     839.8347     54.81561     2135.254        49     1.687     1.054 -31.40   2
       351    779.0446    462.4798 307.6001972  +6.5075811      1340.56     1939.291     2035.826      77.9539     155.5373     310.9819      1.544     4.59      839.651     54.81561     195.7889        11     1.235     0.607 -25.43   3
       352    294.7757    467.5395 307.8011492  +6.4892504     2663.718     3991.121     4304.585     77.58298     155.4755     310.8891      1.688     4.00     840.9178     54.81561     355.6275        20     1.427     0.818 -22.16   0
       353    418.5041    467.0131 307.7497826  +6.4936249     670.7089     974.4716     927.8054     77.70681     155.2898     310.7963      1.554     5.39     840.0049     54.81561     90.12164         9     1.384     0.593 -25.25   0
       354    804.0178    464.4295 307.5897599  +6.5076114     1252.447     1644.931     1934.014     77.58298     155.3517       310.92      1.501     4.78     839.6861     54.81561     185.6453        12     1.191     0.693 -33.69   0
       355    378.1161    463.8482 307.7666623  +6.4935753     1557.451     2348.118      2997.81      77.9539     155.5373     311.0128      1.703     4.04     840.2991     54.81561     245.0388        15     1.248     0.763 -26.57   0
       356    960.0708    462.3345 307.5250167  +6.5136919     1986.732     2967.025     2652.501      77.9539     155.5991     310.9819      1.635     5.19     835.6515     54.81561     265.9647        19     1.518     0.862 -19.40   0
       357    708.6813    461.1609 307.6294649  +6.5057707     628.6512     765.9142     733.9441      77.9539     155.5991       310.92      1.371     4.45      839.366     54.81561     108.2564         7     0.960     0.587 -11.35   0
       358    366.5109    460.1494 307.7716064  +6.4947126       744.22     1086.125      1452.43      77.9539     155.3517     311.1055      1.719     5.17     840.2015     54.81561     94.17438         9     1.286     0.586 -22.34   0
       359    112.3232    459.0854 307.8772047  +6.4866014     4349.825     6787.072     7037.408     78.07714     155.8461     311.0746      1.676     4.18     844.2781     54.81561     590.6033        28     1.535     0.972 -20.62   0
       360    750.5945    458.2679 307.6121543  +6.5083683     2219.856     3544.223     3503.458     77.45895     155.2279     310.7963      1.630     3.94     839.5041     54.81561     319.3475        20     1.466     0.786 -33.99   0
       361   1014.1810    457.0786 307.5027186  +6.5176687     3881.158     6720.634      6781.03     77.45895     155.2279      310.951      1.808     4.82     834.0576     54.81561      428.616        31     1.628     1.076  -9.70  16
       362    270.3383    456.1685 307.8116808  +6.4931238     1496.393     2442.518      2653.42     77.70681     155.5991       310.92      1.754     4.50     840.7805     54.81561     199.7671        16     1.219     0.996 -25.49   0
       363    348.3844    453.9938 307.7793414  +6.4966453     3001.305      4567.73     4375.439     77.58298     155.2898     310.8272      1.641     3.86     840.0342     54.81561     445.9183        24     1.530     0.903 -24.00   0
       364    704.5212    451.6985 307.6315098  +6.5095386     1590.673     2279.836     2361.011     77.58298     155.8461     311.0128      1.569     4.97     838.9927     54.81561     210.0062        16     1.488     0.738 -22.63   0
       365    235.6440    450.2610 307.8262881  +6.4943961     814.9161     1309.118     1074.149     77.83045     155.5373     311.1055      1.653     5.87     841.1025     54.81561      117.832        10     1.266     0.766 -27.10   0
       366    978.3610    450.4594 307.5178172  +6.5192061     553.0862     800.5759      968.062      77.9539     155.5991     311.0746      1.228     3.00     834.5728     54.81561     119.9813         5     0.948     0.452 -42.01   0
       367    545.9510    444.4475 307.6976107  +6.5072191     892.0736     1313.266     1770.023      77.9539     155.4136     311.0128      1.565     4.62     838.2656     54.81561     129.7833        10     1.104     0.707 -29.07   0
       368    830.6428    442.0189 307.5794522  +6.5177555     1437.167     2431.163     2388.364     77.45895     155.4136     310.7654      1.667     4.26     838.4774     54.81561     220.3992        17     1.500     0.770 -31.06   0
       369    468.0509    442.7116 307.7300222  +6.5053224     1314.967     2055.271     2313.427      77.9539     155.3517     311.1055      1.661     3.45     838.6711     54.81561     236.9649        13     1.245     0.697 -31.92   0
       370    816.1448    440.9620 307.5855091  +6.5177070     2071.601      3217.34     3443.332      77.9539     155.5991     311.0128      1.636     4.39     838.6589     54.81561      295.537        17     1.349     0.823 -31.80   0
       371    713.4244    439.0037 307.6282377  +6.5150785      14302.6     21880.89     22932.76     77.58298     155.2279     310.8272      1.667     4.11       838.58     54.81561     1861.461        46     1.644     1.023 -25.04   0
       372    615.8387    440.7104 307.6687103  +6.5111050     714.3907     1127.525     1293.688      77.9539     155.4755     311.0128      1.718     5.56     838.1524     54.81561     99.68555         9     1.391     0.626 -34.22   0
       373    634.6727    434.9021 307.6610830  +6.5141345     2492.281     4102.888     4792.259     77.58298     155.6609     310.9819      2.052     7.31      837.952     54.81561     306.4013        25     1.928     0.938  -9.15   2
       374    609.7520    432.0959 307.6715274  +6.5144581     5330.347     8031.022     8847.673     77.83045     155.4136     311.1364      1.634     4.29     837.7621     54.81561     655.9088        22     1.468     0.841 -30.18   3
       375    606.0575    429.5039 307.6731488  +6.5154045     14061.19     22231.59     24105.65     77.83045     155.5373     311.1364      1.703     4.07     837.6735     54.81561     1891.739        44     1.592     1.087 -27.20   3
       376    938.6680    429.0015 307.5350208  +6.5267408     3655.979     5658.586     5713.231     77.45895      155.104     310.7963      1.638     4.39      834.951     54.81561     470.0816        24     1.439     0.905 -28.03   0
       377    377.8496    424.8666 307.7680840  +6.5096619     27557.65     44132.89     46657.55     77.83045     155.4136       310.92      1.698     4.17     838.2831     54.81561     3470.972        55     1.660     1.103 -25.57   0
       378    894.4003    424.5611 307.5535556  +6.5270953     1456.015     2169.319     2922.202     76.96082     155.3517     310.7344      1.646     5.86      836.342     54.81561     206.1403        13     1.258     0.776 -41.86   0
       379    124.0413    424.2683 307.8735123  +6.5013718     2282.726     3754.455     3922.707     77.83045     155.4755     311.0746      1.797     4.17     842.6544     54.81561     293.8549        21     1.438     0.890 -26.99   0
       380    907.5447    419.2876 307.5482726  +6.5297121     5101.611     7317.957     7423.778      77.9539     155.4136     311.1364      1.606     4.14     835.6913     54.81561     679.6205        25     1.428     0.908 -31.04   0
       381    589.0416    420.1880 307.6805286  +6.5186808     609.0776      895.107     850.7221     77.33471     155.3517     310.7035      1.560     3.95     837.2325     54.81561     91.61011         6     0.976     0.457 -35.25   0
       382     57.3511    419.5562 307.9013674  +6.5010706     1502.597     2536.057     2677.453      77.9539     155.4755       310.92      1.857     4.47     843.5983     54.81561     189.4393        17     1.308     0.860 -26.11   0
       383    235.4055    415.4060 307.8275611  +6.5087795     13151.64     21195.08     22117.43     77.33472     155.3517     310.7963      1.737     4.14     840.5716     54.81561      1671.81        46     1.669     1.099 -28.68   0
       384    964.4274    416.4897 307.5247402  +6.5327675     535.9517     977.3124     1113.248     78.07714     155.2898     310.8582      1.791     3.74     833.3425     54.81561     96.25989         6     0.947     0.425 -18.16   0
       385     71.1127    409.3268 307.8959973  +6.5057579     816.8463     1454.318     1269.065     78.07714     155.8461     310.9819      1.825     5.15     843.1703     54.81561      126.863        11     1.195     0.956 -31.25   0
       386    730.7966    408.8977 307.6220316  +6.5280911     783.2153     1355.084      1917.52     77.70681     155.2279     310.6725      1.774     4.69     837.5923     54.81561     112.1768         9     1.034     0.605 -34.98   0
       387    958.5728    407.4984 307.5274726  +6.5362846     1072.117     1579.695     1751.726     78.07714     155.2898      310.951      1.692     5.17     833.2965     54.81561     142.0294        12     1.321     0.774 -50.97   0
       388    699.4354    408.0328 307.6350861  +6.5273983     661.6033      754.638     361.7839     77.58298     155.2898     310.7344      1.321     3.34     837.2744     54.81561     119.1567         5     0.709     0.648 -10.13   0
       389    182.0529    405.7209 307.8500451  +6.5109831     708.6987     1353.728      1267.14      77.9539     155.5373     310.9819      2.070     7.20     841.0436     54.81561     101.4191        12     1.646     0.882  22.83   0
       390    348.3103    404.9185 307.7810232  +6.5169060     1261.663     1979.798     1963.344     77.70681     155.7227     311.0437      1.656     4.60     837.4301     54.81561     152.2559        13     1.257     0.719 -27.27   0
       391    135.6185    403.9598 307.8693890  +6.5101469     4807.287     7768.439     8010.667     77.58298     155.3517     310.7344      1.713     4.07     841.8632     54.81561      614.131        29     1.498     0.999 -22.66   0
       392    431.7676    403.0327 307.7464250  +6.5204879     569.1897     968.8896     1171.143     77.45895     155.2898     310.7344      2.051     4.82     836.9746     54.81561     111.9651         7     1.035     0.636 -66.98   2
       393    240.5935    402.7905 307.8258314  +6.5141630     1392.488     2049.485     2271.707     77.45895     155.3517     310.8272      1.603     4.12     839.8877     54.81561     217.6092        14     1.160     0.813 -32.81   0
       394    157.6800    399.8007 307.8603670  +6.5126070     2444.088     4226.669     4400.932     77.21028     154.9179     310.7654      1.819     4.45     841.3328     54.81561     276.1252        27     1.589     1.062 -38.54   0
       395    821.6260    400.5125 307.5845871  +6.5345924     827.7102     1241.295     980.7239     78.07714     155.3517     310.8891      1.662     6.29     836.9662     54.81561     127.4378        13     1.494     0.744 -24.40   0
       396    553.2123    399.1503 307.6961158  +6.5261661      1038.58      1426.25     1506.072     77.33471     155.4755     310.7035      1.545     5.37      836.114     54.81561     135.1686        13     1.172     0.799 -47.34   0
       397    381.2422    394.6919 307.7676899  +6.5222350     2075.542     3233.035     3048.988      77.9539     155.5373     311.0746      1.606     4.11     836.7747     54.81561     267.4432        18     1.386     0.800 -32.98   0
       398    269.5474    394.9911 307.8140690  +6.5183572     817.1317     1188.194     564.3513     77.45895     155.4136     310.7035      1.486     5.04     838.9531     54.81561     136.1357        10     1.088     0.660 -28.03   0
       399    969.6761    393.9702 307.5233132  +6.5422414     879.8265     1439.725     1531.875     77.83045     155.5991     311.0128      1.655     4.55     832.5254     54.81561     126.4895         8     1.150     0.511 -28.62   0
       400    315.2008    392.0801 307.7952063  +6.5210942      565.463     995.1124     1510.248     77.21028     154.9179     310.7654      2.056     4.60     837.7491     54.81561     80.26758         5     0.952     0.630  59.31   0
       401    435.0788    388.2655 307.7455462  +6.5266965     6966.941     11166.68      11809.3     78.07714     155.5991      310.951      1.715     3.98     836.2016     54.81561     883.6329        34     1.551     1.061 -32.31   0
       402     31.3974    388.8539 307.9131819  +6.5128724     3092.191     5310.277     5743.675     77.33471     155.2898     310.6106      1.875     4.55     843.4568     54.81561      429.748        33     1.816     1.078 -40.22   0
       403    775.6226    385.6792 307.6041914  +6.5391784     12498.79     18981.21     19660.58     77.58298     155.2279      310.951      1.664     4.07     836.6098     54.81561     1584.348        39     1.549     0.997 -28.89   0
       404    767.6669    387.1742 307.6074457  +6.5382949     2029.688     3026.404       3539.5     77.58298     155.4136     310.8891      1.668     4.78     836.6583     54.81561     260.4349        16     1.390     0.726 -19.17   1
       405    339.3242    384.1215 307.7854551  +6.5251911     971.8696     1425.781     1547.929      78.2002     155.7844     311.0746      1.536     5.43     836.7263     54.81561     144.1353        12     1.296     0.642 -31.73   0
       406   1019.5231    380.9493 307.5030441  +6.5492820     3679.992     5727.249     5973.664     77.83045     155.5991     289.8912      1.691     4.11     830.8387     54.81561     474.7947        26     1.513     0.936 -27.98  16
       407    950.6477    377.1162 307.5317804  +6.5485652     557.4182     755.9338     829.2665      77.9539     155.5373     311.0128      1.608     4.53     832.5848     54.81561     90.76306         5     1.161     0.502 -34.36   0
       408    184.0289    375.8554 307.8502310  +6.5233809     737.6808     1156.929     904.6222     77.70681     155.5991       310.92      1.670     5.64     840.1782     54.81561     133.0317        10     1.375     0.651 -46.95   0
       409    455.5370    372.4282 307.7375815  +6.5339226     2168.374     3126.618     3101.277     77.58298     155.5373       310.92      1.646     4.26      835.329     54.81561     287.2681        19     1.338     0.934 -33.79   0
       410    390.9577    374.2344 307.7643428  +6.5310083     548.3734     911.8557      1003.73     77.70681     155.5373     310.7963      1.556     3.80     835.6893     54.81561     88.24426         5     0.819     0.506  49.46   0
       411    483.1059    371.8102 307.7261519  +6.5351031     2928.893     4477.248     5179.239     77.58298      155.166     310.7963      1.615     4.19     835.2166     54.81561     398.6622        21     1.511     0.794 -32.22   0
       412    912.1166    371.6478 307.5479677  +6.5495360     736.4841      1195.54     1559.937      77.9539     155.5373     311.0128      1.831     4.19     833.5315     54.81561     128.1593         7     0.982     0.622  11.72   0
       413    840.9604    368.5616 307.5776264  +6.5484319     31960.74     51029.89      54079.5     77.70681     155.4755     310.8582      1.734     4.05     835.3995     54.81561      4359.89        65     1.633     1.218 -33.43   0
       414    426.8601    366.3561 307.7496963  +6.5354670     452.4896     759.9877     562.8473     77.83045     155.5373     311.1055      1.837     4.48     835.1332     54.81561     84.07104         5     1.143     0.499 -54.45   0
       415     59.3109    364.6519 307.9024060  +6.5238060     662.3694     969.3009     802.7264      77.9539     155.3517     311.0746      1.647     5.50     842.5624     54.81561     85.80017         8     1.296     0.657 -26.70   0
       416    333.3952    364.1943 307.7885881  +6.5332197     820.3771     1184.867     1039.345     77.33471     155.2898     310.8582      1.674     4.04     836.0406     54.81561     104.6747         8     1.021     0.575 -35.65   0
       417    612.8054    360.9544 307.6726465  +6.5439353     2472.526     3899.571     4104.846     77.33471     155.2898     310.6416      1.670     4.59     834.2178     54.81561     312.1099        20     1.475     0.796 -28.86   0
       418     20.9287    361.3127 307.9184592  +6.5238909     1150.443     1795.033     1883.889     78.07714     155.7844     310.9819      1.769     5.63     843.2571     54.81561     163.9203        12     1.232     0.725 -22.33   0
       419    697.4318    354.5158 307.6377126  +6.5494288      79849.7     119559.2     125434.2      77.9539     155.3517     310.8891      1.670     4.10     835.2458     54.81561     10765.37        88     1.665     1.147 -24.94   0
       420    855.3470    355.9396 307.5720733  +6.5541247     1106.946     1602.748     1695.009      77.9539     155.4755     310.9819      1.578     6.01     834.7485     54.81561     145.4838        13     1.351     0.751 -23.83   0
       421     76.8827    353.9547 307.8954691  +6.5288149     1272.316      2156.05      2300.82      77.9539     155.5373     310.9819      2.104     4.34     841.9896     54.81561     187.4476        17     1.383     0.832 -25.20   0
       422    559.8856    351.1562 307.6949557  +6.5462069     2690.738     4191.437     4286.388      77.9539     155.4136      310.951      1.654     4.05     833.6011     54.81561     341.3179        26     1.526     0.951 -30.85   0
       423    938.8257    351.5299 307.5375467  +6.5587352     869.3111     1094.737     1232.678     77.58298     155.4136       310.92      1.390     4.26     831.8795     54.81561     122.0623        12     1.261     0.639 -33.27   0
       424     97.0783    349.8938 307.8872185  +6.5311721      5835.57     9528.502     10412.87     77.70682     155.7227     311.0128      1.747     4.08     841.5143     54.81561      766.546        34     1.567     1.085 -19.46   0
       425    543.2092    347.3902 307.7020087  +6.5472026     7076.486     11276.45     11783.68     77.58298     155.3517     310.8891      1.731     4.12     833.4108     54.81561     890.9205        37     1.577     1.064 -22.80   0
       426    272.2351    345.0145 307.8146356  +6.5390828     2516.524     4040.976     3669.382     77.58298     155.2898     310.8272      1.725     4.00     837.0846     54.81561     359.1688        23     1.435     0.956 -27.82   0
       427    406.0396    342.5657 307.7591438  +6.5445908     24451.62     39408.38     41755.91     77.70681     155.4136     310.7963      1.736     4.33      834.241     54.81561     3179.929        56     1.667     1.114 -27.47   0
       428    513.4567    341.3715 307.7145685  +6.5486897     1144.772     1921.686     1633.878     77.58298     155.5991     310.8891      1.784     5.32     833.4581     54.81561     159.4636        16     1.550     0.788 -22.71   0
       429    386.1052    340.7183 307.7674855  +6.5446841     1152.802     1909.808     1700.516     77.70681     155.8461     311.0746      1.660     4.89     834.3606     54.81561      152.929        14     1.368     0.735 -36.01   0
       430    585.9055    341.2938 307.6844794  +6.5511515     664.5825     960.7916     849.7543      77.9539     156.0927      310.951      1.517     3.62     833.0649     54.81561     91.17706         7     0.753     0.659  -6.29   0
       431    485.4961    337.7700 307.7263030  +6.5492386     1041.691     1625.456     1897.779     78.07714     155.2898     311.0128      1.695     6.09     833.6474     54.81561      146.973        13     1.369     0.827 -22.22   0
       432    801.3756    335.3703 307.5951800  +6.5608131     823.2838     1263.448      1436.62     77.45895     155.4136     310.8272      1.646     5.43     834.1697     54.81561     128.9414         9     1.153     0.723 -29.29   0
       433    636.6680    334.8906 307.6636097  +6.5554968     595.3633     636.8278     436.6756     78.07714     155.6609     310.9819      1.319     4.53     833.3339     54.81561     99.53827         6     1.369     0.427 -22.84   0
       434    495.1901    332.9645 307.7224380  +6.5515481     8195.245     13027.32      13681.6     77.45895     155.2898     310.7654      1.687     3.99     833.2639     54.81561     1046.773        34     1.538     1.011 -27.75   0
       435    383.5110    335.0766 307.7687528  +6.5469264     722.4605     1137.154     1486.004      77.9539     155.7844     311.0437      1.561     5.37     834.2344     54.81561     131.7093         7     1.304     0.623  -9.32   0
       436    764.3207    331.7542 307.6106926  +6.5610665     3232.178     4838.985     5536.251      77.9539     155.5373     310.9819      1.645     3.88     834.0377     54.81561     437.6005        24     1.491     0.977 -13.14   0
       437    919.8961    331.4393 307.5460816  +6.5663985     907.8648     1430.973     1534.998      77.9539     155.4136     311.1055      1.778     5.65     831.7427     54.81561     129.0031        12     1.397     0.687 -11.86   0
       438    711.8303    331.4804 307.6325045  +6.5594225     864.4382     1392.938      1222.85     77.83045     155.4755      310.951      1.720     5.50     833.9444     54.81561     110.7033        11     1.204     0.709 -14.93   0
       439    321.8209    329.8095 307.7945526  +6.5470281     983.5767     1354.478     953.8209     77.58298     155.2279     310.7963      1.472     4.81      835.366     54.81561     139.8597        11     1.049     0.772 -28.57   0
       440    157.3732    323.2000 307.8630766  +6.5442245     1026.893     1646.211     2038.594     77.45895      155.166     310.7654      1.812     5.30     840.2838     54.81561     162.5132        12     1.271     0.680 -29.67   0
       441    434.1978    323.4156 307.7480923  +6.5534436     468.8011     531.7653     594.0167     77.58298      155.166     310.7963      1.467     4.12     833.3531     54.81561     73.21954         5     1.190     0.406 -14.43   0
       442    257.2627    323.0167 307.8215950  +6.5476620     666.3078     1245.547     1337.241     77.45895     155.4755     310.8272      1.995     5.19     836.7818     54.81561      87.4856         8     1.177     0.646  13.78   0
       443    604.1202    321.6111 307.6775744  +6.5598892      489.136     571.0983     500.7751     77.58298     155.2898     310.8272      1.353     4.20     832.0461     54.81561     90.86987         7     1.338     0.375 -14.01   0
       444    385.0845    317.0811 307.7687046  +6.5544095     7097.702      11346.9     11849.08     77.70682     155.8461     311.0437      1.683     4.11     833.7877     54.81561     895.3439        34     1.574     1.001 -28.75   0
       445    241.1639    317.5837 307.8284645  +6.5493636     2164.849     3355.366     3604.378     77.58298     155.2898     310.7654      1.686     4.20     837.0555     54.81561     243.0106        20     1.388     0.915 -18.69   0
       446    738.8512    316.6145 307.6217792  +6.5664653     919.4641     1427.076     1680.015     77.33471     155.5373     310.7344      1.752     5.12     833.2584     54.81561     133.7702        10     1.007     0.736 -43.64   0
       447    752.9356    313.0522 307.6160483  +6.5684077     53051.05     80865.59     84817.68      77.9539     155.4755      310.951      1.627     4.05     833.0411     54.81561     6897.784        71     1.618     1.129 -26.61   0
       448    424.5945    312.3655 307.7524525  +6.5576837     2261.892     3706.805     3657.971     77.21028     155.3517     310.7654      1.718     4.47     833.0561     54.81561     289.2974        23     1.522     0.920 -20.17   0
       449    988.0073    309.9914 307.5185070  +6.5775295     1485.203     2129.873     2533.556     77.33471     155.3517     310.8582      1.515     3.84     830.0612     54.81561     254.3834        15     1.288     0.724 -30.82   0
       450    928.6556    309.2802 307.5431845  +6.5758409     2248.024     3260.894     3460.495     78.07714     155.5373     311.0128      1.617     4.46     830.9102     54.81561     278.0693        19     1.394     0.827 -22.41   0
       451    570.8889    309.7670 307.6917751  +6.5636656     1140.941     1804.067     1506.974     78.07714     155.4136     310.9819      1.658     4.84     831.4026     54.81561     158.3314        14     1.247     0.801 -21.09   0
       452    461.6268    308.8087 307.7371905  +6.5603956     1157.234      1939.11     1893.186     77.58298     155.3517     310.8582      1.713     4.45     832.4589     54.81561      158.023        13     1.288     0.767 -38.45   0
       453    411.1686    307.9975 307.7581760  +6.5590363     2038.891     3304.485     3285.044     77.33471     155.3517     310.7654      1.703     3.71     833.1291     54.81561      288.929        20     1.347     0.878 -38.83   0
       454    291.1957    307.8872 307.8080106  +6.5550501     630.7751     865.8182     793.9605     77.45895     155.2279     310.6725      1.449     3.86     835.4863     54.81561     89.37128         6     0.748     0.583 -45.60   0
       455    661.2672    306.9697 307.6543288  +6.5678497     467.7905     889.3295     249.2978     77.70681     155.5373      310.951      1.843     4.46     832.1981     54.81561     89.45929         6     1.340     0.422 -16.43   0
       456    832.5807    302.7023 307.5833124  +6.5753457     1205.579     1711.935     2173.235     77.83045     155.4136     310.7344      1.785     4.24     832.2244     54.81561     184.9718        13     1.050     0.899 -14.83   0
       457    460.8137    303.2201 307.7377161  +6.5626759     637.9919       867.92     1000.519     77.70681     155.2279     310.8891      1.479     5.35        832.2     54.81561     89.98572         7     1.300     0.621 -16.10   0
       458    441.8739    299.4789 307.7457087  +6.5635848     1017.718     1689.242     1802.765      78.2002     155.7844     311.0437      2.048     6.32     832.3298     54.81561     157.4215        13     1.654     0.785 -28.33   0
       459    751.4446    297.6842 307.6171828  +6.5747033     6134.241     9183.464     9629.741      77.9539     155.5373     311.0128      1.657     3.99     832.2489     54.81561     859.1832        31     1.487     0.994 -26.68   0
       460    187.7808    299.2619 307.8512541  +6.5551321     2085.084     3422.312     3908.482     77.58298     155.4755     310.8582      1.764     4.39     838.8341     54.81561     258.8731        22     1.444     0.936 -27.94   0
       461     83.9560    296.7096 307.8944627  +6.5526891     970.7667     1659.851      1453.43      77.9539     155.4755     311.0746      1.752     5.90     840.9993     54.81561     163.3828        13     1.389     0.704 -45.94   0
       462    767.6470    295.5650 307.6105236  +6.5761206     2608.759     4167.293     4280.835     77.58298     155.4755     310.8891      1.695     4.28     832.1414     54.81561     329.8879        21     1.400     0.887 -29.02   0
       463    223.4534    297.5082 307.8364967  +6.5570568     623.1678     1143.722     980.6903     77.83045     155.3517     311.1364      1.673     3.79     837.3198     54.81561     84.46552         6     1.019     0.404 -18.33   0
       464     71.1324    291.1803 307.8999754  +6.5545400     1243.856     2186.391     2384.004     77.58298     155.5373       310.92      1.850     5.96     840.9567     54.81561     168.8973        14     1.373     0.868 -30.41   0
       465    357.2856    290.3525 307.7811502  +6.5645117      1759.35     3391.138     3819.166      77.9539     155.4755     310.9819      2.083     6.23     833.7298     54.81561     213.9711        27     1.958     0.920 -14.08   0
       466   1005.9291    286.5709 307.5118456  +6.5877985     5863.454     8893.869     9405.116     77.83045     155.5373      310.951      1.633     4.19     829.1073     54.81561     803.3242        33     1.565     0.980 -21.07   0
       467    484.2003    286.3262 307.7285699  +6.5704363      1927.94     2869.294     2769.969     77.21028     154.9179     310.7654      1.609     4.39     830.9876     54.81561     244.7249        21     1.420     0.926 -11.79   0
       468    246.6305    281.8960 307.8273961  +6.5642828     5671.203     9074.893     9819.377     78.07714     155.2898     311.0437      1.739     4.37     836.3002     54.81561     709.4417        32     1.565     1.012 -27.91   0
       469    914.4992    280.8374 307.5500166  +6.5871123     621.7318     816.4173     746.5466      77.9539     155.4136     311.1982      1.455     5.45     830.2883     54.81561      96.2666         8     1.258     0.665 -48.58   0
       470    811.8044    280.4836 307.5926867  +6.5838252     517.3254     821.7159     827.4092     77.45895      155.166     310.7035      1.262     4.70     831.4886     54.81561     94.97363         6     1.382     0.454 -25.83   0
       471    764.2789    276.1640 307.6125729  +6.5840187     493.3597     899.9683     1023.444     77.83045     155.5991     310.9819      1.772     3.46     831.3375     54.81561     87.96112         5     0.984     0.351 -43.64   0
       472    380.9099    272.7495 307.7719298  +6.5725738     1549.202     2568.873     2681.532      77.9539     155.3517     311.1055      1.722     4.82     832.8237     54.81561     185.8345        16     1.377     0.804 -28.96   0
       473    967.6340    271.5747 307.5282546  +6.5927120     1056.979     1701.321     1914.223     77.33472     155.2898     310.7963      1.670     4.40     829.1095     54.81561     158.1185        12     1.442     0.632 -32.23   0
       474    187.3108    269.7805 307.8524429  +6.5672889     512.3744     674.8581     380.5591     77.83045     155.2898     310.8891      1.508     5.63     838.3696     54.81561     79.61267         6     1.023     0.874 -34.05   0
       475    150.5959    268.3696 307.8677401  +6.5666353     1792.826     3025.291     2899.178     77.45895     155.4136     310.7654      1.821     4.56     839.5677     54.81561     212.9535        22     1.391     1.112 -19.20   0
       476    303.2838    268.4323 307.8043181  +6.5717473      1185.68     1751.533     1027.949      77.9539     155.3517       310.92      1.532     4.61     834.6627     54.81561     179.4463        15     1.434     0.686 -26.31   0
       477    560.2224    264.2458 307.6977342  +6.5821038     2001.223     3195.344     3530.639     77.58298     155.5373     310.8272      1.732     3.63     829.3975     54.81561     274.3518        19     1.302     0.878 -38.81   0
       478    903.9624    263.5571 307.5549718  +6.5938955     1736.909     2817.381     2731.466     77.70681     155.5373     310.8582      1.693     4.63      829.868     54.81561     263.7487        18     1.499     0.793 -15.21   0
       479    841.6464    264.0237 307.5808419  +6.5916197     479.7861     715.0939     270.0045     77.58298     155.5373     310.8582      1.273     4.60     830.9214     54.81561     79.03351         6     1.300     0.462 -35.10   0
       480    723.7634    261.7468 307.6298857  +6.5886156     5042.483     7593.038     7669.938     77.83045     155.5373     311.0128      1.629     4.20     830.5697     54.81561     693.0264        26     1.471     0.932 -20.17   0
       481    961.7438    261.7793 307.5310290  +6.5965599     690.6155     945.4126     1034.217     77.58298     155.5373     310.7963      1.469     5.05      828.792     54.81561     106.2694         9     1.292     0.559 -14.90   0
       482    664.5753    261.6233 307.6544759  +6.5866843     2185.964     3137.026     3256.194     77.45895     155.4136      310.951      1.645     4.46     830.2094     54.81561     276.0742        16     1.385     0.736 -27.40   0
       483    379.5638    255.8565 307.7730572  +6.5795036     725.0749     1044.065     854.0059     77.83045     155.5373     311.0128      1.591     5.50     832.4526     54.81561     102.5302         8     1.213     0.845 -50.78   0
       484    919.9667    253.8261 307.5486493  +6.5984483     1054.188     1635.726     1606.356     77.45895     155.2898     310.7654      1.538     4.90     829.1057     54.81561     168.8517        10     1.388     0.490 -19.03   0
       485    223.3816    247.0883 307.8382254  +6.5778724     2164.084     3554.291     3847.843     77.70681     155.2898     310.8891      1.768     5.06     836.5444     54.81561      238.348        23     1.520     0.961 -32.61   0
       486    756.4847    245.3855 307.6168420  +6.5964666     1559.176     2555.156     2264.235     77.58298     155.2898     310.8582      1.686     4.90     830.1837     54.81561     212.6315        17     1.500     0.729 -26.45   0
       487    866.2669    245.9627 307.5712194  +6.5999004     1813.524     2633.974     2769.555     77.83045     155.4755     311.0746      1.547     3.99     830.3737     54.81561     235.9926        18     1.330     0.856  -9.80   0
       488    457.2627    236.9011 307.7414204  +6.5899398     22150.76     35430.09     37234.36     77.70682     155.5991     311.0128      1.724     3.98     829.5377     54.81561     2865.702        58     1.670     1.140 -27.65   2
       489    463.4540    231.2989 307.7390370  +6.5924608      1346.49     2147.679     2198.223     77.83045     155.5373     311.1982      1.684     5.06     829.0466     54.81561     183.7161        14     1.406     0.675 -36.88   3
       490    783.2968    236.0499 307.6060173  +6.6012185     13159.95     20157.65     21827.09     77.83045     155.4755     311.1364      1.668     3.97     830.3251     54.81561     1726.368        49     1.754     1.031 -21.30   0
       491    319.3172    238.3231 307.7986720  +6.5847183     600.5574     985.4948     730.2156     78.07714     155.8461     311.1055      1.897     4.00      834.074     54.81561     80.51837         6     0.915     0.499 -44.15   0
       492    721.9011    231.8549 307.6316616  +6.6008957     719.8442      1128.09     1723.842     77.83045     155.5373     311.2291      2.021     5.07      829.325     54.81561     99.32843         8     0.975     0.745 -60.60   0
       493    145.4718    230.2396 307.8711542  +6.5822062     2204.427     3550.597     3689.752     77.83045     155.5373     311.0437      1.733     4.52      838.877     54.81561     293.6924        21     1.554     0.868 -24.64   0
       494    120.1088    228.9378 307.8817329  +6.5818894     970.8124      1652.13     1663.003      77.9539     155.6609     311.0746      1.852     6.18     839.5975     54.81561     149.7399        11     1.424     0.754 -25.47   0
       495    775.2408    228.2408 307.6096254  +6.6041734     622.1789     846.6873     1329.019     77.70682     155.5373     310.8582      1.264     4.40     829.9474     54.81561     96.67743         7     0.922     0.599 -53.20   0
       496    172.2225    228.2700 307.8601093  +6.5839202     618.9038      966.598     1020.687     77.58298     155.4755      310.951      1.443     4.84     837.9795     54.81561     97.84674         6     1.457     0.456 -25.93   0
       497    919.5528    226.4584 307.5497370  +6.6097349     1458.777     2255.595     2158.574      77.9539     155.5373     311.1055      1.665     5.33     827.9781     54.81561     190.9131        16     1.441     0.862 -22.15   0
       498    581.2316    222.6900 307.6904027  +6.5999668     4587.675     7233.422     7933.975     78.07714     155.3517     310.9819      1.714     4.30     828.0091     54.81561     609.3359        28     1.528     0.961 -25.37   0
       499    543.9297    222.7228 307.7058965  +6.5987023     2034.449     3071.652     3264.381      78.2002     155.7844     310.9819      1.631     4.89     827.9556     54.81561     264.7739        20     1.578     0.829 -16.84   0
       500    302.0666    223.0771 307.8063507  +6.5904333     1056.225     1477.572     931.3688     78.07714     155.5991      310.951      1.493     4.35     834.7487     54.81561      151.064        12     1.245     0.645 -22.75   0
       501    385.7289    221.7799 307.7716428  +6.5937809     1523.638     2372.042     2436.085     77.58298     155.4136       310.92      1.705     4.26     831.4891     54.81561     192.5312        16     1.308     0.825 -29.47   0
       502    942.2535    219.9864 307.5405235  +6.6131656     2664.227     4098.247     4228.367     77.33471     155.4755     310.7344      1.618     3.91     827.1844     54.81561     353.0956        20     1.358     0.883 -27.98   0
       503    888.3012    219.3367 307.5629576  +6.6116311     11244.96     16644.04     17562.88     77.83045     155.5991     311.0128      1.612     4.00     828.7739     54.81561     1566.163        36     1.509     0.979 -26.99   0
       504    563.6513    219.0589 307.6978273  +6.6008766     951.0385     1577.198     1731.057      77.9539     155.5373     310.9819      1.807     4.47     827.8879     54.81561     146.1905        10     1.072     0.773 -30.82   0
       505    314.4110    220.3166 307.8013161  +6.5919881     540.7441     477.4776     843.8713     77.58298     155.2898     310.8272      1.247     3.88     834.1287     54.81561     117.7805         5     0.922     0.477 -36.26   3
       506    317.0120    218.5474 307.8002953  +6.5928061     665.6727     941.6351     1075.622     77.33471     155.4755     310.7035      1.539     3.16     833.9694     54.81561     123.0255         7     0.905     0.581  54.97   2
       507    974.9767    217.1546 307.5270245  +6.6154279      9629.75        14469      14906.4     77.58298     155.5373     310.8582      1.605     3.97     826.7009     54.81561     1294.871        35     1.514     0.979 -21.86   0
       508    686.3974    216.9888 307.6469084  +6.6058451     2605.701     4065.652     4427.248     77.58298     155.2279     310.8272      1.655     4.07     828.6996     54.81561     338.8621        21     1.364     0.920 -16.69   0
       509    260.7451    216.7004 307.8237295  +6.5916764     1081.406     1639.691     1843.332     77.70682     155.5373       311.26      1.730     5.54     835.6053     54.81561     139.3232        14     1.387     0.720 -39.93   0
       510     14.4653    215.7169 307.9260591  +6.5837873     24672.88     39591.85     41608.89     78.07714     155.7844     311.0437      1.765     4.11     841.1306     54.81561     2910.558        57     1.659     1.167 -28.73   0
       511    495.1852    211.7967 307.7265117  +6.6015783     1916.902     3115.086     2963.652     77.58298      155.166     310.8582      1.714     3.90     827.6862     54.81561     260.7565        18     1.366     0.846 -41.51   0
       512    826.8435    208.6922 307.5888442  +6.6139715     1971.571     2976.502     2619.939      77.9539     155.5373     311.1055      1.572     4.09     829.2209     54.81561     256.2217        15     1.317     0.734 -23.26   0
       513    738.4975    205.2067 307.6256608  +6.6124546      40495.1      60935.6     63847.81     77.70682      155.166     310.7654      1.661     3.94     828.3715     54.81561     5345.244        65     1.619     1.118 -26.17   0
       514    507.0404    207.8656 307.7217192  +6.6035992     2481.465     3760.967     3586.871      77.9539     155.4755     311.0746      1.584     3.94     827.5883     54.81561      327.429        23     1.472     0.906 -28.08   0
       515    879.4276    207.6495 307.5670351  +6.6161603     2120.592     3013.389     3530.359     77.58298     155.5991       310.92      1.601     3.95     828.4339     54.81561     322.9232        18     1.381     0.789 -30.02   0
       516    341.4998    204.5186 307.7905957  +6.5994217      5640.98     11912.89     13155.06      77.9539     156.0311     311.0746      2.209     6.29     832.5974     54.81561     569.8973        46     1.994     1.282 -66.46   0
       517    972.5275    203.9866 307.5284824  +6.6207833     2779.708     4452.945      4846.54     77.45895     155.2898     310.7654      1.733     4.12     825.9249     54.81561     356.1099        23     1.421     0.918 -28.92   0
       518    906.4144    202.3192 307.5560028  +6.6192632     7387.663     11100.55     11774.08     77.58298     155.2898     310.7963      1.629     4.02      827.076     54.81561     1004.235        35     1.500     1.031 -26.55   0
       519   1010.9474    202.6709 307.5125660  +6.6226094     1684.026     2193.615     1948.307     77.83045     155.4755       310.92      1.431     3.46     825.4932     54.81561     245.2747        16     1.193     0.827 -23.97   0
       520    449.8943    201.3277 307.7456771  +6.6043806     4773.209     7677.842     7854.153     77.83045     155.5991     311.0128      1.708     4.14     828.5471     54.81561     615.8187        28     1.533     0.969 -23.55   0
       521    224.5510    197.9397 307.8393957  +6.5982048     776.6831     1017.704     648.3704      77.9539     155.4755     311.0437      1.458     4.78     836.0822     54.81561     106.8799        10     1.007     0.780 -22.00   0
       522    107.2632    192.6224 307.8882935  +6.5964508         4634     7747.913     8206.055     77.58298     155.5373     310.8582      1.813     4.25     839.0085     54.81561     557.3951        34     1.610     1.101 -25.94   0
       523    926.5308    192.2379 307.5479834  +6.6240980      838.619     1210.559     1624.416     77.83045     155.5373     311.0746      1.599     5.20      825.712     54.81561     101.6484        10     1.173     0.652 -37.15   0
       524    277.5784    189.3310 307.8176591  +6.6035433     32581.86     52427.55     54630.05     77.58298     155.4755      310.951      1.742     4.15     834.8267     54.81561     4231.668        61     1.651     1.163 -30.62   0
       525    252.9508    190.3795 307.8278537  +6.6022819     6102.406     10069.65     10204.99     77.45895     155.5991     310.8582      1.734     4.22     835.4238     54.81561      751.688        34     1.639     0.998 -27.57   0
       526    603.8995    190.6671 307.6820616  +6.6139491     685.5708     1085.826      1032.03      77.9539     155.6609      310.951      1.849     4.70     827.3094     54.81561     133.6878         8     1.014     0.618 -15.07   0
       527    707.0577    188.6278 307.6392772  +6.6182475      868.412     1189.892     1145.611     77.58298     155.5991     310.8891      1.440     4.75     827.7716     54.81561     122.6627        10     1.112     0.710 -30.74   0
       528    401.6818    184.8540 307.7662583  +6.6095634     48569.82     77242.81     81378.86      77.9539     155.5373     311.0437      1.719     3.99     829.6716     54.81561     6307.803        70     1.666     1.172 -29.10   0
       529    157.7022    185.9704 307.8675668  +6.6008963     3937.684     6455.971     6296.934     78.07714     155.2898     311.0128      1.730     4.34     837.0139     54.81561     493.2967        32     1.560     1.086 -30.74   0
       530    419.1344    185.2827 307.7589942  +6.6099726     1365.618     2317.684     1982.702      78.2002     155.7844     311.0437      1.802     5.35     828.9886     54.81561     179.8417        17     1.526     0.811 -29.92   0
       531    305.6907    182.5134 307.8062112  +6.6073036     17625.99     28591.72     30396.68     77.70682     155.9695     311.1055      1.776     4.16     833.6946     54.81561     2138.666        57     1.792     1.159 -30.10   3
       532    313.1602    182.6011 307.8031054  +6.6075186     2066.243     3542.776     4315.683     77.08565     155.2898     310.6725      1.973     6.11     833.3915     54.81561     278.7214        25     1.854     0.974 -55.60   3
       533    740.9460    181.0909 307.6254522  +6.6224941     32883.83      49887.2      51771.2     77.83045     155.3517     311.1055      1.604     3.87     827.5164     54.81561     4273.081        56     1.581     1.085 -24.10   0
       534    688.8564    182.8354 307.6470325  +6.6200296     952.4716     1451.048     1295.285     77.83045     155.5373     311.0128      1.538     5.17     827.5538     54.81561     145.0353        11     1.358     0.557 -33.50   0
       535    789.4205    181.4823 307.6053019  +6.6239548     1277.825     1821.396     1652.162     77.70682     155.2279       310.92      1.603     4.03     827.5431     54.81561     177.1171        17     1.180     1.004   1.45   0
       536     28.3416    181.2709 307.9214584  +6.5984775     664.7754     1176.714      1197.17     78.07714     155.5373     310.9819      1.854     6.41     841.1254     54.81561     88.93744        10     1.337     0.864  -7.58   0
       537     57.7996    178.2410 307.9093247  +6.6007216     8665.586     14187.55     14998.92     77.21028     155.2279     310.6725      1.710     3.96     840.1818     54.81561     1086.876        38     1.567     1.072 -29.31   0
       538     91.4995    176.3066 307.8953919  +6.6026562     1355.828     2038.226     1843.816      77.9539     156.0311     310.8891      1.636     4.92     839.0763     54.81561     189.7077        16     1.432     0.781 -33.99   0
       539    999.7941    175.4440 307.5181098  +6.6334793     1059.414     1740.222     2047.563     77.33471     155.2279     310.6725      1.696     5.70     823.8599     54.81561     165.3777        12     1.303     0.756 -22.58   0
       540    726.0267    168.4162 307.6320749  +6.6272281     512.3537     835.4711     515.5179     77.58298     155.3517     310.8891      1.576     4.10     827.0538     54.81561     75.20331         5     0.778     0.618  85.99   0
       541    574.6758    165.8058 307.6950361  +6.6232346     759.2546     1118.864     994.9767     77.58298      155.042     310.8272      1.743     5.06     826.6494     54.81561       123.38         7     1.406     0.514 -22.64   0
       542   1000.2007    161.7966 307.5183973  +6.6391280     2189.036     3494.227     4186.429     77.33471      155.104     310.7344      1.667     4.59     823.0518     54.81561     292.3538        17     1.427     0.759 -31.18   0
       543    583.6905    159.2077 307.6915129  +6.6262612     983.1044     1445.232     1737.056     77.58298     155.2279     310.7963      1.739     3.92     826.4715     54.81561     172.5894        11     1.056     0.749 -40.98   0
       544    591.9122    157.4362 307.6881569  +6.6272683     1994.132     3089.937     2975.607      77.9539     155.4136     310.9819      1.709     4.33     826.4073     54.81561     231.1362        16     1.333     0.793 -27.81   0
       545    336.0349    157.5077 307.7944482  +6.6186485      1190.47     1579.732     1749.288     78.07714     155.4136     311.0437      1.493     4.10     831.9623     54.81561      153.885        12     1.133     0.714 -39.34   0
       546    276.4605    155.6132 307.8192591  +6.6174275      29497.5     47611.07     50771.38     77.45895     155.4136     310.6725      1.767     4.09     834.3209     54.81561     3518.028        62     1.774     1.162 -25.48   0
       547     21.8200    153.9398 307.9250901  +6.6095421     4268.395     6887.408     7134.426     77.58298     155.4136     310.8582      1.697     4.11     841.4341     54.81561     571.7635        28     1.535     0.969 -29.66   0
       548    708.2213    152.2938 307.6400123  +6.6332889     8040.865     12169.23     12889.97     77.83045     155.3517     310.8272      1.623     4.01      826.374     54.81561      1084.45        33     1.486     0.978 -26.68   0
       549    186.4087    153.2385 307.8567461  +6.6153776     892.9984     1199.634     835.2146     77.21028     155.2898     310.7035      1.511     5.39     835.8088     54.81561     114.0211        10     1.144     0.717  -2.13   0
       550    119.0535    149.2604 307.8848589  +6.6147516     4608.975      7403.76      8158.54      77.9539     155.4755      310.951      1.717     4.13     837.1053     54.81561     549.6681        30     1.561     0.999 -21.59   0
       551    262.8569    150.3868 307.8250860  +6.6191278     604.4183     1016.695     1251.789     77.33471     155.4136     310.7035      1.752     4.94     834.6514     54.81561     91.69031         7     1.033     0.668 -24.68   0
       552    647.0284    146.3124 307.6656340  +6.6337088     902.0994     1383.459     975.2107     78.07714     155.2898     310.8582      1.542     5.30     826.0403     54.81561     134.3382        10     1.423     0.705 -14.24   0
       553    581.1124    147.0500 307.6929921  +6.6311947      776.205     1128.581      826.741      77.9539     155.3517     311.1055      1.420     3.41     825.9387     54.81561     129.8372         7     0.877     0.535 -44.36   0
       554    458.0172    146.5567 307.7441444  +6.6272682     1297.333      1856.51     1843.635     77.45895     155.4136     310.7654      1.597     4.96     826.5383     54.81561     164.9337        13     1.266     0.688 -33.62   0
       555    389.7334    145.3549 307.7725506  +6.6254710     3712.425      6648.24     6923.641      77.9539     155.4755     311.0128      1.915     4.10     829.0871     54.81561     425.8947        35     1.574     1.227 -45.73   0
       556    565.9951    144.6699 307.6993521  +6.6316705     640.1966     1232.673     1496.103     77.45895      155.166     310.8272      2.233     4.43     825.8163     54.81561     100.3265         6     0.900     0.620 -41.87   0
       557    354.0722    144.0902 307.7874070  +6.6247948     3092.753     4953.526     4617.055      77.9539     155.7844     310.9819      1.690     4.17     831.1561     54.81561     384.2957        25     1.501     0.939 -26.71   0
       558    108.4399    143.9820 307.8894458  +6.6165734     1612.736     2766.677      3087.29     77.58298     155.3517     310.7654      1.776     4.86     837.2366     54.81561     226.9869        19     1.476     0.860 -32.71   0
       559    670.0665    142.2147 307.6562009  +6.6361726     764.1379     1142.536     847.6473     77.45895     155.4136       310.92      1.688     4.85     825.8974     54.81561     118.9454         8     1.073     0.622 -36.17   0
       560   1000.8016    138.5301 307.5189257  +6.6487550     1523.275     2549.012     2527.019     77.45895      155.104     310.8272      1.755     5.03     821.7897     54.81561     220.6863        16     1.500     0.738 -33.91   0
       561    205.9203    133.1376 307.8493187  +6.6243339     5322.121     8500.165     8471.136     78.07714     155.5991     310.9819      1.707     4.05     835.2566     54.81561      667.692        28     1.480     0.996 -29.17   0
       562    667.7175    132.0275 307.6575185  +6.6403002     6189.416     9341.375     9785.926     77.83045     155.3517       310.92      1.631     3.93     825.4187     54.81561     806.4849        29     1.435     0.961 -28.43   0
       563     88.5639    132.8675 307.8980771  +6.6204926     2105.929     3314.839     3090.351     77.83045     155.5991     311.0746      1.633     3.95     837.4761     54.81561     264.2046        19     1.312     0.887 -13.34   0
       564    816.3574    131.8485 307.5957747  +6.6453501     1199.745     1722.503     1796.675      77.9539     155.4755       310.92      1.529     4.57     824.9537     54.81561     169.2686        14     1.266     0.810 -12.39   0
       565    619.9256    129.3047 307.6774640  +6.6398230     9311.984     14493.67     15933.81     77.70681     155.7227     310.9819      1.666     4.25     825.2117     54.81561     1197.757        36     1.550     0.997 -28.59   3
       566    623.4468    120.8016 307.6762867  +6.6434519     52776.62     82048.83      86066.2     77.33471     155.2279     310.5797      1.682     4.05      824.851     54.81561     6754.337        72     1.636     1.161 -27.61   2
       567    254.9914    129.8092 307.8290466  +6.6273595     703.8322     1282.974     1650.432     77.33471     155.3517     310.8582      1.997     6.79     834.5774     54.81561     77.33551        14     1.648     0.784 -29.56   0
       568    557.8508    129.0076 307.7032614  +6.6378643     520.8327     617.7399     910.8788     77.45895     155.3517     310.6416      1.441     4.51     825.1172     54.81561     70.84766         6     1.059     0.545  12.38   0
       569     18.7402    127.9214 307.9272480  +6.6201807     954.9198     1743.119      1805.68     78.07714     155.5373      310.951      1.979     6.45     841.4702     54.81561     131.3116        11     1.331     0.878 -54.29   0
       570    347.1335    124.9246 307.7909345  +6.6324750     3725.285     6081.901     6209.949     78.07714     155.5991      310.951      1.766     4.64     831.4173     54.81561     447.1187        29     1.653     0.994 -37.10   0
       571    993.0080    124.0186 307.5226488  +6.6544868      930.984     1543.742     1861.292     77.58298     155.2279     310.8272      1.817     5.65     821.1675     54.81561     121.0669        13     1.318     0.809 -33.73   0
       572    528.9266    124.2407 307.7154374  +6.6388623     1765.462      2798.16     2829.096     77.83045     155.5991     311.0128      1.677     4.46     824.9512     54.81561     260.4858        20     1.549     0.827 -18.56   0
       573    302.5344    114.4311 307.8098148  +6.6353081     3485.037     5713.759     6123.995     77.70682     155.5991       310.92      1.817     4.16     833.2861     54.81561     426.1582        27     1.470     1.049 -26.30   0
       574    702.7274    109.1141 307.6437430  +6.6509340     917.2801      1540.26     1361.461     78.07714     155.8461     310.9819      1.817     4.68     824.2989     54.81561     147.7774        11     1.282     0.615 -34.82   0
       575      1.9873     97.1452 307.9352464  +6.6323226     502066.6     701806.1     739918.2     74.42015     132.8665     244.1997      1.496     9.69     842.7038     54.81561      61950.7       228     1.996     1.312 -87.77  28
       576    673.9038    107.9270 307.6557572  +6.6504586     1278.954     1742.569     1835.608     77.70682     155.6609      310.951      1.462     5.45     824.2803     54.81561     182.2836        14     1.236     0.762 -25.06   0
       577    687.7449    104.6528 307.6501169  +6.6522742     3098.114     4705.941     4710.118      78.2002     155.5373      310.951      1.552     3.90      824.122     54.81561     419.3362        25     1.512     0.917 -20.18   0
       578    429.6629     95.7312 307.7576325  +6.6473017     4273.524     6452.363     6503.352      77.9539     155.5373     311.0437      1.632     3.87     825.7238     54.81561     539.4602        25     1.442     0.925 -32.54   0
       579    884.0656     92.1220 307.5689763  +6.6640175      2201.98     3355.045     3408.319     78.07714     155.5373      310.951      1.568     4.09      822.214     54.81561     289.3016        20     1.362     0.882 -26.21   0
       580    902.0717     91.2260 307.5615256  +6.6649893     3900.013     6063.459     6278.332     77.58298     155.4136       310.92      1.657     4.55     821.9489     54.81561     513.8717        26     1.483     0.919 -20.32   0
       581    582.3779     91.5230 307.6943312  +6.6541642     828.2401     1359.035     1408.386     77.58298     155.3517       310.92      1.990     5.22     823.6862     54.81561     110.7692        10     1.232     0.624 -33.59   0
       582    594.1293     89.6474 307.6895122  +6.6553326     1839.763     2903.292     2555.683      77.9539     155.4755     310.9819      1.778     4.83      823.658     54.81561     228.2115        19     1.495     0.841 -20.95   0
       583    392.9658     87.5648 307.7731522  +6.6494408     1868.426     3119.362     3094.078     77.70681     155.2898     310.7344      1.750     4.96     827.9792     54.81561     239.5211        20     1.543     0.846 -31.05   0
       584    240.5641     88.7860 307.8364221  +6.6438121     745.9703     1206.555     1498.514     77.58298     155.3517     310.7654      2.053     5.79     834.1302     54.81561     107.1877         9     1.304     0.724 -30.02   0
       585    140.8728     84.3950 307.8779833  +6.6422686     3188.986     4994.318     4742.025     77.58298      155.104     310.8891      1.679     4.29     834.2677     54.81561     396.9963        26     1.525     0.966 -32.88   0
       586     22.7226     82.2481 307.9271361  +6.6391727        12034     19411.39     21002.89     77.83045     155.5991      310.951      1.755     4.09     839.3926     54.81561     1509.537        47     1.606     1.170 -21.41   0
       587    550.0610     82.1762 307.7080707  +6.6569396      711.926     1236.826     1126.173     77.58298     155.4755     310.8891      1.646     4.99     823.5453     54.81561     98.51343         8     0.945     0.746 -66.06   0
       588    289.5170     82.7137 307.8162907  +6.6479662     1265.365     2186.851     2796.607     77.70682     155.7227     311.0437      1.972     4.89     833.8339     54.81561     204.1731        12     1.215     0.742 -20.74   0
       589    757.2554     81.5883 307.6220127  +6.6641251     664.1124     1363.187     2317.207     77.33471     155.4755     310.6725      2.475     3.93     822.9567     54.81561     104.1129         6     1.396     0.317 -16.08   0
       590    891.8801     78.3655 307.5661903  +6.6699588     795.3438     1129.696     1388.081     77.83045     155.5991     311.0128      1.580     5.80     821.4949     54.81561     101.7971        12     1.338     0.709 -39.23   0
       591    824.4423     76.9544 307.5942550  +6.6682866     6196.892     9213.955     9956.731     77.83045     155.5373     310.8272      1.641     4.23     822.3335     54.81561     790.8588        29     1.465     0.935 -25.84   0
       592    769.5278     77.3672 307.6170556  +6.6662788     3195.885     5075.212     5634.146     77.83045     155.5373     310.9819      1.804     4.09     822.7048     54.81561       417.21        26     1.478     0.973 -18.31   0
       593    414.4887     77.8117 307.7645390  +6.6541908      969.954     1465.128     1476.296     77.70682     155.2279     310.8272      1.639     5.44     826.3504     54.81561     129.0793        10     1.403     0.595 -26.93   0
       594    532.0638     75.2473 307.7157803  +6.6591968     1134.884     1584.067     1859.906     77.83045     155.4136     311.0437      1.583     4.56     823.5161     54.81561     169.2021        13     1.286     0.672 -26.00   0
       595     63.1228     74.0458 307.9106306  +6.6439215     3152.474     4965.617     5336.107     77.83045     155.5991     310.9819      1.722     4.03      836.319     54.81561     384.7352        26     1.471     0.998 -21.45   0
       596     47.6728     74.9235 307.9170190  +6.6430383      1027.64     1432.193     1780.581      78.2002     155.7844     311.0128      1.568     3.73     837.2258     54.81561     144.1423        13     1.141     0.852 -19.49   0
       597    423.8912     73.9688 307.7607622  +6.6560934     765.8146     1091.038     1127.619     78.07714     155.3517     310.9819      1.493     5.46     825.8609     54.81561     95.46173         9     1.245     0.676 -39.07   0
       598    586.8704     70.7160 307.6931636  +6.6629060     1209.572     1797.542     1170.387      78.2002     155.7844     311.0128      1.566     5.62     823.3903     54.81561     168.6329        13     1.331     0.667 -32.91   0
       599      5.4835     69.4000 307.9347312  +6.6438959     2556.112     3920.426      4535.66     77.21028      155.042     289.5261      1.734     4.30     838.8608     54.81561     324.1987        22     1.416     0.916 -26.64  16
       600    764.2034     64.7494 307.6196906  +6.6713105      2025.36     3032.331     3294.864     77.33471     155.2898     310.5797      1.698     3.90     822.1297     54.81561      269.377        17     1.241     0.859 -23.11   0
       601    405.2033     64.8550 307.7688324  +6.6592286     1153.617     1298.918     1214.702     77.33471     155.3517     310.6725      1.267     3.17     827.0485     54.81561     195.0355        10     0.950     0.681 -25.75   0
       602     77.5047     65.3010 307.9049514  +6.6480169     786.2287     1175.023     1243.953      77.9539     156.0311     310.8272      1.635     5.01     835.0353     54.81561     128.8942         8     1.264     0.563 -15.67   0
       603    102.0161     63.3677 307.8948343  +6.6496413     768.1376     1345.026     1678.527     77.58298     155.2898     310.8582      1.720     5.55     834.0791     54.81561     90.36267        11     1.224     0.710 -34.15   0
       604     90.8620     58.3944 307.8996357  +6.6513187     9184.196     14823.62     15363.11     77.33471     155.2898     310.7654      1.719     4.11     834.1851     54.81561      1141.68        39     1.566     1.076 -27.78   0
       605    419.9925     58.2096 307.7629120  +6.6624693     2473.978     3934.358     3992.474     77.45895     155.3517     310.8582      1.661     4.09     825.9937     54.81561     310.2224        21     1.352     0.921 -32.99   0
       606    241.4991     57.6411 307.8370832  +6.6567029     627.1339     1083.035     1018.628      77.9539     155.4136     311.1982      1.861     4.36     833.9904     54.81561     88.34418         7     0.979     0.553 -31.16   0
       607    633.5790     50.5482 307.6744357  +6.6727991     18390.23      28131.8     29889.48     77.45895     155.5991     310.7963      1.685     3.98     822.7693     54.81561     2379.619        46     1.567     1.070 -29.04   0
       608    257.6593     52.2354 307.8305520  +6.6594786      1376.56     2099.794     2804.414      77.9539     155.5373      310.951      1.849     4.74      833.933     54.81561     173.0986        16     1.359     0.863 -28.11   0
       609    943.7721     50.2211 307.5455732  +6.6833139     389.7509     386.1313     229.7004     77.33471     155.2898      310.951      1.179     3.88     819.3621     54.81561     77.30658         5     1.245     0.346  78.55   0
       610    533.4147     46.5285 307.7161841  +6.6711000     5266.606     8092.195     8243.084     77.45895     155.4136     310.8891      1.658     3.95     823.0928     54.81561     685.9061        32     1.503     1.010 -32.92   0
       611    251.8486     46.6641 307.8331536  +6.6615834     1927.112     3089.097     4109.291     77.83045     155.4136     311.0437      1.854     4.59     833.9263     54.81561     260.9408        22     1.553     1.018 -38.47   3
       612    259.5427     42.4994 307.8300976  +6.6635619     9175.138     14505.42     15721.67     77.70682     155.5373     311.1673      1.750     4.25     833.9022     54.81561     1095.103        38     1.611     1.053 -27.32   2
       613      1.8268     44.4390 307.9370934  +6.6540784     1002.089     1115.022      1314.01      73.2481     130.6775     241.8257      1.263     4.03     835.7112     54.81561     155.6287        11     1.057     0.842 -76.60  24
       614    620.9565     44.6057 307.6798792  +6.6748297      801.877     1298.496      1244.24     77.33471     155.2279     310.6725      1.784     6.43     822.8399     54.81561     117.8704        10     1.391     0.834  -1.65   3
       615    619.8536     40.2557 307.6804835  +6.6765888     3267.157     5052.282     5459.199     78.07714     155.5373      310.951      1.658     3.98     822.7686     54.81561     427.9067        25     1.449     0.951 -33.40   2
       616    438.9401     42.1889 307.7555792  +6.6697205     22115.65     35411.32      36974.2     77.33471     155.4136     310.7035      1.695     4.00     825.1064     54.81561     2837.224        52     1.598     1.135 -27.35   0
       617    319.5501     42.8450 307.8051567  +6.6654376     1121.864     1817.978     1670.726      77.9539     155.4136     310.9819      1.754     4.42     832.5234     54.81561      139.527        14     1.256     0.915 -64.21   0
       618    917.0067     42.0516 307.5569669  +6.6857928     1780.927     2508.094      3146.25     77.45895     155.3517     310.6106      1.585     4.55      819.786     54.81561     228.7233        15     1.176     0.829 -28.54   0
       619     24.8957     42.0666 307.9275904  +6.6558361     2302.342     3902.564      4323.89      77.9539     155.6609     311.0128      1.771     4.10     834.9671     54.81561     280.3726        24     1.434     0.998 -29.87   0
       620    552.7129     41.4329 307.7083379  +6.6738514     631.5475     949.2372     1068.817      77.9539     155.3517     310.9819      1.617     4.33     822.9677     54.81561     83.81238         7     0.991     0.538 -60.25   0
       621    247.6156     39.1033 307.8351669  +6.6645628     3012.382     4826.855     5401.136     77.70681     155.2898     310.7963      1.709     3.85     833.9008     54.81561     392.2714        27     1.423     1.065 -21.88   0
       622    300.6026     37.3813 307.8132122  +6.6670563     1038.487     1614.531     1903.615     77.58298      155.104     310.7344      1.800     4.91     833.3535     54.81561     129.3595        12     1.161     0.772 -33.29   0
       623    937.2386     32.3987 307.5488841  +6.6904546      912.598     1215.401     893.4537     77.08565     155.3517     310.7344      1.504     5.73     818.9454     54.81561     127.6335        11     1.337     0.691 -30.13   0
       624    688.8177     31.7043 307.6521186  +6.6824306     1848.739     2725.596     2736.507     77.83045     155.3517     310.7963      1.566     4.17     821.3633     54.81561     248.3135        17     1.327     0.796 -23.71   0
       625     94.2482     31.6389 307.8991319  +6.6624797     607.8563     858.5502    -94.52759     77.83045     155.5991     310.8272      1.614     5.39     833.1859     54.81561     76.50647         7     1.181     0.694 -36.35   0
       626    200.0917     27.1660 307.8553123  +6.6678919     744.0304     1153.015     678.8276     78.07714     155.4136     311.0437      1.434     5.28      833.546     54.81561     109.0583        10     1.390     0.567 -54.00   0
       627    254.7944     26.7559 307.8326007  +6.6699024     709.6476     1029.961     1443.115     77.33471     155.2279     310.6725      1.559     4.48     833.8585     54.81561     117.8987         8     1.002     0.785 -43.60   0
       628    177.0553     24.5143 307.8649718  +6.6682111     10812.98     16806.01     17270.16      77.9539     155.5373     311.1673      1.672     3.99     833.2459     54.81561     1333.298        39     1.573     1.042 -27.87   0
       629    521.3219     22.7621 307.7220068  +6.6805073      2984.09      4818.85     4816.942     77.83045     155.5991     310.9819      1.676     3.89     822.7549     54.81561     389.7928        27     1.503     1.005 -20.79   0
       630    922.6493     22.3703 307.5552813  +6.6941079     4084.153     6073.114     6206.648     77.58298     155.5991     310.8891      1.618     4.09     818.9693     54.81561     530.0284        24     1.414     0.906 -26.24   0
       631    723.4958     21.1080 307.6380666  +6.6879673     2063.291      3002.64     2642.241      77.9539     156.0311      310.951      1.580     4.08     820.3464     54.81561     265.7233        19     1.314     0.899 -40.66   0
       632    459.3385     21.0370 307.7478161  +6.6791390     1673.769     2533.752     2133.619      77.9539     155.5991     310.9819      1.649     4.29     823.9313     54.81561     209.9022        19     1.326     0.902 -35.54   0
       633    239.2421   1020.8328 307.8055867  +6.2589287     1184.174     1909.745     2059.035     77.70682     154.4206     274.7351      1.593     4.80     857.9459     54.81561       195.47        11     1.319     0.629 -21.70  16
       634    782.2431     17.8023 307.6137696  +6.6912988     543.8354     987.6673     936.4902     77.33471      155.166     310.6725      1.865     5.24      819.793     54.81561      85.1048         5     1.199     0.647 -67.76   0
       635    437.6060   1019.5683 307.7232855  +6.2661133     807.4178     1154.539     961.6769     77.33472     155.3517      289.094      1.640     5.30     856.6583     54.81561     134.4611        10     1.280     0.620 -20.15  16
       636    730.3155   1018.1467 307.6018209  +6.2765083     990.1035     1553.599     1620.606      77.9539     155.5373     302.5186      1.637     5.69     855.9397     54.81561     136.6982        12     1.369     0.667 -16.56  16
       637    361.3893   1016.4057 307.7550307  +6.2648608     1863.769     3066.292     2978.222     77.58298     155.3517     310.8891      1.742     4.45     856.6025     54.81561     242.3529        20     1.485     0.908 -39.45  16
       638    383.1882     12.6805 307.7797341  +6.6800313     607.8864     989.6052     1162.268     77.58298     155.2279     310.8272      1.491     4.36     828.7549     54.81561     115.4266         7     1.111     0.488 -31.86   0
       639    748.0822   1006.0629 307.5948498  +6.2820923     7234.648     12116.86     12706.36     78.07714     155.5373      310.951      1.758     4.15     855.2105     54.81561     884.8503        38     1.582     1.118 -24.59   0
       640    543.5977   1006.5577 307.6797223  +6.2750403     4075.421     6504.401     7347.208     77.33472      155.166     310.7035      1.782     3.99     856.9384     54.81561     508.0267        28     1.541     0.930 -33.58   0
       641    513.7312   1007.7700 307.6920800  +6.2735384     998.9295     1553.904     1597.813     77.83045     155.5373      310.951      1.599     5.37     856.8312     54.81561     149.4291        11     1.328     0.614 -11.74   0
       642    809.2379   1005.3130 307.5694865  +6.2844472     1021.795     1650.824     1723.323      77.9539     155.4755     310.9819      1.805     5.95     852.9161     54.81561      137.595        14     1.372     0.933 -40.16   0
       643    418.4344   1005.8691 307.7317041  +6.2711265     1048.963     1563.662     1855.873     77.83045     155.5373     311.0746      1.492     4.01     856.5463     54.81561     178.8942        11     1.218     0.609 -52.94   0
       644    293.9216   1005.1340 307.7834167  +6.2672485     14897.32      23319.7     25718.08     78.07714     155.6609      310.951      1.731     3.99     857.2678     54.81561     1991.737        57     2.016     1.051 -31.59   0
       645    265.4405   1002.8292 307.7953172  +6.2672430     987.7621     1720.381     1842.466     77.58298     155.3517     310.8582      1.737     4.69     857.2925     54.81561      139.189        11     1.322     0.704 -38.33   0
       646    909.5005    999.4785 307.5280578  +6.2902069     7959.259     13728.06     14224.85     77.70682     155.7844     311.0128      1.874     4.10     851.9708     54.81561     964.6304        45     1.651     1.220 -22.22   0
       647    540.8595    998.7198 307.6811219  +6.2781848     8299.081     12880.53     14290.54     78.07714     155.5373      310.951      1.674     3.85     856.7675     54.81561      1008.41        35     1.519     1.043 -32.12   0
       648   1004.9011    995.1666 307.4885960  +6.2951724     4332.915     7980.254     8753.675      77.9539     155.4136     311.1055      1.976     4.37     847.8167     54.81561     502.9239        40     1.714     1.280 -25.09   0
       649    883.0753    995.6838 307.5391551  +6.2908911     11340.53     19656.57     20803.38     78.07714     155.8461     311.0746      1.870     4.15     851.9028     54.81561     1329.063        51     1.724     1.254 -28.34   0
