#   1 NUMBER                 Running object number                                     
#   2 X_IMAGE                Object position along x                                    [pixel]
#   3 Y_IMAGE                Object position along y                                    [pixel]
#   4 ALPHA_J2000            Right ascension of barycenter (J2000)                      [deg]
#   5 DELTA_J2000            Declination of barycenter (J2000)                          [deg]
#   6 FLUX_APER              Flux vector within fixed circular aperture(s)              [count]
#   9 FLUXERR_APER           RMS error vector for aperture flux(es)                     [count]
#  12 FLUX_RADIUS            Fraction-of-light radii                                    [pixel]
#  13 FWHM_IMAGE             FWHM assuming a gaussian core                              [pixel]
#  14 BACKGROUND             Background at centroid position                            [count]
#  15 THRESHOLD              Detection threshold above background                       [count]
#  16 FLUX_MAX               Peak flux above background                                 [count]
#  17 ISOAREA_IMAGE          Isophotal area above Analysis threshold                    [pixel**2]
#  18 A_IMAGE                Profile RMS along major axis                               [pixel]
#  19 B_IMAGE                Profile RMS along minor axis                               [pixel]
#  20 THETA_IMAGE            Position angle (CCW/x)                                     [deg]
#  21 FLAGS                  Extraction flags                                          
         1      1.7951     62.6375 307.9347922  +6.6329801     86774.77     125865.6     143679.5     85.49552     153.4982     284.5463      1.603     3.77     1212.947      64.6803     23088.24       154     2.604     1.462 -87.96  24
         2     87.8196     24.7277 307.9002701  +6.6515205     4159.101     12140.17     15130.35     91.54491      183.382     366.8736      2.754     7.12     1205.975      64.6803     527.6221        64     2.222     1.777 -49.83   0
         3    417.4453     24.2679 307.7630749  +6.6626773     1106.677     3040.234     4258.409     91.98257      183.455     366.9831      3.146     8.33     1186.918      64.6803     166.7628        23     1.981     1.267 -48.83   2
         4    630.4221     16.4575 307.6746801  +6.6729720     8428.785     22943.03     28016.68     91.54491      183.455     366.7276      2.677     6.46     1176.529      64.6803     938.0393        79     2.252     1.823 -48.66   0
         5    530.3221     12.4790 307.7164845  +6.6712979     2311.823     6630.008     8321.951      92.2732     183.8195     367.0925      2.776     7.37     1178.282      64.6803     281.5736        46     1.919     1.701 -49.09  16
         6    256.2381      8.8346 307.8307023  +6.6636990     3741.705     11153.16     14748.38     91.69103      183.382     366.6911      2.973     7.56     1203.933      64.6803     457.1327        67     2.465     1.777 -44.03  18
         7    435.8297      8.2215 307.7559637  +6.6699217     9110.263      27784.6     34002.21     91.39855      183.309     366.1796      2.764     7.10     1186.203      64.6803     1055.903        83     2.336     1.888 -49.47  16
         8     22.1616      9.3760 307.9281205  +6.6556780     1023.865     2395.534     2939.795     91.54491      183.236     366.7276      2.670     8.01     1207.908      64.6803     156.4325        16     1.759     1.020 -49.11  16
         9    616.7704      7.1528 307.6806767  +6.6763664     1538.203     4497.857     5997.701     91.54491     183.6009      359.278      2.985    10.16     1176.425      64.6803     173.6219        33     2.120     1.476 -49.07  18
        10    913.8113      7.8243 307.5569965  +6.6859185     1288.518     2946.387     4243.322     91.54491      183.309     364.2736      2.756     5.77     1166.509      64.6803     207.3113        22     1.403     1.279  66.18  16
        11    244.4074      6.2325 307.8357151  +6.6643811     1129.479     3275.012     5182.049     91.39855      183.382     350.4503      3.235     9.19     1203.905      64.6803     154.7811        22     1.877     1.256 -35.40  16
        12    427.4722    997.0114 307.7260818  +6.2608509     2743.554     5656.714      6599.73     91.39855     183.0898     366.7276      2.193     6.08     1238.402      64.6803     277.6602        37     1.761     1.442 -49.53   0
        13   1005.7606   1022.9205 307.4846656  +6.2692718     734.1757     893.5311     1006.891     89.17441      158.476     290.1371      1.251     3.69     1230.935      64.6803      142.457         6     0.772     0.624 -26.77  24
        14    704.7250    995.7109 307.6108000  +6.2705753     977.2623     1604.072      2039.53     91.98257     183.8924      367.056      1.963     5.15     1235.697      64.6803     145.1046         9     1.097     0.684 -42.23   0
        15    744.8168    991.8292 307.5942536  +6.2735065      1025.01     2045.861     3341.292     91.54491      183.236     366.8736      2.957     6.27     1234.915      64.6803     147.2792        12     1.273     0.904 -60.87   0
        16    952.0967    986.1616 307.5082208  +6.2826987     5975.035     9540.011     10215.27     91.98257      183.382     367.1289      1.716     3.88     1232.248      64.6803     862.9165        29     1.502     1.010 -44.60   0
        17    237.0332    986.5673 307.8056466  +6.2588441      896.244     1785.883     1993.325     91.39855      183.236     366.6546      2.152     6.15     1237.945      64.6803     113.7449        12     1.519     0.701 -54.70   0
        18    711.6974    984.7098 307.6082695  +6.2753543     2166.335      4233.51      5373.14     91.98257     184.0379     366.9466      2.352     6.38     1235.089      64.6803     248.7218        28     1.850     1.089 -48.09   2
        19    727.8686    983.9322 307.6015689  +6.2762108     788.0715     1216.148     1624.885     91.98257     183.6738     366.9466      1.634     3.33     1234.779      64.6803     112.9075         5     0.782     0.512 -31.22   0
        20    358.8563    981.6782 307.7551397  +6.2649126     1257.637     2536.935     2657.608     91.98257      183.528     366.9466      2.139     6.58     1238.233      64.6803     166.3232        16     1.217     0.999 -46.59   0
        21    511.7672    974.0955 307.6917909  +6.2731209     777.2484     1576.004      1592.11       92.128      183.382      367.056      2.172     5.33     1237.235      64.6803     115.0331         7     1.161     0.690 -82.67   0
        22    291.3082    971.0643 307.7835946  +6.2670572      10004.2      21076.7     23847.43     91.98257     183.7467     367.0195      2.269     5.13     1237.836      64.6803     958.2208        69     2.197     1.484 -42.47   0
        23    745.4089    971.4720 307.5946914  +6.2819425     6144.406     11156.05     11664.13     91.39855     183.0167     366.7641      1.929     4.27     1234.044      64.6803     771.0143        41     1.723     1.222 -50.02   0
        24    541.0710    971.9796 307.6796729  +6.2749670     2945.827     6332.458     7680.003     91.54491      183.382     366.9101      2.261     5.20     1236.993      64.6803     320.9366        39     1.749     1.366 -45.01   0
        25    806.5266    970.5847 307.5692977  +6.2843304     963.5073      1775.04     2394.576     91.39855      183.236     366.8371      2.254     6.44     1233.474      64.6803     121.4823        12     1.451     0.801 -41.27   0
        26    568.8547    996.1011 307.6673038  +6.2659151     2834.721     5817.505     7376.887     91.83691      183.528     367.2383      2.271     5.83     1238.213      64.6803     296.8734        34     1.802     1.225 -46.87   0
        27    262.2227    967.7537 307.7958045  +6.2674593     685.7332     1267.081     1119.186     91.54491      183.528     366.8006      2.141     4.29      1237.64      64.6803     103.5977         5     0.758     0.692  25.36   0
        28    906.7325    964.7835 307.5278086  +6.2900396     7648.606     13084.78     13815.27     91.39855      183.455     366.8371      1.819     4.14      1231.73      64.6803     912.9893        37     1.714     1.067 -44.28   0
        29    538.1697    964.3780 307.6811358  +6.2780136     5638.929        11651     13720.64     91.39855      183.309     366.7641      2.202     5.08     1236.579      64.6803     596.4309        44     1.803     1.356 -39.36   0
        30    880.3403    960.9410 307.5389163  +6.2907565      10598.5      19007.2     21004.15     91.98257      183.528     366.9831      1.960     4.31     1231.744      64.6803     1268.592        55     1.880     1.284 -43.08   0
        31   1002.0450    960.4248 307.4883061  +6.2949877     4539.774      7610.75     7573.599     91.39855      183.528     366.8006      1.778     3.98     1229.445      64.6803      613.902        34     1.597     1.107 -53.64   0
        32    524.6299    960.0049 307.6869151  +6.2793728      2805.33     5831.409     6760.367     91.39855      183.309     366.7276      2.185     5.29     1236.445      64.6803     276.8909        35     1.707     1.344 -47.20   0
        33    634.2016    959.4208 307.6413561  +6.2832445     1080.344     1970.707     2138.264     91.54491     183.1629     366.6181      1.850     6.99     1235.223      64.6803      121.736        15     1.323     1.036  -9.89   0
        34    593.5217    960.8654 307.6582293  +6.2813000     975.4285     1844.973     2015.558       92.128     183.6009     366.9101      2.103     5.38     1235.964      64.6803     145.0988         8     1.055     0.776   7.21   0
        35    477.8297    956.7599 307.7064918  +6.2791626     1492.074     3330.927     3059.345     91.39855      183.236     366.8006      2.180     6.62     1236.607      64.6803     174.8215        25     1.663     1.218 -66.40   0
        36    912.0865    948.5626 307.5261257  +6.2969228     36884.89     64415.05     69527.07     91.98257      183.455     366.9466      1.902     4.25     1230.455      64.6803      4563.26        74     1.851     1.294 -49.94   0
        37    219.7381    947.3495 307.8141653  +6.2744826     1249.391     2662.773     2913.062     91.98257      183.455     367.0195      2.259     7.50     1236.829      64.6803       133.75        21     1.346     1.170  80.66   0
        38    618.7853    945.3198 307.6482434  +6.2885639     650.9995      1255.46     1319.297     91.54491      183.236     366.7276      2.455     4.53      1234.64      64.6803     97.96741         6     1.175     0.496 -47.28   0
        39    810.0052    942.4404 307.5687960  +6.2960813     1766.204      3416.75     3188.105     91.10514     183.1629     366.6181      1.989     5.06     1231.829      64.6803     222.9689        19     1.342     1.080 -47.43   0
        40    758.3154    940.1553 307.5903750  +6.2953169     5087.048     9679.972     10801.94     91.98257      183.455     366.9466      2.055     4.97     1232.559      64.6803     542.9486        42     1.885     1.224 -47.17   0
        41    228.8204    939.5528 307.8106508  +6.2780079     910.8405     1764.111     1549.762     91.54491      183.528     366.7276      2.079     5.86     1236.743      64.6803     107.0151        10     1.178     0.821 -82.27   0
        42    545.1990    939.2268 307.6790587  +6.2886450     849.1544     1530.164     1888.159     91.54491     183.1629     366.7276      2.149     4.87     1235.182      64.6803     104.5171         8     1.010     0.665 -61.14   0
        43     53.1193    937.7638 307.8837944  +6.2729010     1866.425     3689.742     4123.331     91.83691     183.6009     366.9466      2.126     5.82     1235.275      64.6803     211.4584        25     1.554     1.160 -53.80   0
        44    946.5139    935.2094 307.5122521  +6.3035803     6003.011     10173.92     11418.08     91.54491     183.1629     366.7641      1.866     4.34     1228.986      64.6803     790.4795        38     1.800     1.088 -48.37   0
        45    628.8309    929.8464 307.6445853  +6.2952938     595.7515     1338.449     1503.446     91.39855      183.528     366.8371      2.338     6.19      1233.58      64.6803     91.15637         6     1.223     0.881 -48.60   0
        46    920.0633    926.9621 307.5235322  +6.3061168     1745.008      3103.04     3256.056     91.98257      183.455     366.9831      1.938     5.06     1228.695      64.6803     226.4109        22     1.441     1.129 -69.98   0
        47    253.3667    923.4294 307.8009851  +6.2854897     2782.436     5952.046     6389.891     91.39855      183.236     366.6546      2.172     5.85     1236.733      64.6803     265.1025        37     1.712     1.419 -32.76   0
        48    779.8126    923.3637 307.5819967  +6.3029702     960.7103     2072.999     2241.272     91.39855      183.309     366.6181      2.233     7.78     1231.415      64.6803     111.5256        15     1.709     0.991 -61.26   0
        49    640.9951    923.0717 307.6397531  +6.2984976     3063.052     6455.501     6431.268     91.54491     183.0898     366.8006      2.154     5.14     1233.109      64.6803     311.2297        41     1.791     1.376 -31.81   0
        50    989.8413    922.2904 307.4946612  +6.3103515     789.8708     1026.021     1310.255     91.98257      183.528     366.9831      1.403     3.11     1227.966      64.6803     126.5331         6     0.762     0.547 -48.32   0
        51    463.3451    921.7308 307.7136976  +6.2931643     717.5417     1256.481     550.6818     91.98257      183.382     366.9101      1.701     5.26     1235.436      64.6803      102.702         5     1.407     0.554  54.41   0
        52     22.3005    920.9943 307.8971809  +6.2788072     1622.387     3434.922     4182.657     91.69102     183.0898     366.6181      2.306     5.71     1234.982      64.6803     178.7031        26     1.472     1.245 -44.22   0
        53    872.2087    919.4517 307.5436916  +6.3076414     775.0038     1513.766     1399.923     91.39855      183.382     366.6181      1.869     6.24     1229.273      64.6803      106.933         9     1.529     0.717 -18.01   0
        54    944.0844    916.5405 307.5138890  +6.3112186     680.9944     991.7686     657.9941     91.98257     183.6009      367.056      1.444     3.86     1228.036      64.6803      131.681         5     1.230     0.437 -31.21   0
        55    565.7786    915.6158 307.6712931  +6.2990885     1147.311     2206.368     1900.466     91.69103      183.236     366.8736      1.991     7.29     1233.927      64.6803     127.7489        15     1.306     1.153 -64.93   0
        56    996.3426    916.0790 307.4921649  +6.3131341     711.4689     1052.449     1503.685     91.98257      183.528     366.9101      1.304     3.11      1227.37      64.6803     128.1691         6     0.749     0.611 -28.54   0
        57    604.0123    912.3965 307.6554968  +6.3016862     659.7563     1190.208       789.72     91.54491     183.1629     366.8006      1.726     3.57     1233.242      64.6803     96.08545         5     0.776     0.584  88.39   0
        58    285.2782    909.5052 307.7881812  +6.2923070     892.0975     1804.618     2373.091     91.69103     183.7467     366.9831      2.244     6.90     1236.912      64.6803     106.3743        11     1.273     1.049 -30.67   0
        59    889.1153    902.1130 307.5372404  +6.3153684     5690.951     10220.96     11039.54     91.69103     183.7467     367.0195      1.910     4.29     1228.243      64.6803     637.2216        42     1.708     1.245 -46.77   0
        60    425.6205    899.3209 307.7301457  +6.3011777     1240.539     2761.535     2540.726     91.54491     183.1629     366.9466      2.168     7.92     1235.456      64.6803     146.2908        21     1.664     1.055 -25.97   0
        61    326.8923    898.1420 307.7712544  +6.2983874     5636.353     13063.45     14628.17     91.83691      183.455     367.0925      2.312     5.50     1236.663      64.6803      509.754        53     1.942     1.532 -44.95   0
        62    246.9886    897.2047 307.8045240  +6.2961197      4318.27     9828.559     10545.48     91.54491      183.236     366.8371      2.285     5.36     1236.331      64.6803     416.9188        46     1.776     1.499 -50.25   0
        63    904.7010    887.0552 307.5312620  +6.3221087     884.8831     1413.257     1540.488     91.83692      183.528     367.2383      2.053     5.33     1227.463      64.6803     121.3092        10     1.475     0.544 -39.73   0
        64    860.9943    885.3968 307.5495001  +6.3213506     805.2128     1485.378     1113.624     91.25196     183.1629     366.7641      1.982     4.62     1227.817      64.6803     119.2074         7     0.994     0.610 -48.81   0
        65    741.3945    879.6531 307.5994475  +6.3197713     1103.832     2235.529     2444.974     91.39855      183.236     366.5815      2.155     6.90     1229.836      64.6803     134.4817        14     1.193     1.120 -37.86   0
        66    972.3215    876.0257 307.5035010  +6.3289012     1250.546     1924.663     3131.774     91.69102      183.455     366.9101      1.775     4.65     1224.823      64.6803     161.9056        12     1.261     0.670 -58.33   0
        67    660.2737    873.5843 307.6333982  +6.3195958     1650.157     3598.166     3474.347     91.39855      183.236     366.8006      2.156     6.07     1230.408      64.6803     196.4623        29     1.688     1.264 -56.65   0
        68    527.1263    876.0838 307.6887035  +6.3141514     756.2656     1408.332     1330.672     92.12801     183.8924     366.9831      2.523     4.26     1233.318      64.6803     173.0217         6     0.837     0.618 -85.49   0
        69     56.7478    870.7446 307.8845530  +6.3007288     1746.863     4010.755     4213.738     91.98257      183.528     366.9101      2.286     7.42     1233.551      64.6803     200.2581        27     1.611     1.273 -56.93   0
        70    820.4111    870.7227 307.5668760  +6.3260763     706.6006     1140.723     2039.663     91.54491     183.0898     366.7641      2.981     5.32     1228.373      64.6803     122.3528         5     1.083     0.739 -35.69   0
        71     74.1422    869.6756 307.8773537  +6.3017500     1335.579     3000.369     3326.238     92.12801      183.528     366.9101      2.362     7.65     1233.523      64.6803     164.2461        22     1.495     1.246 -25.65   0
        72    200.3701    869.1201 307.8248650  +6.3061805     1163.989     2641.167     2945.686     91.83692      183.528     366.9101      2.413     7.09     1235.663      64.6803     131.5508        18     1.365     1.031 -16.76   0
        73    937.9557    868.5538 307.5180484  +6.3308560     651.7654     1103.999       925.51     91.98257      183.528     366.8736      1.988     4.48     1226.199      64.6803     93.40234         5     0.990     0.575  77.13   0
        74    654.4187    862.9814 307.6361907  +6.3237856      4470.67     9721.688     10937.96     91.69103      183.455     366.8736      2.290     5.52     1230.009      64.6803     446.5642        42     1.820     1.369 -44.24   0
        75     14.6360    861.9269 307.9023687  +6.3029713     712.0325     1351.747     1688.421     91.83691      183.528     366.9466      2.115     5.39     1233.303      64.6803     94.73364         6     1.237     0.663  69.64   0
        76    892.1846    858.9528 307.5374122  +6.3333140     2157.764     4309.841     4349.061     91.39855      183.309     366.6546      2.057     5.53     1226.202      64.6803     299.0408        27     1.660     1.091 -37.68   0
        77    337.5416    856.4627 307.7682312  +6.3159724     9337.706     21787.98     25164.39     92.12801      183.455     366.9831      2.402     5.65     1235.543      64.6803     837.5857        63     1.990     1.635 -51.14   0
        78    208.7999    855.3604 307.8218233  +6.3121494     825.0613     1376.656     973.0029     90.81078      183.236     366.5815      1.841     4.71     1235.582      64.6803     120.9364         8     1.059     0.791 -45.02   0
        79    100.9041    847.6292 307.8669674  +6.3117555     1121.995     2420.845     2402.381     92.12801      183.236     366.9466      2.203     7.55      1233.06      64.6803     114.5883        20     1.325     1.205  76.93   0
        80    417.3196    846.6752 307.7353741  +6.3226676     527.4778     929.3612     1404.695      92.2732     183.8195     367.0195      2.253     4.27     1233.531      64.6803     106.0759         5     1.294     0.401 -52.17   0
        81    882.4882    840.8192 307.5420548  +6.3404910      1417.28     2759.733     2395.885     91.69103      183.236     366.8371      1.978     5.98     1225.084      64.6803     177.5789        17     1.366     1.035 -84.85   0
        82     83.9298    840.9308 307.8742549  +6.3139595     1320.194     3389.645     4165.793     91.98257     183.6738     366.9101      2.733     9.39     1232.782      64.6803     178.7247        24     2.004     1.227 -37.87   0
        83    853.2134    840.3444 307.5542498  +6.3397200     1420.539     2841.336      2805.53     91.25197      183.455     366.6546      2.023     6.11     1225.658      64.6803     157.1132        22     1.550     1.104 -60.28   0
        84    816.6851    839.6236 307.5694706  +6.3388108     2166.915     4227.213     4896.298     91.98257      183.236     366.8006      2.070     5.92     1226.384      64.6803     227.1616        30     1.680     1.247 -36.51   0
        85    552.5384    831.4709 307.6796346  +6.3334382     194844.5     448459.8     514354.8     92.12801      183.528     367.0195      2.391     5.60     1230.326      64.6803     18058.69       165     2.210     1.748 -48.23   0
        86    396.9551    834.1011 307.7442698  +6.3271902     4343.079     10225.72     11567.94     91.98257      183.455     367.2019      2.360     6.03     1233.223      64.6803     394.8596        46     1.921     1.486 -56.94   0
        87    340.0661    832.6794 307.7679837  +6.3258890     6960.852     16998.63        19968     92.12801     183.6738     366.9101      2.474     5.87     1234.537      64.6803     662.6539        66     2.098     1.655 -52.46   0
        88    890.7378    827.5538 307.5390681  +6.3462480         3955       7434.7     8692.734     91.83692      183.382     366.9831      2.151     4.83     1223.923      64.6803     442.4304        42     1.883     1.379 -44.45   0
        89    658.4249    828.4499 307.6356858  +6.3381948     2429.141     5134.606     5425.316     91.54491      183.528     366.8371      2.112     5.53     1227.575      64.6803     270.9369        32     1.569     1.410 -40.29   0
        90    633.2819    822.6368 307.6463414  +6.3397656     2148.796     4794.912     6574.752     91.98257      183.528     366.9101      2.742     7.28     1227.661      64.6803     231.5479        34     1.838     1.325 -48.44   0
        91   1023.0869    821.9069 307.4841958  +6.3529514     3179.263     4484.545     4651.325     87.50745     156.0927     287.0756      1.487     4.86     1218.629      64.6803     534.7443        19     1.378     0.870 -65.90  24
        92    821.5911    821.7031 307.5680316  +6.3463820     1075.544     2112.337     2033.842     91.69103     183.0898     366.7276      2.062     6.24     1225.011      64.6803     145.0758        13     1.366     0.887 -22.78   0
        93    626.5150    816.9161 307.6493491  +6.3419066     1392.701     3135.464     5028.747     91.69103     183.6738      367.056      3.141     9.15     1227.302      64.6803     180.3794        17     2.287     1.022 -33.74   2
        94    909.7083    815.1065 307.5315935  +6.3520208     2410.542     4633.656     5059.572     91.98257     184.1106     366.9466      2.130     4.78     1222.119      64.6803     327.0173        27     1.604     1.080 -50.69   0
        95    237.2022    816.4672 307.8113224  +6.3291732     562.8681     1451.486       2827.8     91.39855     183.0167     366.7276      3.398     5.60     1235.654      64.6803     91.41711         6     1.316     0.671 -39.86   0
        96    368.0072    811.4546 307.7570763  +6.3355918     1411.034     3639.916     4411.933     91.39855      183.236     366.6181      2.477     8.54     1232.633      64.6803     173.2803        26     1.519     1.390  -8.22   0
        97    847.4238    800.4293 307.5579988  +6.3560313     674.2751     1024.409     1271.218     91.39855     183.3821     366.7641      1.948     5.17     1223.391      64.6803     130.3961         8     1.610     0.469 -53.48   0
        98    504.2173    801.0212 307.7007628  +6.3444252     1739.391      3775.72     3966.648     91.69103      183.309     366.8371      2.197     6.40       1229.7      64.6803     187.9962        25     1.615     1.123 -35.35   0
        99    550.9924    797.2202 307.6814314  +6.3475474       3185.7     7848.343      10945.5     91.54491      183.236     366.7276      2.930     6.83     1228.203      64.6803     329.0183        51     2.120     1.594 -34.06   2
       100    469.8794    795.3505 307.7152392  +6.3456308     827.9467     1958.199     2039.616     91.98257     183.6009     366.9466      2.322     6.72     1229.944      64.6803      121.043        10     1.377     1.069  48.64   0
       101    886.7004    795.0037 307.5418404  +6.3595722     894.9194      1802.69     1673.565     91.69102      183.236      366.545      2.059     6.29     1221.859      64.6803     129.9785        10     1.473     0.755 -37.05   0
       102    110.2455    795.9326 307.8648303  +6.3334389     861.1534     1850.185     2236.677     91.98257      183.455     366.9831      2.435     6.61     1231.863      64.6803     103.4449        11     1.420     0.864 -20.69   0
       103    521.6636    791.2319 307.6938346  +6.3490509      10751.8      25926.7     29713.19     91.69103     183.6009     366.9101      2.432     5.81     1228.513      64.6803     956.0931        74     2.104     1.679 -47.78   0
       104    935.1346    789.3324 307.5218800  +6.3635165     2931.484     5471.872     6192.653     91.98257      183.528     366.9831      2.015     5.19     1219.349      64.6803     327.9181        32     1.761     1.180 -54.42   0
       105     32.6316    783.0412 307.8975536  +6.3361836      726.324     1596.032     1527.749     91.39855      183.382     366.8006      2.141     4.18     1231.276      64.6803     89.39368         5     1.078     0.462  26.78   0
       106    315.5210    779.7870 307.7799801  +6.3469408     1590.191     3157.715     3645.635     91.54491      183.236     366.6911      2.156     7.61     1233.228      64.6803     212.5778        22     1.648     0.983 -80.12   2
       107    313.0000    779.5684 307.7810362  +6.3469474     1204.954     2176.768      2508.24     91.10514      183.236     366.6181      1.974     5.47     1233.357      64.6803     170.4354         9     1.494     0.565  85.44   3
       108    779.7429    775.5662 307.5869921  +6.3640734     35543.54      75139.8     84713.52     91.83692      183.528     366.9466      2.237     5.16     1222.648      64.6803     3656.886        88     2.074     1.539 -47.79   0
       109     14.8179    778.2983 307.9051246  +6.3375508     1273.939     2913.029      3430.03     91.98257      183.382     366.6546      2.410     8.23     1231.133      64.6803      149.251        23     1.516     1.350 -25.33   0
       110    236.5732    752.4335 307.8137476  +6.3556255       773879      2493598      3070132     91.39855      183.236     366.6911      2.839     6.42     1232.003      64.6803     63692.61       585     2.784     2.284 -69.74   4
       111    904.8945    770.8309 307.5350823  +6.3701672     6262.567     12242.24     13439.63       92.128      183.309     366.9466      2.105     4.74     1219.966      64.6803     654.6947        50     1.845     1.393 -52.19   0
       112    708.0496    769.9814 307.6170072  +6.3640106     12607.74     29208.43     34445.55     91.39855     183.6009     366.7276      2.376     5.53     1223.675      64.6803      1268.27        62     2.101     1.475 -47.42   3
       113    701.7271    766.7089 307.6197477  +6.3651543     52474.82       118657     136051.6     91.98257     183.7467     366.9831      2.343     5.45     1223.572      64.6803     5112.667       102     2.151     1.659 -46.32   3
       114    346.6931    767.9094 307.7674128  +6.3528869     10354.68     26972.87     32079.94     91.98257     184.1106     366.9831      2.600     6.26     1231.386      64.6803     913.3196        76     2.200     1.744 -45.18   0
       115    408.5464    765.6625 307.7417562  +6.3558695     11269.11     28691.49     33495.36     91.98257      183.455     366.9101      2.521     5.97     1229.857      64.6803     982.8959        76     2.155     1.729 -49.39   0
       116    397.2065    768.7563 307.7463695  +6.3542140     673.7355      1103.23     1632.786     91.39855      183.236     366.5815      1.596     3.89     1230.224      64.6803      94.9021         5     1.373     0.315 -58.84   2
       117    394.9696    767.7141 307.7473353  +6.3545707      658.294     1579.287     1390.262     92.12801      183.309     366.8006      2.113     4.06     1230.234      64.6803     115.4126         5     1.541     0.305 -31.49   2
       118    945.4695    764.1994 307.5184236  +6.3742488     1537.821     3124.046     3266.211     91.39855     182.9435     366.7276      2.141     6.32     1218.534      64.6803      217.833        24     1.604     1.234 -52.41   0
       119    901.8987    762.1523 307.5366200  +6.3736564     4669.771     9453.503     10927.77     91.98257      183.455     367.1654      2.167     5.08     1219.712      64.6803     498.9504        42     1.831     1.326 -45.47   0
       120    642.3846    761.5228 307.6446111  +6.3653339     3669.399      8374.97     9094.375     91.54491     183.1629     366.7641      2.330     5.76     1224.225      64.6803     358.7948        44     1.890     1.432 -48.54   0
       121    430.5598    758.2239 307.7328489  +6.3596755     901.4789     1636.927     2007.833     91.54491      183.309     366.6911      2.193     6.21     1228.908      64.6803       99.604         9     1.084     1.000 -43.29   0
       122    411.4709    748.3596 307.7411232  +6.3631202     27135.64     70067.85     82854.51     91.83692      183.528     367.0195      2.562     6.06     1229.213      64.6803     2326.784       103     2.254     1.809 -47.94   0
       123    529.3860    747.2545 307.6921035  +6.3674887     3624.411     9165.396     10718.64     91.25197      183.455     366.6546      2.471     6.47     1224.964      64.6803     355.0555        49     2.023     1.521 -44.88   0
       124    446.2450    745.8453 307.7267408  +6.3653137     2333.553     6092.702     8415.035     91.98257      183.528     366.9466      2.784     7.43     1227.745      64.6803     224.0016        43     2.012     1.512 -48.87   2
       125    442.6523    739.3000 307.7284562  +6.3679005     1161.731     3169.013     3697.449     91.98257      183.528     367.2019      2.657    10.01     1227.532      64.6803       145.27        28     1.988     1.406 -64.27   3
       126    774.3337    743.6395 307.5903156  +6.3770942     7028.068     15450.87     17834.12     91.83692      183.455      367.056      2.343     5.35     1220.679      64.6803     691.6172        59     2.016     1.528 -51.83   0
       127    124.6661    731.4138 307.8610137  +6.3605924      1371.53     4329.598     8567.577     91.39855      183.309     366.8736      4.016    13.31      1229.72      64.6803     198.4617        50     2.942     1.677 -89.47   2
       128    132.3465    736.2037 307.8576565  +6.3588678     5933.385     15416.59     19452.15     91.25197      183.236     366.5085      2.651     5.93     1230.031      64.6803     582.3624        67     2.153     1.758 -38.55   3
       129    141.0287    736.1101 307.8540477  +6.3591955     1730.682     4087.893     4444.813     92.12801      183.236     366.8371      2.257     7.69     1230.061      64.6803     197.8495        30     1.703     1.350 -55.35   3
       130    795.6314    736.7462 307.5816862  +6.3806485     723.2353     1555.779     1931.919     91.83692     183.6009     366.8736      2.499     5.25     1219.885      64.6803     110.8412         6     1.128     0.691 -25.91   0
       131    919.7695    732.1369 307.5301922  +6.3866563     4302.498     8668.326     9695.932     91.69103     183.6009     366.9101      2.149     4.98     1218.079      64.6803     501.1531        44     1.795     1.325 -54.51   0
       132    969.1696    731.9462 307.5096450  +6.3883661     957.7202     1871.771     2836.466     91.83692     183.6009     366.8371      2.869     6.63     1217.266      64.6803     104.7151        14     1.620     0.762 -37.87   0
       133    562.9882    727.9796 307.6787729  +6.3765715     1109.247     2378.195     3067.432     91.54491     183.1629     366.8371      2.396     7.24     1223.198      64.6803     150.7498        12     1.451     1.012  85.67   2
       134    675.6190    729.4495 307.6318633  +6.3796946     947.5399     1855.977     1867.254     91.39855     183.6009     366.7641      2.201     6.67      1221.83      64.6803     100.0323        11     1.213     1.029  69.28   0
       135    677.8467    751.2441 307.6302032  +6.3707576     1361.046     3262.946     4301.932     91.98257      183.455     366.9101      2.576     8.16     1223.113      64.6803     144.4442        23     1.542     1.208 -39.29   0
       136    943.5197    723.7193 307.5205930  +6.3909207     2310.382     4443.938      4484.17      92.2732     183.8195     367.1289      2.062     5.46     1217.282      64.6803     237.1393        29     1.631     1.204 -52.93   0
       137    913.9197    724.0791 307.5328965  +6.3897945     2240.413      4502.75      5421.09      92.2732     183.8195     367.1289      2.146     5.49      1217.72      64.6803      261.353        30     1.641     1.222 -51.19   0
       138    974.2762    723.3875 307.5078074  +6.3920732       1326.3     2337.371     2811.393     91.54491     183.1629     366.7276      2.094     5.47     1216.813      64.6803     178.7396        16     1.470     0.798 -34.87   0
       139    666.6669    723.6549 307.6357828  +6.3817939     685.7701     1371.984     1459.698     91.98257      183.455     366.9101      1.973     5.97      1221.64      64.6803     112.9985         9     1.105     0.908  73.62   0
       140    239.1942    718.8627 307.8137916  +6.3695916     886.2592     2485.902     4289.577     91.25196      183.236     366.6911      6.337     8.79     1229.495      64.6803     152.0188        16     1.880     1.297  10.26   0
       141    675.9393    713.4413 307.6322686  +6.3863236     555.7648     1216.816     2529.563     91.98257      183.528     367.0195      3.529     4.24     1220.574      64.6803     92.89099         5     1.157     0.443 -65.17   0
       142    958.1588    711.6273 307.5149079  +6.3964033     1578.447      3267.64     3894.738     91.54491      183.382     366.7641      2.222     4.93     1216.535      64.6803     192.3076        20     1.480     0.963 -34.76   0
       143    999.9860    705.0523 307.4977253  +6.4005022     1085.012     2002.705     1928.157     91.25196      183.455     366.6546      2.033     6.67     1215.839      64.6803     160.7374        15     1.554     0.804 -64.80   0
       144    801.4833    703.5937 307.5803655  +6.3945486     602.7473     1520.929      1075.16     91.54491     183.1629     366.7641      2.266     7.40     1217.271      64.6803      108.624         8     1.429     1.072  19.38   0
       145    887.7156    700.4494 307.5445924  +6.3986985     1105.686     1926.147     2243.866     91.98257      183.528      367.056      1.833     5.68      1216.57      64.6803     154.4669        15     1.205     0.984 -18.62   0
       146     44.1854    691.4257 307.8958488  +6.3744440      1214.06     3059.052      3931.28     91.69103      183.309     366.8736      2.669     9.10     1227.361      64.6803     164.9056        23     1.710     1.351 -46.99   0
       147    844.2259    691.2220 307.5629972  +6.4010765     801.2361     1411.836     1238.886     91.39855      183.309     366.8736      1.825     4.68     1216.186      64.6803     116.4854         6     1.037     0.600 -64.50   0
       148    656.4073    679.7276 307.6415296  +6.3996154     3225.717     8072.698     9510.579     91.54491     183.0167     366.8371      2.515     6.16     1218.408      64.6803     326.3207        51     1.996     1.614 -40.50   0
       149    603.6620    678.6243 307.6635123  +6.3983245      823.001     1879.374      2039.88     91.54491      183.455     366.8371      2.329     7.78     1219.297      64.6803     114.3286        11     1.573     1.077  -0.69   0
       150    119.6835    675.8361 307.8649668  +6.3834035     1799.005     4634.826     5386.245     91.98257      183.528     366.8736      2.521     7.01     1226.558      64.6803     208.2419        37     1.774     1.575 -31.92   0
       151    993.3746    674.6537 307.5014957  +6.4128522     1783.527     3202.183     2746.736     91.54491     183.6009     366.7641      1.853     5.44     1214.826      64.6803     187.1891        20     1.312     1.125 -43.79   0
       152    773.2008    671.7637 307.5932028  +6.4067731     11589.77     26708.52     30726.92     90.95808      183.309     366.7276      2.364     5.55     1214.917      64.6803     1140.741        68     2.095     1.546 -45.74   0
       153    630.8198    675.2227 307.6523274  +6.4006305     936.6909     2184.593     2196.791     91.69103      183.382     366.8736      2.294     7.52     1218.473      64.6803     113.4393        14     1.537     1.030  23.14   0
       154    472.8408    673.7678 307.7181059  +6.3959953     666.3959      1423.15     1085.761     91.54491      183.382     366.8006      2.721     4.44     1223.151      64.6803     86.11926         5     0.783     0.718 -42.34   0
       155    903.3127    671.1078 307.5390879  +6.4113448     2485.302     5095.836     5460.598     91.98257     184.0379      367.056      2.127     5.14     1214.649      64.6803     288.2921        32     1.666     1.247 -34.48   0
       156    247.0042    665.8270 307.8123344  +6.3917776     2847.528     7915.588      9984.47     91.39855      183.309     366.7641      2.815     6.92     1225.488      64.6803     307.7659        53     2.134     1.640 -48.31   0
       157    653.9342    664.5669 307.6430688  +6.4058015     3802.937     9207.273     9931.094     91.83691     183.6009     366.9101      2.381     6.21     1217.313      64.6803     372.3396        46     1.960     1.471 -48.49   0
       158    914.2063    656.3685 307.5350500  +6.4177985     645.1227     1304.959     1156.315     91.25197      183.309     366.6911      2.128     5.39     1213.413      64.6803     105.4481         8     1.630     0.502 -32.79   0
       159    725.4437    653.3219 307.6136936  +6.4128178     2064.473     5270.376     6655.758     91.83692      183.528     366.9831      2.688     7.56     1214.648      64.6803     241.9885        40     1.948     1.517 -63.81   0
       160    991.7736    649.4962 307.5030056  +6.4232006     6622.486     12439.31     13043.21     92.12801      183.236     366.8006      1.985     4.75     1212.682      64.6803      722.636        45     1.785     1.301 -48.18   0
       161     13.2410    650.5402 307.9101071  +6.3903156     818.1419     1781.816     3135.896     91.98257      183.528     367.0195      3.121     6.56     1225.403      64.6803     101.6305        12     1.756     0.687 -56.67   2
       162     10.0027    648.3422 307.9115288  +6.3911164     777.3945     1821.152     2841.766     91.25196      183.309     366.6546      3.207     5.94     1225.275      64.6803     107.8052         7     1.117     0.890   4.86   3
       163    930.1015    649.8195 307.5286560  +6.4210311     1592.622      3056.51     3311.916     91.98257      183.382     366.6546      2.088     6.06     1212.856      64.6803      188.889        23     1.543     1.125 -49.92   0
       164     69.4063    644.8741 307.8869319  +6.3945295     12363.13     33373.43     39626.07     91.54491     183.0167     366.7641      2.608     6.22     1225.149      64.6803     1277.026        82     2.165     1.829 -58.12   0
       165    531.5103    646.4863 307.6946150  +6.4092201     1046.243     2455.829     3051.459     91.69103     184.0379     367.0925      2.974     8.32     1219.776      64.6803     133.4784        17     2.168     0.893 -35.34   2
       166    715.2733    636.7516 307.6184827  +6.4193320     1864.545     4650.613     5606.855     91.98257     183.6009     366.9831      2.470     7.25     1214.105      64.6803     214.9802        36     1.807     1.494 -59.01   0
       167    737.1898    634.7749 307.6094300  +6.4208745     2139.034     5197.324     6435.555     91.54491      183.309     366.8006      2.475     6.80     1213.646      64.6803     230.5061        38     1.890     1.388 -55.99   0
       168    570.2704    632.2749 307.6789666  +6.4163805     1347.083     2426.749      2879.85      92.2732     183.6738     366.9466      2.098     7.86     1217.756      64.6803     164.1412        18     1.838     0.941  86.87   3
       169    567.7274    632.3052 307.6800237  +6.4162837     1187.756     2474.179     2758.649     91.83692     183.6009     366.9466      2.126     6.66     1217.848      64.6803     213.1514        14     1.762     1.035  89.27   3
       170    230.1726    632.5594 307.8204615  +6.4049716      944.405     2354.696      3845.94     91.54491      183.309     366.7641      4.035     8.20     1224.358      64.6803     138.6034        17     1.866     1.175 -69.86   0
       171    313.1354    634.1701 307.7858894  +6.4070636     547.4542     1378.913     1750.867     91.69102     183.6738     366.8736      2.039     4.18      1222.35      64.6803     109.5166         5     1.430     0.349  -5.79   0
       172   1010.0839    630.8141 307.4960134  +6.4315288     3535.186     6380.604     6467.904     91.54491      183.309     366.7276      1.897     4.47     1211.081      64.6803     426.1101        32     1.652     1.139 -51.67   0
       173    975.4201    629.7313 307.5104733  +6.4308326     5638.198     11040.18     12068.58     91.54491      183.382     366.8006      2.082     4.98     1211.086      64.6803     646.6617        42     1.833     1.258 -46.69   0
       174    134.1043    623.7564 307.8607290  +6.4054144     11083.42     30426.27     36396.45     91.98257      183.455     367.0925      2.636     6.55     1224.317      64.6803     1121.471        76     2.206     1.797 -52.80   0
       175    420.0056    624.0001 307.7417673  +6.4148175     1175.985     3262.953     4503.704     91.25196     183.1629     366.7276      2.757     8.39     1220.499      64.6803     155.0952        20     1.641     1.198  61.52   2
       176    800.6134    624.1613 307.5833968  +6.4273604     597.6942     1199.238     1855.249     91.54491      183.309     366.6181      2.324     3.48      1211.62      64.6803     92.46472         5     0.781     0.449 -72.81   0
       177    970.2484    612.8054 307.5131931  +6.4376597     4648.707     9885.791     11611.57     91.25196      183.309     366.5815      2.262     4.95     1209.654      64.6803     554.4736        44     1.727     1.515 -59.12   0
       178    565.1937    608.8163 307.6818692  +6.4259108     18335.83     38100.81     44510.49     91.54491      183.236     366.7641      2.234     6.61     1216.983      64.6803      1892.61        48     2.372     1.017 -54.76   3
       179    562.8055    607.7888 307.6828975  +6.4262565      19493.1     42787.48     49011.64     91.54491      183.236     366.8371      2.259     6.56     1216.999      64.6803     1929.923        47     2.141     1.099 -56.92   3
       180   1023.5208    608.6143 307.4911667  +6.4411505     25073.04     36656.91     38844.47     81.81483     148.3535     278.6032      1.473     4.11     1209.102      64.6803     5439.073        37     1.845     0.700 -85.82  24
       181    171.9529    605.2147 307.8456089  +6.4143397     1323.658     3863.494     4794.479     91.25196      183.309     366.6546      2.794    10.67     1223.359      64.6803     157.8165        33     1.909     1.661  72.56   0
       182     65.5573    598.0967 307.8901169  +6.4137399     675.8318     1651.972     2476.691     91.98257      183.455     367.1654      2.751     4.34     1223.141      64.6803     104.4471         7     1.110     0.482 -40.72   0
       183    461.2682    592.2012 307.7256713  +6.4293335     26718.21     78127.72     96312.86     91.39855     183.0167     366.7276      2.727     6.84     1217.689      64.6803     2562.505       110     2.314     1.949 -47.46   0
       184      6.7131    593.3720 307.9147594  +6.4137323     710.4921     1566.113     2804.551     92.12801      183.236     355.3439      2.720     4.32     1222.921      64.6803     92.04321         6     1.041     0.511  -4.96  18
       185    134.6194    587.0901 307.8617552  +6.4205902     785.2881     1707.476     1855.947     91.83692      183.236     366.8006      2.377     3.99     1222.157      64.6803     130.1736         6     0.954     0.477 -54.57   2
       186    307.9872    583.0054 307.7897594  +6.4280454     876.6889     2504.388     3876.074     91.54491      183.236     366.8006      3.419     9.09      1218.46      64.6803      104.559        16     1.869     1.234 -26.96   2
       187    733.9168    577.0000 307.6127349  +6.4446526     1760.409     3408.162     4575.083     91.10514     182.9435      366.545      2.110     7.09     1210.553      64.6803     256.1311        17     1.767     0.797 -20.45   3
       188    733.1183    574.1859 307.6131618  +6.4457896      2333.15      4449.58     5043.671     91.54491      183.236     366.7276      2.099     7.62     1210.362      64.6803     257.6777        27     1.864     1.265 -25.81   3
       189    786.7126    570.6249 307.5909805  +6.4490348     7575.808     18144.14     21130.91     92.12801      183.309     366.8006      2.446     5.71      1209.09      64.6803     747.7316        65     2.067     1.657 -46.07   0
       190   1005.0483    570.7810 307.5001223  +6.4561830      659.296       1234.8      903.785     91.39855     183.6009     366.6911      1.647     3.78     1205.971      64.6803     112.9236         5     1.156     0.355  11.14   0
       191    609.7147    568.7679 307.6646931  +6.4439436      1211.92     3267.923     4003.657     91.98257      183.309     366.8736      2.697     9.74     1211.225      64.6803     133.6885        23     2.070     1.279 -30.06   2
       192    927.4653    564.2149 307.5326264  +6.4563366     706.2722     1435.074     2066.505     91.39855      183.382     366.8371      2.440     4.72     1206.671      64.6803      96.5365         6     1.004     0.628 -21.19   0
       193    862.5876    553.8412 307.5599716  +6.4584822     1378.357     3323.991     3572.463     91.25196      183.309     366.6181      2.338     7.69     1207.514      64.6803     259.2896        29     1.727     1.406 -46.13   0
       194    821.6027    551.4540 307.5771065  +6.4581145     1532.926     3323.722     3461.505     91.25197     183.1629     366.5085      2.287     7.37     1207.681      64.6803     180.7593        26     1.672     1.253 -46.77   0
       195    249.7015    546.7906 307.8152347  +6.4410799     2995.594     9086.514      9023.76     91.69103     183.0898     366.7276      2.668     7.40     1216.913      64.6803     333.0497        54     2.058     1.736 -53.86   0
       196    801.9917    542.6869 307.5855617  +6.4610908     81949.16     203947.6     240325.7     91.54491     183.1629     366.6911      2.502     5.99     1207.444      64.6803     7972.962       165     2.499     1.816 -38.75   0
       197    183.9413    541.3954 307.8427791  +6.4411229     24070.62     72854.34     90460.29     91.25196      183.382     366.6911      2.770     6.87     1217.657      64.6803     2674.444       108     2.333     1.970 -51.18   0
       198    108.0599    537.6243 307.8744797  +6.4401560     2877.544     7825.523     9528.645     91.54491      183.528     366.8006      2.673     6.61     1219.979      64.6803     306.9904        53     2.007     1.753 -38.16   0
       199    972.6610    533.7313 307.5148424  +6.4704320     824.3855     1527.255     1266.764     92.12801      183.455     366.9466      1.937     5.19     1203.668      64.6803     102.4952         8     1.307     0.582 -14.95   0
       200    838.5284    529.8658 307.5707887  +6.4675995      2311.41     5484.604      6093.58     91.98257     183.6009     367.0195      2.360     6.45     1206.192      64.6803     248.3629        37     1.832     1.386 -48.81   0
       201    357.2527    528.3754 307.7711052  +6.4522678     6792.354     20967.65     25819.22     91.39855      183.528     366.8371      2.773     7.11     1213.563      64.6803     703.8226        78     2.258     1.887 -51.26   0
       202    160.1840    527.6759 307.8531282  +6.4460042     937.3192     2615.991     4079.333     91.39855      183.236     366.8006      2.998     6.20     1217.428      64.6803     124.2019        10     1.542     0.701  80.92   2
       203    792.5536    523.2070 307.5901439  +6.4688324     3041.135     7546.218     8437.557     91.39855      183.309      366.545      2.438     5.77     1206.564      64.6803     288.4667        45     1.855     1.538 -52.44   0
       204    523.5939    523.2344 307.7020627  +6.4599141     2876.451     8174.827      9471.68     91.10514      183.309     366.6911      2.591     7.24     1210.201      64.6803     285.2468        50     2.089     1.614 -41.73   0
       205    170.6246    516.7615 307.8491532  +6.4508640     2820.688     8850.087     10925.54     91.54491      183.309     366.7276      2.924     9.53     1216.635      64.6803     308.5076        60     2.498     1.719 -56.04   0
       206     42.5608    515.3087 307.9024883  +6.4471997     2361.525     6348.382     7797.249     92.12801      183.455     366.9831      2.719     7.40     1219.071      64.6803     265.6537        48     1.900     1.778 -59.76   0
       207    265.8826    512.9649 307.8096450  +6.4556023     33963.45     106162.5       133731     91.98257      183.455     366.9101      2.841     7.23     1213.944      64.6803     3608.389       123     2.427     2.015 -50.58   0
       208    809.1238    514.8521 307.5835294  +6.4728346     782.1025     1655.323     2242.853     91.98257     183.6009     366.9466      2.868     7.59     1205.858      64.6803     110.4592         9     1.495     1.080 -32.93   0
       209    788.7875    505.0293 307.5923222  +6.4762232     8028.262     20198.18     23397.29     91.39855      183.236     366.8371      2.506     6.04     1205.725      64.6803     794.5972        66     2.121     1.650 -49.37   0
       210    492.5784    503.6389 307.7156294  +6.4669868     17685.48     51984.19     67014.84     91.54491      183.309     366.6911      2.865     6.82     1209.345      64.6803      1538.49       112     2.397     2.055 -43.41   0
       211    964.4625    505.5966 307.5191983  +6.4817935     973.9199     1857.807     2282.168     91.25197      183.236     366.6546      2.178     4.93     1201.793      64.6803     141.3284         9     1.285     0.536 -39.84   0
       212    568.2493    516.4382 307.6837099  +6.4642044     1140.845     3233.066     3752.726     91.83692      183.528     366.8006      2.711    10.03     1208.651      64.6803     134.1394        28     1.850     1.516  -5.63   0
       213    206.4911    499.8326 307.8348017  +6.4590562     759.8135     2185.752     3084.077     92.12801      183.382     366.9831      3.206     8.42     1214.616      64.6803     130.3716        13     1.731     1.145  78.50   0
       214    652.3719    498.3726 307.6493129  +6.4744606     1339.553     3658.896     4908.399     91.39855      183.309     366.7641      3.113     9.02     1206.563      64.6803     132.4546        35     1.979     1.387 -51.30   0
       215    715.2238    496.9848 307.6232050  +6.4771153     641.2818     1756.712     1949.051     91.69103      183.309     366.8736      2.453     8.06     1206.176      64.6803     106.9921        10     1.856     0.979   3.16   0
       216    321.8346    492.7214 307.7870469  +6.4658314     1649.546     4946.309     6020.301     91.83692     183.6009     366.9831      2.697     9.92     1211.284      64.6803     181.4629        41     2.043     1.643 -48.01   0
       217    137.0461    491.4384 307.8639818  +6.4602153     10639.95     31849.76     38765.15     91.69103      183.455     366.8371      2.743     6.97     1216.391      64.6803     1117.797        82     2.238     1.898 -52.43   0
       218    391.6755    494.1703 307.7579362  +6.4675524     832.7449      2032.77     2788.952     91.83692     183.6009     366.9466      2.677     7.69     1209.972      64.6803     99.41016        14     1.467     1.129 -36.13   0
       219    502.2918    492.9494 307.7119478  +6.4717284     939.6177     2230.695     3392.385     91.83692      183.382     367.1654      3.595     9.02     1208.229      64.6803     108.5184        18     1.933     1.175 -25.25   2
       220    864.1188    490.9633 307.5614467  +6.4845292     731.5639     1606.147     1358.284     91.98257     183.6009     366.9101      2.241     6.21     1202.428      64.6803     105.1749         9     1.204     0.900 -54.06   0
       221    103.3457    489.8115 307.8780595  +6.4597657     1216.136     3051.602     3901.645     91.25196      183.455     366.5815      2.745     8.44     1217.305      64.6803     157.2659        22     1.473     1.350 -79.87   2
       222    962.2010    485.5495 307.5208121  +6.4900072     3055.559     6746.397     7504.626     91.25197     183.0898     366.4355      2.260     6.10     1200.355      64.6803     310.6885        41     1.973     1.335 -47.64   0
       223      2.5188    475.7864 307.9204881  +6.4622041     11752.98     23391.79     25619.51     91.54491     164.4458     297.6531      2.081     6.42     1217.197      64.6803     1228.045        47     2.067     1.204 -81.38  24
       224    433.9217    472.3510 307.7410930  +6.4779757     16938.05     51927.48     65170.92     91.98257     183.6009     366.9101      2.822     7.15     1207.346      64.6803     1745.161       104     2.392     1.963 -46.43   0
       225    641.8968    471.9650 307.6545610  +6.4850315     5129.482     14780.21     18707.24     91.98257      183.382     367.1289      2.767     7.02     1204.924      64.6803     501.1292        69     2.231     1.818 -51.21   0
       226    199.1802    470.1286 307.8388483  +6.4710932     7837.133     24028.73     30494.19     91.54491      183.382     366.8736      2.860     7.13     1212.771      64.6803     738.7465        87     2.318     2.007 -46.70   0
       227    166.5804    470.8345 307.8523895  +6.4697165     750.0446     1746.026     1513.512     91.39855      183.309     366.6911      2.242     5.52     1214.235      64.6803      116.554        10     1.512     0.568 -60.20   0
       228    565.6158    467.6679 307.6864490  +6.4842804     1126.262     2891.433      3940.29     91.39855      183.455     366.8371      2.879     9.78     1205.167      64.6803     150.0374        15     2.362     1.130 -34.53   2
       229    937.1660    465.7465 307.5318952  +6.4973679     2669.002     6083.308     6949.309     91.83692      183.528     366.8736      2.437     6.32     1199.006      64.6803     300.7158        39     1.982     1.314 -47.81   0
       230    610.7810    464.1668 307.6677721  +6.4872247     2658.334     7995.424     9604.133     91.39855      183.309     366.7276      2.723     8.18     1204.362      64.6803     243.2008        54     2.211     1.678 -36.95   0
       231    959.7990    457.8127 307.5227427  +6.5013955     2033.519     4425.145     4715.322     91.54491     183.1629     366.6911      2.264     5.13     1197.665      64.6803     222.9741        29     1.483     1.349 -69.54   0
       232    522.8828    455.5484 307.7046402  +6.4878741     3054.214     8995.468     11234.58     91.98257      183.528     367.0195      2.788     7.23     1204.343      64.6803      292.931        57     2.102     1.790 -48.57   0
       233    369.7195    455.2342 307.7683869  +6.4829205     973.1715     2836.624     3566.468     91.83692     183.6009     366.9831      2.829    10.69     1206.899      64.6803     123.8895        19     1.857     1.713 -83.74   2
       234    879.6614    452.6995 307.5562641  +6.5008626     1270.022     2532.387     3607.465     91.69103      183.382     367.0925      2.979     8.24     1199.237      64.6803     180.6378        18     2.736     0.694 -42.59   3
       235    878.4860    450.0210 307.5568432  +6.5019311     1482.295     2502.983     3798.046     91.83691      183.236     366.8371      2.232     6.93     1199.069      64.6803     169.7639        17     1.717     0.785 -51.52   3
       236    886.6909    445.0451 307.5535958  +6.5042595     1004.355     2448.384     3438.744     91.98257      183.455     367.0925      2.738     8.20     1198.447      64.6803      141.303        17     1.533     1.225 -34.01   0
       237    925.7609    444.3327 307.5373604  +6.5058446     870.5766     2002.635     2450.145     91.83692      183.455      367.056      2.283     5.61      1197.24      64.6803     135.6364        10     1.421     0.999 -64.34   0
       238    710.6315    442.3218 307.6269552  +6.4995630     1305.538     2731.596      2914.53     91.83692      183.528     366.9101      2.206     5.06     1202.107      64.6803      231.166        17     1.519     1.004  -7.00   2
       239    710.0064    439.5935 307.6273072  +6.5006703      1017.39     1763.156     1818.007     91.25196      183.309     366.7276      1.820     6.29     1201.955      64.6803     112.0956        10     1.378     0.807   7.39   3
       240    383.1696    440.4337 307.7632896  +6.4894861     1438.054     2893.923      3587.61     91.39855      183.236     366.6546      2.135     8.17     1205.391      64.6803      189.274        20     1.960     0.952 -57.38   3
       241    380.4626    438.8231 307.7644704  +6.4900621     1526.202     3076.792     3879.978     91.54491      183.528     366.8371      2.261     7.41     1205.323      64.6803     203.0688        19     1.775     0.865 -76.41   3
       242     72.6412    442.3662 307.8924419  +6.4783576     845.4483     1805.739     2539.122     91.69103      183.528     366.7641      2.604     7.34     1215.368      64.6803     108.9601        11     1.373     1.099 -63.10   0
       243    610.4977    437.0284 307.6688040  +6.4984353     3843.267     7786.971     9443.085       92.128      183.236     366.9466      2.268     6.19     1202.016      64.6803     407.7156        29     2.035     0.977 -54.45   3
       244    608.2406    435.7660 307.6697858  +6.4988824     3588.689     7438.518     9669.041     91.69103      183.528     366.7276      2.404     7.82     1201.928      64.6803     381.2614        37     2.452     1.050 -65.51   3
       245    772.1316    432.8570 307.6016801  +6.5055111     7801.021     20815.81     26085.62       92.128      183.455     366.8736      2.688     6.66     1200.103      64.6803     703.7928        79     2.446     1.684 -48.94   0
       246    291.9754    433.7373 307.8014645  +6.4892244     901.9402     2877.967     3683.875     91.54491      183.528     366.8736      2.991     9.54      1205.89      64.6803     120.8527        21     1.766     1.439  87.06   0
       247    957.2121    427.7677 307.5248277  +6.5137319     1091.781     2342.967     2304.401     91.39855      183.236     366.8371      2.054     5.31     1194.696      64.6803     142.4559        13     1.360     0.901  14.79   0
       248    109.7622    425.2638 307.8775744  +6.4866646     1936.856     5599.582     7564.392     91.98257      183.455     366.9831      2.937     7.82     1213.107      64.6803     209.0099        45     1.889     1.807 -48.23   0
       249   1010.9171    422.5732 307.5026517  +6.5176522     2616.839     5813.244      7133.89     91.83691      183.236     366.8736      2.476     5.31     1192.218      64.6803      314.819        39     1.701     1.511  -8.33   0
       250    747.6978    423.7991 307.6121530  +6.5084476     1147.438     3027.104     3264.778     91.39855     183.0898      366.545      2.456     8.67     1199.841      64.6803     120.9783        25     1.586     1.409 -19.23   0
       251    347.0038    420.0193 307.7790287  +6.4967246       1189.2     3321.235      4667.87     91.54491     183.0167     366.7276      3.027     6.69     1203.696      64.6803     171.1765        15     1.581     0.793 -68.89   2
       252    826.6002    406.7771 307.5798891  +6.5180949     772.4313     1535.373     1460.997     91.54491     183.1629     366.6911      2.094     6.54     1196.959      64.6803      102.366         9     1.323     0.906 -64.36   0
       253    813.5151    408.1230 307.5852895  +6.5171058     706.6928     2104.714     3103.977       92.128     183.8924      367.056      2.845     5.94     1197.128      64.6803     145.6947        10     1.725     0.576 -29.53   2
       254    710.3660    404.7364 307.6283304  +6.5150934     6793.169     18485.68     22997.58     91.83692     183.6009     366.9466      2.713     6.51     1199.013      64.6803     645.7096        70     2.210     1.764 -47.07   0
       255    631.2332    400.5065 307.6614049  +6.5142216     1203.582     3620.585     4655.125     92.12801      183.382     367.0195      2.780    10.32     1198.993      64.6803     138.8727        33     1.982     1.498  -9.44   0
       256    603.8818    395.9221 307.6729419  +6.5152107     6903.691     19710.71     29721.55     92.12801     183.8195     367.0925      3.249     7.64     1198.335      64.6803     721.0468       110     2.620     2.308  25.51   0
       257    935.5422    394.4588 307.5349643  +6.5267876     2270.212      4850.26     5085.214     91.98257      183.455     366.9831      2.215     5.91     1193.027      64.6803     210.3746        35     1.834     1.282 -40.39   0
       258    375.0012    390.8438 307.7683629  +6.5097166     10930.92     34504.79     44067.23     91.25196     183.1629     366.5085      2.873     7.36     1201.275      64.6803     1235.664        94     2.398     1.970 -47.77   0
       259    890.3615    390.5056 307.5539002  +6.5269295     824.2031     2275.231       3699.5     92.12801     183.3821     367.0925      3.347     6.44     1194.717      64.6803     103.1552         8     1.456     0.801  75.43   2
       260    122.3488    390.6555 307.8735082  +6.5013914     972.7222     2689.221     3350.553     91.98257      183.528     366.9466      2.714     7.12     1210.918      64.6803     168.3208        15     1.640     0.866 -70.80   2
       261    904.3971    384.9293 307.5482462  +6.5296987     2680.769     6252.451     7053.604     91.39855     183.0898     366.7641      2.331     6.43     1193.788      64.6803     263.7158        38     1.864     1.392 -64.26   0
       262     55.6413    387.0352 307.9013897  +6.5006659      769.498     1579.318     2458.487     91.69102      183.528     366.7641      2.400     4.48     1213.638      64.6803     98.81091         6     1.166     0.489 -19.67   0
       263    232.5616    381.4258 307.8279568  +6.5088754     5227.456     16933.41     21911.96     91.54491      183.309     366.7641      2.913     7.50     1205.126      64.6803      643.226        77     2.281     1.955 -46.52   0
       264    134.0229    370.6833 307.8693261  +6.5100371     2011.425     4403.006      6188.68     91.83691     183.1629     366.8736      2.463     7.93     1209.441      64.6803     223.6742        30     2.180     0.961 -62.11   3
       265    131.2043    368.9580 307.8705575  +6.5106565     1516.823     3148.489     4528.975     91.25196     183.1629     366.6546      2.560     7.29     1209.491      64.6803     183.7738        20     1.876     0.792 -66.17   3
       266    155.2199    365.7312 307.8606728  +6.5127901     1048.124     2876.397     3709.536     91.54491      183.382     366.8371      2.705     8.74     1208.199      64.6803     121.7469        21     1.552     1.374  88.23   0
       267    379.3198    360.0315 307.7676061  +6.5225987     821.4794     2241.234     2729.022     91.83691      183.455     366.9101      2.730     8.63     1198.684      64.6803     112.8739        16     1.847     1.125  48.69   0
       268    433.3987    354.6469 307.7452822  +6.5266206     2887.377     6405.075      8311.78     91.25197     183.1629     366.4355      2.607     7.82     1196.345      64.6803     307.2401        39     2.293     1.160 -60.17   2
       269    430.4725    353.5614 307.7465366  +6.5269722     2268.643     4685.532     5857.764     91.83692      183.455     367.0195      2.433     7.47     1196.315      64.6803     251.4526        20     2.135     0.732 -66.28   3
       270     28.8624    355.0003 307.9136184  +6.5130170     1443.054     4063.696     5175.365     91.10514      183.236     366.5815      2.748     8.22     1213.001      64.6803     185.3169        33     1.741     1.526  -4.46   0
       271    772.4707    351.3564 307.6042799  +6.5392177     6126.999     15923.16     20321.12     91.83692      183.528     366.9831      2.740     6.35     1193.939      64.6803     557.8522        67     2.193     1.703 -47.45   0
       272    763.3899    353.9857 307.6079707  +6.5378303     937.5828     2114.131     3234.332     91.69102      183.236     366.8736      2.495     6.74     1194.134      64.6803     112.0872        11     1.408     0.904  60.16   0
       273    765.7490    351.0301 307.6070883  +6.5391303      736.816     1565.624     3089.366     91.69103     183.6738     366.8371      2.291     3.93     1193.939      64.6803     111.9734         5     0.853     0.518  41.33   1
       274   1016.3076    346.1110 307.5029736  +6.5494428     2272.601     4459.969     4925.518     91.98257     184.1106     367.0195      2.108     5.50     1187.678      64.6803     254.4244        27     1.598     1.180 -55.54  16
       275    451.6693    341.2178 307.7381317  +6.5327791     675.6599     1230.578     1672.135     91.39855      183.382     366.8736      1.814     4.05     1195.182      64.6803     124.2551         5     1.293     0.363 -24.71   3
       276    454.2271    339.2061 307.7371351  +6.5336956     816.5242     1542.965     1368.606     91.39855      183.309     366.7276      1.877     4.10     1195.039      64.6803     155.2228         7     1.162     0.430  14.75   3
       277    837.8969    334.1777 307.5776278  +6.5484837     16842.63        42797     51548.02     91.98257      183.236     366.7276      2.543     6.08     1192.694      64.6803     1566.638        86     2.257     1.728 -56.04   0
       278    480.7427    337.5724 307.7261552  +6.5352510     1136.365     3528.937     4787.483     91.54491     183.6009     366.8371      2.940    10.56     1194.229      64.6803     131.5767        28     1.853     1.679 -78.62   0
       279    452.8286    335.8067 307.7378318  +6.5350546     748.8117     1444.725     1533.078     91.39855      183.309     366.7276      2.138     4.22     1194.935      64.6803     101.2319         6     1.172     0.434 -61.21   1
       280    610.5594    328.1906 307.6724445  +6.5434344     979.5443      2050.91     3132.213     91.25197      183.309     366.6181      2.853     7.64     1192.277      64.6803     125.9332        15     1.904     0.858 -49.17   2
       281    608.0583    326.4394 307.6735444  +6.5440755     963.7357     2059.313     3298.582     91.98257     183.6009      367.056      3.007     7.28     1192.099      64.6803     138.8002        14     1.836     0.810 -41.12   2
       282    694.4058    320.2749 307.6378153  +6.5494843     35013.37     97727.84       119831     91.54491     182.9435     366.8006      2.690     6.57     1192.121      64.6803     3494.311       116     2.346     1.903 -48.23   0
       283    556.7061    316.8044 307.6952411  +6.5463568     1119.745     3345.625     3811.567     91.69103     183.1629     366.6546      2.716     9.38       1191.6      64.6803     140.6173        31     1.939     1.713 -46.77   0
       284     94.4135    316.0827 307.8876578  +6.5312906     2476.698     7453.772     9447.202     91.54491      183.236     366.7641      2.805     7.14     1210.375      64.6803      306.078        56     2.096     1.808 -36.89   0
       285    540.3450    313.1789 307.7021725  +6.5473131     2817.961     8738.687     11034.85     91.39855      183.528     366.7276      2.830     7.46     1191.409      64.6803       292.03        56     2.096     1.809 -52.91   0
       286    403.1873    308.5208 307.7594121  +6.5446873     9434.045     30873.48     40150.26     91.54491     183.1629     366.7641      2.927     7.63      1195.57      64.6803     1093.198        95     2.434     2.028 -51.81   0
       287    269.8638    311.6972 307.8147905  +6.5389435     980.9155     2590.531     2916.485     91.83692     183.6738     366.9831      2.580     8.29     1200.742      64.6803     147.4067        14     1.893     1.014 -31.13   0
       288    492.1717    298.9464 307.7227015  +6.5515993     3364.328     10545.39     13272.08     91.69103     183.6009     366.8371      2.837     7.47     1191.769      64.6803     367.9176        65     2.228     1.873 -47.25   0
       289    761.7606    297.3146 307.6105551  +6.5612062     1353.916     4019.844     4771.451     91.98257      183.455     366.9466      2.750     8.73     1190.678      64.6803     172.4376        36     1.806     1.661 -60.71   0
       290    382.1721    283.1959 307.7690133  +6.5544592       2811.5     8909.599     11507.12     91.39855      183.309     366.7641      2.890     7.68     1195.151      64.6803     334.3839        61     2.185     1.862 -50.40   0
       291    240.3711    282.6439 307.8280468  +6.5499737      802.131     1610.947     2970.381     91.54491     183.6009     366.8371      3.950     8.86      1200.93      64.6803     134.6499        10     2.434     0.902  31.82   2
       292    237.0134    282.6527 307.8294439  +6.5498584     628.2559     1876.807     2800.183     91.25196      183.455     366.6546      3.203     4.43     1201.043      64.6803     100.6637         6     1.069     0.521 -56.41   2
       293    749.8579    278.7874 307.6161323  +6.5684721     24649.28     67214.19     81018.41     91.25196      183.455     366.6181      2.623     6.43     1189.487      64.6803     2367.341        98     2.291     1.826 -49.19   2
       294    758.3129    277.7276 307.6126489  +6.5691901     6886.849     7020.681      8099.89     92.12801     183.8195     366.9466      0.882     3.12     1189.416      64.6803         2951         6     0.834     0.364  67.47   2
       295    422.1515    279.8733 307.7524866  +6.5571606     867.3973     2044.758     2709.982     91.98257     183.6009     366.9831      3.170     8.00     1193.596      64.6803     113.7529        14     2.031     0.882 -61.33   2
       296    982.9977    277.6731 307.5191340  +6.5766383     643.6292     1222.138     1971.492     91.39855     183.0167     366.8006      2.144     6.50     1183.549      64.6803     95.17981         7     2.114     0.560 -23.07   2
       297    983.9583    274.7412 307.5188326  +6.5778822     728.3864     1356.319      1733.43     91.98257      183.528     367.0195      1.938     2.79     1183.313      64.6803     155.1469         5     0.790     0.497 -52.42   3
       298    924.6682    274.6089 307.5435146  +6.5759791      1131.09     2954.115     3398.718     91.39855      183.236     366.8371      2.623     7.95      1185.14      64.6803     149.1453        23     1.816     1.357  82.35   2
       299    409.3969    275.6129 307.7579387  +6.5584984     631.6573     1545.036         2567     91.54491     183.1629     366.8006      2.430     3.42     1193.865      64.6803     87.44299         5     1.075     0.315  21.18   0
       300    186.0646    266.0418 307.8512094  +6.5550303     965.9699     2579.411     3199.292     91.98257      183.455     367.0195      2.847     7.75     1203.887      64.6803     129.3301        13     1.871     0.898 -46.01   2
       301    748.2473    263.4182 307.6173198  +6.5747730     2790.747     7655.463     9615.743     91.39855      183.455     366.6911      2.715     7.18     1188.354      64.6803     283.2054        53     2.132     1.642 -48.78   0
       302    764.8072    261.1682 307.6105030  +6.5762512     1173.728     3195.126     3695.388     91.39855      183.382     366.6911      2.459     9.02     1188.212      64.6803     123.0292        25     1.757     1.293 -66.40   0
       303    354.0205    256.7019 307.7816244  +6.5644772     817.9713     2109.804     2353.883     91.83691      183.309     366.6546      2.763     7.13     1195.302      64.6803     101.6025        10     1.585     0.899  70.78   0
       304    480.8812    253.1797 307.7289443  +6.5701459     824.7066     2204.712     2376.062     91.69103     183.1629     366.8736      2.504     8.54     1186.914      64.6803     118.7678        12     1.642     1.240   1.19   0
       305   1002.7619    252.0760 307.5117669  +6.5878736     3790.411     8113.909     8888.044     91.83691     183.6009     366.9466      2.194     5.36     1181.133      64.6803     385.6768        41     1.778     1.404 -53.80   0
       306    243.7308    248.3236 307.8278091  +6.5642742     2330.404     7061.974     8704.363     92.12801     183.6738     366.9831      2.805     7.78     1200.565      64.6803     272.2487        52     2.126     1.707 -50.27   0
       307    963.7346    237.5930 307.5284973  +6.5925731     714.0923     1020.673     1237.928     91.39855      183.236     366.7641      1.837     6.04     1181.397      64.6803     79.20032         7     1.601     0.641 -79.08   0
       308    148.2096    234.1839 307.8680420  +6.5669406     732.3151     2039.314     3162.324     91.69103      183.236     366.8371      3.125     8.25     1206.268      64.6803     131.7626        11     2.227     0.855  50.64   2
       309    556.8713    230.6660 307.6980759  +6.5819744     984.9077       2358.8     3058.226     91.98257     183.6009     366.9466      2.649     8.68     1183.655      64.6803      138.913        19     1.584     1.330  23.49   0
       310    900.1494    230.2902 307.5552087  +6.5934921     695.2855     1595.647     1978.835     91.98257      183.309     367.1289      2.211     5.57     1183.094      64.6803     147.0563         9     1.627     0.538 -18.58   2
       311    900.3378    227.7197 307.5552166  +6.5945611     776.5862     1617.047     1783.094     92.12801     183.6009     366.9101      2.111     3.60     1182.941      64.6803      127.068         5     0.853     0.446  72.60   3
       312    721.6161    228.5442 307.6295776  +6.5883097     2064.611     4193.682     5061.154     91.25197      183.455     366.6546      2.235     8.72      1185.74      64.6803      214.941        31     2.284     1.190 -50.03   3
       313    719.5040    226.4697 307.6305266  +6.5890974     1818.121     3320.725     4030.823     91.83692     183.6738     366.9466      2.245     6.70       1185.5      64.6803     210.0105        16     1.879     0.670 -59.97   3
       314    661.9503    227.0336 307.6544627  +6.5869585     944.4033     2465.042     2458.303     91.83692      183.528     366.8736      2.494     8.35     1184.673      64.6803     103.5083        18     1.574     1.239 -29.44   0
       315    220.7282    213.7950 307.8385503  +6.5777837     945.9601     2722.948     3201.015     91.54491     183.0167     366.8371      2.614     9.22     1202.219      64.6803     109.0635        19     1.771     1.340 -43.15   0
       316    862.8878    211.1614 307.5713609  +6.6001693     954.2419     2275.463     2847.156     91.98257      183.455     366.9831      2.539     7.09      1183.07      64.6803     121.9266        14     1.338     1.053  85.91   0
       317    753.2408    212.2212 307.6169639  +6.5961048     782.5255     1953.853     2405.557     91.54491      183.309     366.7276      2.575     6.49     1184.841      64.6803     99.63123         8     1.418     0.833 -19.70   2
       318    454.3279    202.8181 307.7416953  +6.5900854     8240.296     27418.67     35402.44     91.39855      183.455     366.8736      2.930     7.75     1184.531      64.6803     891.6072        91     2.487     1.949 -45.55   0
       319    780.0937    201.7686 307.6061385  +6.6013147     6280.416     16753.73     20746.11       92.128      183.309     366.9831      2.673     6.40     1184.165      64.6803     638.1108        71     2.212     1.760 -45.13   0
       320    142.2461    197.7538 307.8717571  +6.5818028     1061.087     2700.186     3958.575     91.98257      183.382     366.9466      3.123     7.15     1206.312      64.6803     129.7412        13     1.476     0.971  66.81   2
       321    916.2098    192.5649 307.5497910  +6.6096197     978.3448     2044.526     2696.389     91.39855      183.236     366.6911      2.434     6.82     1180.077      64.6803     109.0227        15     1.221     1.119  40.47   0
       322    578.2951    188.7448 307.6905720  +6.6000161     1935.632     5669.068     6335.595     91.83692      183.528     367.2019      2.732     8.76     1181.923      64.6803     213.9248        49     2.201     1.687 -44.46   0
       323    542.4294    189.0969 307.7054884  +6.5986813     928.1939     1830.794      2225.85       92.128      183.236     366.9466      2.406     5.84     1181.458      64.6803     116.4701        11     1.331     0.840 -61.05   2
       324    539.2545    187.9217 307.7068495  +6.5990619     730.4508     1730.419     2052.817     92.12801      183.528     366.9831      1.623     3.61     1181.424      64.6803      107.444         5     1.465     0.257 -48.24   2
       325    939.1074    185.5893 307.5404944  +6.6132600     1593.864     3526.826     3848.159     91.69103     183.0898     366.7276      2.155     6.95     1178.934      64.6803     160.1711        28     1.583     1.329 -68.68   0
       326    885.2001    185.0038 307.5629527  +6.6117212     5945.285     14537.49      17022.4     91.25196     183.0167     366.6546      2.469     5.81     1180.609      64.6803     612.1581        57     1.965     1.618 -56.07   0
       327    971.8189    182.6582 307.5269767  +6.6155521     5719.788     13015.21     14326.84     91.54491      183.382     366.7276      2.323     5.20     1177.942      64.6803     579.7379        54     1.995     1.487 -52.53   0
       328     11.6295    182.0317 307.9266516  +6.5839497      11025.5     32091.68     40122.39     91.39855      183.236     366.6546      2.773     6.72     1215.831      64.6803     1219.047        86     2.335     1.895 -49.65  16
       329    682.6535    184.5391 307.6472764  +6.6052128     1204.557     2809.014     4310.304     91.98257      183.455     366.9101      2.913     8.06     1182.905      64.6803     139.5601        20     1.745     1.041  70.15   2
       330    492.7054    178.2543 307.7265505  +6.6015144     874.5774     2259.332     2143.085     91.83692      183.528     367.2019      2.656     7.65     1181.146      64.6803     113.0208        14     1.691     0.968 -74.67   0
       331    824.9991    174.7318 307.5883564  +6.6139779     1023.352     2511.996     3109.781     91.25196     183.0167     366.6911      2.535     6.60     1181.691      64.6803     141.5828        12     1.674     0.730 -48.93   2
       332    735.3822    170.9958 307.6257845  +6.6125577     18281.77     50333.79     60800.84     91.54491     183.0898     366.7641      2.638     6.44      1182.31      64.6803     1775.987        94     2.243     1.853 -52.28   0
       333    504.5641    173.7702 307.7217658  +6.6037617     1135.661     2925.516     2457.582     91.54491      183.236     366.7641      2.410     8.82     1180.924      64.6803     138.4786        25     1.731     1.436 -61.23   0
       334    876.4501    172.9776 307.5669990  +6.6164041     1193.049         2915     3245.025     91.39855     183.6009     366.8371      2.424     9.50     1180.119      64.6803     137.3046        23     1.905     1.320 -21.30   0
       335    338.6096    170.5289 307.7909496  +6.5995909     2796.244     8428.268     11527.43     91.39855     183.0898     366.7641      3.076     8.12     1195.278      64.6803     272.0031        72     2.569     1.842 -65.35   0
       336    969.0359    169.5301 307.5285759  +6.6208878     1701.416     3521.177      3648.14     91.83691     183.6009     367.0195      2.166     8.04     1177.291      64.6803     172.2467        22     1.558     1.159 -17.91   0
       337    903.2150    167.9403 307.5560274  +6.6193711     4110.489     9896.794     11545.25     91.39855      183.455     366.6546      2.441     5.68     1178.893      64.6803     406.7136        52     1.919     1.616 -55.16   0
       338    447.0694    167.4872 307.7459088  +6.6044511     2050.241     6011.158     7494.914       92.128     183.8195     366.9831      2.714     7.44     1182.301      64.6803     225.9318        48     1.902     1.810 -72.51   0
       339   1007.2213    168.2868 307.5127228  +6.6226624     1213.505      2413.73     2439.014     91.98257      183.236     366.8006      1.985     7.11      1176.37      64.6803     132.1517        20     1.440     1.226 -35.96   0
       340    104.5342    158.9319 307.8887673  +6.5965961     2117.782     5767.512     7154.604     91.98257     183.6009     366.9831      2.709     8.11     1207.164      64.6803     267.0757        47     2.218     1.574 -48.83   0
       341    274.6511    155.4450 307.8180803  +6.6037004     12989.47     41164.43     52784.78     92.12801      183.455     366.9831      2.899     7.34     1201.535      64.6803     1544.955        97     2.461     1.971 -46.93   0
       342    249.9720    156.6243 307.8283123  +6.6023920     2439.795     7848.902     9323.556     91.39855      183.382     366.7641      2.806     7.84     1202.956      64.6803     298.6084        56     2.235     1.758 -50.41   0
       343    398.6558    150.9130 307.7666195  +6.6096956     19081.91     60923.86     77969.19     91.98257      183.382     367.0925      2.885     7.24     1185.893      64.6803     2157.334       107     2.454     1.991 -50.44   0
       344    154.6562    152.2242 307.8681331  +6.6010387     1615.724     4918.382     6017.692     91.54491      183.528     366.7276      2.742     7.84     1205.409      64.6803     220.1598        44     2.020     1.683 -71.54   0
       345    737.7866    146.9255 307.6255938  +6.6225887     15047.37     41471.52     50308.26     91.39855      183.236     366.7276      2.643     6.50     1181.052      64.6803     1502.201        90     2.243     1.840 -49.20   0
       346    303.2026    148.6831 307.8064251  +6.6074454     7175.777     21929.62     30110.59     91.25196     183.0898     366.5815      3.050     7.31     1199.388      64.6803     843.9027       103     2.865     2.084 -15.00   0
       347     54.8885    144.6002 307.9099157  +6.6008665     4121.502     11743.65     14196.54     91.10514     182.9435      366.545      2.704     6.79      1211.75      64.6803     520.7727        68     2.255     1.797 -60.90   0
       348     90.6888    142.6193 307.8950824  +6.6028786     724.1168     1753.473     2589.394     91.69103      183.236     366.8371      3.141     6.70     1207.967      64.6803     108.3116        10     1.835     0.686 -54.25   0
       349    997.3334    127.4721 307.5182088  +6.6392103      1318.88     3132.106     3753.721     91.98257     183.6009     367.0195      2.355     8.39     1175.005      64.6803     148.1217        25     1.715     1.146 -42.60   0
       350    586.7252    123.3390 307.6892676  +6.6273361      635.644     2013.066     2948.016      92.2732      183.528     366.9466      2.705     3.03     1179.807      64.6803      94.2052         4     0.815     0.328  32.60   2
       351    273.5115    121.8400 307.8196908  +6.6175554      11958.5     37285.51     48944.16     91.98257      183.455     366.9831      2.929     7.17     1202.837      64.6803     1410.386       104     2.474     2.039 -45.85   0
       352     18.9523    120.3341 307.9256951  +6.6097002     1911.668      5395.55     6053.113     91.83691      183.455     366.9831      2.660     7.01     1214.794      64.6803     258.9478        42     1.926     1.630 -45.56   0
       353    704.9105    118.3107 307.6402418  +6.6333306     3835.037     10201.71     12267.84     91.98257     184.1106      367.056      2.646     6.52     1179.756      64.6803     376.4084        58     2.154     1.644 -47.63   0
       354    116.1884    115.6474 307.8853825  +6.6148787     2019.441     5719.815     7844.062     91.25196      183.382     366.5815      2.903     7.28     1206.587      64.6803     319.4722        47     2.167     1.578 -41.83   0
       355    388.2687    111.5818 307.7722712  +6.6256109     1524.566     3406.901      4309.62     91.54491      183.382     366.8736      2.333     9.09     1186.884      64.6803     169.5634        22     1.983     1.163  82.04   3
       356    351.0830    110.4910 307.7877863  +6.6248263      1368.41     3966.995     4747.157     91.69103     183.8195     367.0195      2.711    10.31     1192.819      64.6803     165.5769        35     1.813     1.677 -40.35   0
       357    385.7716    112.7438 307.7732713  +6.6250475     1484.442     4034.958     5330.087     91.54491     183.6009     366.8371      2.976     9.56     1187.229      64.6803     165.5305        29     2.307     1.105  78.76   3
       358    997.9095    103.4079 307.5187768  +6.6491783     825.2537     1493.741     1453.908     91.54491     183.1629     366.6911      1.876     7.13     1174.131      64.6803      98.6239        11     1.372     1.037 -85.69   0
       359    203.8648     99.9932 307.8494189  +6.6242699     2332.741     5402.384     6486.648     91.39855      183.236     366.6911      2.403     7.43     1204.451      64.6803     282.3192        40     2.214     1.342 -40.95   2
       360    201.7657     96.9997 307.8503940  +6.6254376      1364.46     2655.135     3341.743     90.95808      183.309     366.6911      2.099     4.76     1204.474      64.6803      157.684        12     1.106     0.843 -24.93   3
       361     87.3285     99.4940 307.8979417  +6.6205951     980.1903     2399.731     3403.907     91.83692     183.6009     366.9466      2.760     6.04     1207.977      64.6803     135.2159        13     2.019     0.508 -50.03   2
       362    664.4206     98.4838 307.6577639  +6.6401867     2644.186     7258.338     9440.348     91.69103     183.1629     366.8736      2.799     7.47     1178.854      64.6803     278.4749        45     1.939     1.731  -5.96   2
       363    617.0281     95.4778 307.6775928  +6.6398591     4400.227      12113.4     14411.49     91.83691      183.455     366.9466      2.653     7.28     1178.756      64.6803        462.4        54     1.973     1.775 -35.03   3
       364    620.2968     86.7460 307.6765265  +6.6435774     23483.31     66916.32     82815.52     91.83692      183.528     367.2019      2.744     6.64      1178.54      64.6803     2642.894       106     2.376     1.939 -49.88   3
       365    344.8314     92.3811 307.7910004  +6.6321055     1650.894     4273.893     6794.116     91.54491      183.309     366.8006      3.634     9.70     1193.589      64.6803     219.2816        33     2.415     1.847   4.73   2
       366    525.4319     90.9300 307.7158740  +6.6387022     844.8054     1754.383     2601.875     91.83691      183.528     366.9831      2.964     4.69     1179.326      64.6803     100.1438         9     1.137     0.853 -15.32   0
       367    300.3979     81.5826 307.8098606  +6.6350926     1476.923     3923.124     5474.603     91.54491     183.0167     366.6911      3.068     8.30     1201.751      64.6803     186.0529        30     2.027     1.552 -54.62   2
       368    684.8809     70.7742 307.6501801  +6.6523203     1532.609     4052.954     4219.198     91.83691      183.309     366.9831      2.527     9.04     1177.677      64.6803     197.0131        29     1.817     1.439 -44.59   0
       369     65.2050   1017.5291 307.8760686  +6.2403271     5761.475      11339.3     12609.38     91.54491     183.0898     361.7659      2.099     4.67     1236.039      64.6803     633.6458        43     1.808     1.297 -45.86  16
       370    425.7784     62.3773 307.7583193  +6.6471989     1429.882     4271.235     5177.394     91.69103      183.309     366.9101      2.731     9.62     1183.837      64.6803     187.8792        32     1.893     1.434  63.46   2
       371    428.2116     60.2431 307.7573785  +6.6481620     1209.715     2233.125     3323.848     91.39855      183.309     366.6181      1.971     5.61     1183.849      64.6803      172.189        11     1.360     0.652  42.56   3
       372    898.9219     57.0910 307.5615393  +6.6650581     2198.399     5217.432     5930.804     91.69103     183.8195     366.9831      2.417     6.38     1171.175      64.6803     237.6686        37     1.880     1.390 -68.20   0
       373    880.2162     58.2587 307.5692870  +6.6639571     1139.224     2543.599     2697.886     91.39855      183.455     366.6546      2.191     6.66     1171.623      64.6803     134.8549        16     1.499     0.831  88.39   2
       374    592.6166     56.0836 307.6890823  +6.6553366     816.1532     1714.231     2118.727     91.54491     183.1629     366.8371      2.262     5.64     1177.857      64.6803     123.3262         8     1.262     0.709 -70.76   0
       375    390.8775     53.7082 307.7731400  +6.6496236     897.5381     2063.361     2678.204     91.69103     183.8195     366.9831      2.956     7.26     1187.824      64.6803     126.9249        16     1.614     0.916  -9.03   0
       376    138.0952     50.7781 307.8784607  +6.6424261     1243.745     3817.952     4945.667     91.98257      183.309     366.7641      2.894    10.19     1205.001      64.6803     157.5552        35     1.913     1.618 -56.05   0
       377     19.8751     48.5260 307.9277451  +6.6394169     5686.764     16085.83     21104.24      92.2732     183.8195      367.056      2.876     6.72     1210.733      64.6803     665.6207        78     2.321     1.866 -48.66   0
       378    821.4041     42.7257 307.5942920  +6.6684346     3152.299     7881.366     9371.667     91.54491     182.9435     366.8371      2.495     6.64     1172.143      64.6803     354.7456        43     1.963     1.463 -41.86   0
       379    766.4955     44.0431 307.6171055  +6.6660735     1616.915     3502.487     5052.978     91.98257      183.455     367.0925      3.278     8.45     1173.628      64.6803     166.6206        28     2.122     1.350 -28.17   2
       380    765.7192     41.0074 307.6175308  +6.6673028     1038.181     1938.269     2847.347     91.54491     183.0167     366.7641      2.344     5.88      1173.39      64.6803     144.5109        10     1.139     0.853 -44.20   3
       381     60.3099     40.7909 307.9111767  +6.6439629     1413.273     3684.242      4372.59     91.69103     183.1629     366.6911      2.633     7.15     1207.955      64.6803     191.6693        29     1.739     1.417 -50.05   0
       382      2.8597     36.1898 307.9352458  +6.6439493      1331.56      3307.91     4459.492     91.25196     169.4179     303.2672      2.773     7.68     1210.732      64.6803     176.8032        27     1.813     1.364 -77.69  24
       383    762.0652     31.3030 307.6193785  +6.6711940     1020.827     2506.327      2871.68     91.98257     183.6009     366.9831      2.446     4.29     1172.668      64.6803     140.8475         8     0.881     0.622 -45.23   2
       384    794.4124   1016.6126 307.5727909  +6.2649001     11546.39     20111.32     21338.55     91.83692     183.1629     366.6911      1.888     4.30     1236.031      64.6803     1342.773        47     1.768     1.213 -44.68  16
       385    986.7480   1015.4966 307.4928231  +6.2717139     787.0125     1384.878     1405.776     91.83692      183.528     367.2383      1.454     4.74     1231.924      64.6803     141.9352         8     1.298     0.612 -39.15  16
       386    577.9569   1007.5804 307.6631312  +6.2614707     115865.2     228582.8     256108.1     91.39855      183.382     366.7641      2.124     4.56     1238.906      64.6803     12343.44       114     2.040     1.500 -45.86   3
       387    579.8107   1000.1678 307.6626096  +6.2645968     52999.64     103870.2     113912.9     91.39855      183.236     366.7641      2.074     4.95     1238.424      64.6803     5535.827        78     1.899     1.433 -40.21   3
       388    248.9730     14.5161 307.8335344  +6.6611084     672.5953     1642.813     3777.918       92.128      183.236     366.8006      3.038     2.86     1203.918      64.6803     112.0195         5     0.753     0.452 -20.17   3
       389    212.1031   1010.5918 307.8152044  +6.2480829     2677.602     5343.675     5633.024     91.69103     183.0898     366.7276      2.035     5.90     1238.289      64.6803     301.8593        28     1.632     1.171 -30.94   0
       390    788.6694   1004.3049 307.5755932  +6.2697987     5581.917     9625.692     10162.68     91.83692     183.6009     366.9831      1.864     4.19     1235.358      64.6803     661.6613        34     1.652     1.090 -48.91   0
       391    886.7527   1000.8660 307.5349090  +6.2744617     1323.379     2134.345     2426.617     91.98257      183.455     366.9831      1.916     4.65     1234.438      64.6803     191.3149        14     1.271     0.852 -25.21   0
       392    209.2927    999.9199 307.8167339  +6.2524015     1420.731     3088.335     3156.883     91.69103     183.8195     367.0195      2.235     6.16     1237.968      64.6803     237.6443        19     1.424     1.083 -62.08   2
       393    712.5732    996.8281 307.6074978  +6.2703731      5604.92        10241     11192.31     91.39855      183.309     366.7641      1.951     4.31     1235.593      64.6803     632.6187        41     1.745     1.224 -46.26   0
