#   1 NUMBER                 Running object number                                     
#   2 X_IMAGE                Object position along x                                    [pixel]
#   3 Y_IMAGE                Object position along y                                    [pixel]
#   4 ALPHA_J2000            Right ascension of barycenter (J2000)                      [deg]
#   5 DELTA_J2000            Declination of barycenter (J2000)                          [deg]
#   6 FLUX_APER              Flux vector within fixed circular aperture(s)              [count]
#   9 FLUXERR_APER           RMS error vector for aperture flux(es)                     [count]
#  12 FLUX_RADIUS            Fraction-of-light radii                                    [pixel]
#  13 FWHM_IMAGE             FWHM assuming a gaussian core                              [pixel]
#  14 BACKGROUND             Background at centroid position                            [count]
#  15 THRESHOLD              Detection threshold above background                       [count]
#  16 FLUX_MAX               Peak flux above background                                 [count]
#  17 ISOAREA_IMAGE          Isophotal area above Analysis threshold                    [pixel**2]
#  18 A_IMAGE                Profile RMS along major axis                               [pixel]
#  19 B_IMAGE                Profile RMS along minor axis                               [pixel]
#  20 THETA_IMAGE            Position angle (CCW/x)                                     [deg]
#  21 FLAGS                  Extraction flags                                          
         1      2.3799     78.9664 307.9358577  +6.6321505       654249      1039932      1091229     76.92858     137.5583     249.7568      1.755     5.22     827.3741     54.70393      63114.2       258     1.973     1.435  88.79  28
         2    440.5105     23.3389 307.7556790  +6.6697588     28723.62     35865.85     36345.27     77.79507     155.3438       310.41      1.264     2.40     817.5579     54.70393     4356.373        42     1.178     0.998  64.06   0
         3    690.3085     12.9441 307.6522267  +6.6823686     2202.858     2716.949     2287.979     77.67188      155.097     310.4716      1.268     3.27      815.171     54.70393     375.1675        15     1.105     0.786  76.31   0
         4    939.0604     13.4903 307.5488401  +6.6904047     1208.213     1806.063     1655.189     77.67188     155.3438       310.41      1.552     3.16     813.0125     54.70393     177.6285        11     0.962     0.789  21.75   0
         5      7.0153      9.7541 307.9362583  +6.6608811     476.0758     678.4742      889.511     77.30112     155.0352     302.8523      1.432     4.72     822.3184     54.70393     67.60925         5     1.243     0.507  70.58  16
         6    201.2427      8.8413 307.8555857  +6.6677567     920.2932     1025.001     1366.803     77.54848     155.2204     310.2248      1.153     2.56      821.248     54.70393     154.9524         8     0.795     0.636  50.50   0
         7    256.1495      7.9181 307.8328019  +6.6699727     908.9827     1210.235     1264.809     77.79507     155.2821     308.5534      1.279     2.70     822.1079     54.70393      166.442         6     0.726     0.559 -59.67   0
         8    178.5724      5.8908 307.8651046  +6.6682170     13180.48     16565.49     17047.85     77.91806     154.9734     293.2784      1.291     2.43     821.1833     54.70393     2102.849        29     1.130     0.954  56.67  16
         9    924.2056      3.2510 307.5553541  +6.6941396     4822.849      6690.92     7167.795     77.30112     147.1119     261.9947      1.444     2.77     812.8476     54.70393     784.7076        24     1.216     0.945  72.12  24
        10    522.8358      3.8955 307.7221207  +6.6805303     3703.627     4611.641     4412.069     77.91806     152.4189     270.9783      1.285     2.30     815.7045     54.70393      698.751        21     1.056     0.895  72.49  16
        11    725.0929      2.0351 307.6381364  +6.6880293      2386.64     2647.701     2338.277     75.42004     133.3161     244.8781      1.242     2.78     815.1132     54.70393     419.7639        13     1.010     0.718  54.09  24
        12    461.0604      2.3635 307.7478419  +6.6791042     2461.156     2915.776     3053.208     77.30112     137.4887      249.565      1.198     2.35     816.6188     54.70393     483.1343        13     0.934     0.762  77.91  24
        13    989.3532      1.1412 307.5283518  +6.6971712     781.1622     988.5953     887.0956     64.91123     120.3288     230.3704      0.955     3.35      812.826     54.70393     276.8956         6     1.120     0.314   8.00  24
        14    241.6395   1002.1285 307.8055136  +6.2589976     1564.758     2094.002     1701.445     77.67188     155.2204       310.41      1.351     3.16     845.3954     54.70393      253.203        14     1.030     0.875  -3.44   0
        15    582.7415   1022.9012 307.6631955  +6.2617878     160275.9     204346.9     207997.8      75.5469     134.1752      245.698      1.376     2.95     847.2319     54.70393     23837.14        58     1.356     1.002   9.24  27
        16    584.4935   1016.1202 307.6626943  +6.2646459     79837.28     116672.7     123465.9     77.54848     155.4054       310.41      1.595     2.99     847.0536     54.70393     10755.09        85     1.487     1.319  56.26  19
        17    716.8455   1000.1721 307.6082725  +6.2756310      2806.92     4179.204     4648.737     77.30112     155.2821     310.2557      1.577     3.26      845.982     54.70393     374.1633        25     1.219     1.128 -81.90   0
        18    732.3770    999.2860 307.6018532  +6.2765129     969.5729     1485.206     1473.933     77.79507     155.0352     310.2248      1.687     6.40     845.7971     54.70393     122.2751        11     1.258     0.927  74.31   0
        19    363.5144    997.7682 307.7550579  +6.2648637     2060.361     2700.898     2713.717     77.79507     155.0352     310.2557      1.388     2.89     846.9777     54.70393     310.2036        16     1.112     0.818  69.44   0
        20    701.9860    994.8116 307.6146210  +6.2773506     512.3659     767.2823     1008.553     77.67188     154.9116     310.2865      1.294     4.62     846.0307     54.70393     101.3816         7     1.494     0.405  50.66   0
        21    211.5100    996.1905 307.8182218  +6.2604434     439.3879     526.8935     778.5449     77.54848     154.9116     310.1631      1.208     4.40      844.374     54.70393     90.86261         6     0.957     0.576  23.55   0
        22    516.0079    988.9484 307.6920370  +6.2735857     1085.675     1547.415     1224.245     77.30112     155.0352     310.0087      1.474     4.84     846.8991     54.70393     149.9318        11     1.081     0.787 -60.56   0
        23    750.3443    987.1713 307.5947964  +6.2821119     8081.894      12191.4     12430.94     77.54848     155.2821     310.2557      1.628     3.19     845.0615     54.70393     1073.303        34     1.323     1.155  61.94   0
        24    545.7991    987.8358 307.6797045  +6.2750368     4670.762     6823.911     7019.429     76.92858     155.0352     310.1631      1.542     2.93     846.6743     54.70393     721.6379        23     1.189     0.998  56.79   0
        25    296.0522    986.6127 307.7834413  +6.2672196     16829.89     23990.04      25787.6     77.17714     155.1587     310.0704      1.520     2.92     845.8306     54.70393     2449.502        55     1.594     1.261 -26.97   0
        26    811.4512    986.4622 307.5694472  +6.2844336     1225.299      1757.21     1349.514     77.79507     155.1587     310.3483      1.616     4.10     843.4492     54.70393     154.5529        12     1.090     0.853 -83.86   0
        27    420.5767    987.2137 307.7317185  +6.2711235     1109.844     1591.615     1183.062     77.54848     155.0352     310.2557      1.482     3.71     846.6348     54.70393     163.2783        10     1.135     0.612  81.56   0
        28    267.6825    984.2571 307.7952991  +6.2672456     1104.893     1555.796     1534.323     77.79507     155.2204       310.41      1.418     3.41     845.1727     54.70393     156.4482        10     0.916     0.826   1.75   0
        29    911.7263    980.5786 307.5280063  +6.2901899     8346.742      13889.1     14812.92      77.4249      155.097     310.2865      1.804     3.73     842.5427     54.70393     1001.593        40     1.472     1.287  66.20   0
        30    542.9874    980.0414 307.6811322  +6.2781614     9124.874     12944.16     13917.56     77.17715     155.0352     310.1013      1.480     2.90      846.468     54.70393      1397.78        33     1.245     1.104  65.01   0
        31    885.3462    976.7426 307.5390876  +6.2908989      12129.9     19824.52     21003.97     77.91806     155.2204     310.3483      1.799     3.64     842.8474     54.70393     1429.209        52     1.530     1.373  23.86   0
        32    598.1078    977.3489 307.6583353  +6.2811072     1557.942     2256.309     2275.291     77.67188      155.097     310.5333      1.540     3.55     846.0413     54.70393     217.6461        16     1.161     0.920  83.15   0
        33   1007.0245    976.0366 307.4885866  +6.2952240     4242.176     7393.742     7593.189      77.4249     155.0352     310.1013      1.831     4.05     840.3105     54.70393     472.1168        32     1.506     1.211  46.12   0
        34    529.7831    975.8727 307.6867540  +6.2794431     4453.444      6808.36     7402.991     77.30112     155.1587     310.2557      1.722     3.36      846.467     54.70393     636.7682        35     1.774     1.154  17.19   0
        35    639.1832    974.9993 307.6413585  +6.2834434      1499.01     2319.078     2381.664      77.4249     154.7879     310.0396      1.581     3.60     845.9219     54.70393     203.8376        14     1.161     0.824   9.03   0
        36     64.1910    974.6362 307.8801093  +6.2644201     913.7935     1164.796     1342.005     77.30112     154.9734     310.1322      1.305     4.09     840.5436     54.70393     140.2078         8     0.953     0.725 -59.52   0
        37    482.5372    972.3401 307.7064891  +6.2793287     2421.965     3358.589     3042.952     77.79507     155.1587     310.3791      1.483     3.18     846.8007     54.70393     323.6877        19     1.189     0.927  58.26   0
        38    795.1564    973.2861 307.5766519  +6.2893331     599.6054     787.8113     896.1177     77.79507      155.097     310.3483      1.360     4.08     843.6071     54.70393     82.15234         6     0.757     0.628 -74.94   0
        39    917.0125    964.2865 307.5263532  +6.2970922     42675.46     69541.09      73319.3      77.4249     155.0352     310.2248      1.742     3.51     842.1349     54.70393     5317.813        70     1.534     1.369  64.34   0
        40    518.9022    967.3803 307.6915554  +6.2825873     546.3021     645.9283     795.7073     77.67188      155.097     310.1013      1.371     3.77     846.3427     54.70393     86.78558         6     1.196     0.341  49.66   0
        41    322.5484    965.8536 307.7731347  +6.2766746     635.5675     694.3588     924.0795     77.91806     155.1587     310.3791      1.466     4.76     845.2542     54.70393     88.44977         7     0.986     0.651  64.58   0
        42    224.2894    962.8780 307.8140317  +6.2746242     1928.166     2581.385     2463.573     77.54848      155.467     310.4716      1.431     2.92     843.5594     54.70393     299.6202        13     0.976     0.841 -51.95   0
        43    111.9470    962.0439 307.8607038  +6.2712157     795.0101     1135.302     1250.898     77.79507     155.2204     310.3483      1.642     4.65     840.8395     54.70393     104.9888        11     1.065     0.757 -74.69   0
        44    623.0794    961.0178 307.6485114  +6.2886808     916.8381     1134.512     465.3588      77.4249     154.9116     310.2865      1.270     2.98     845.6358     54.70393      157.924         8     0.863     0.660   2.48   0
        45    815.0057    958.2227 307.5689115  +6.2962116     2418.483     3760.938      3904.87     77.30112     154.9734     310.1939      1.647     3.62     843.2956     54.70393     343.7162        23     1.321     1.066  51.68   0
        46    763.1664    955.9324 307.5905131  +6.2954361     7018.059     10669.94     11656.56     77.67188     155.2821       310.41      1.631     3.12     844.1911     54.70393     1007.937        39     1.431     1.178  76.29   0
        47    549.7927    955.4155 307.6791287  +6.2885557      1077.42      1459.42     1427.053      77.4249     154.9734     310.1939      1.531     4.10      845.717     54.70393     149.8255        11     0.992     0.828 -54.37   0
        48    232.7020    955.3768 307.8107900  +6.2780022     1673.218     2203.114     2172.062     77.91806     154.9734     310.1939      1.447     2.99     843.3917     54.70393     242.7358        14     0.983     0.881   2.86   0
        49    197.0586    955.1907 307.8255954  +6.2768889     1007.204     1288.839     1620.168     77.17714     155.1587     310.0704      1.374     3.63     842.5944     54.70393     179.1214        12     1.185     0.706  77.93   0
        50     57.4677    953.4547 307.8836113  +6.2729406     3036.332     4032.479     4331.579     77.79507     155.1587     310.2865      1.467     2.94     840.0401     54.70393     433.1821        19     1.117     0.934  82.40   0
        51    951.4109    951.0359 307.5125104  +6.3037038     6325.788     10612.52     10896.32     77.30112     155.0352     310.1322      1.796     3.77     840.9681     54.70393     698.1881        36     1.398     1.293  66.33   0
        52    207.3707    947.4073 307.8215746  +6.2804468     810.1491      1075.03     1344.218     77.30112     155.0352     310.1322      1.467     3.24     842.5775     54.70393     147.4208         9     0.987     0.657  88.11   0
        53    633.4648    945.5113 307.6447164  +6.2954286     784.1588     882.5825     781.0125     77.79507     155.4054     310.3483      1.345     4.94     845.3135     54.70393     125.9943         8     0.976     0.709 -51.59   0
        54    925.3759    942.6736 307.5235992  +6.3062934      2039.18     3164.839     3455.967      77.4249     155.0352     310.2865      1.739     4.06     841.5568     54.70393     242.0087        18     1.243     0.963  65.90   0
        55    645.8592    938.7867 307.6397942  +6.2986173     5225.994     7201.877      7094.45     77.17714     155.1587     310.0704      1.439     2.83     845.1519     54.70393        746.4        24     1.142     1.039  78.56   0
        56    784.6533    939.3058 307.5821448  +6.3030147     1388.962     2143.551     2254.082     77.67188     155.1587      310.595      1.592     3.42     843.5926     54.70393     215.4465        14     1.063     0.883  59.89   0
        57    257.9796    939.0739 307.8008405  +6.2855771     4921.691     6743.269     7165.364      77.4249      155.097     310.2865      1.417     2.74     842.9657     54.70393     791.3779        22     1.090     0.995  70.75   0
        58    468.0095    937.1255 307.7136977  +6.2933845     1191.223     1584.716     1328.305      77.4249     154.8498     310.2248      1.407     2.49      845.897     54.70393     232.3995        10     0.886     0.700  86.34   0
        59     26.7687    936.5989 307.8969229  +6.2788732     2401.422      3506.81     3534.512     77.17715     155.0352     310.1322      1.573     2.92     839.3529     54.70393     351.3824        21     1.198     1.046 -38.41   0
        60    877.4280    934.8397 307.5437698  +6.3079378     1030.962     1464.159     1289.595      77.4249     155.0352     310.2248      1.470     4.34     842.3945     54.70393     137.3572        11     1.067     0.768  57.52   0
        61    293.8451    932.6642 307.7861632  +6.2894204     954.2902     1367.533     1637.572     77.79507     155.1587     310.3483      1.414     2.66     843.0084     54.70393     201.7863         9     0.871     0.695  72.86   0
        62   1001.6422    931.0416 307.4923168  +6.3136241     785.5303     1503.732     1979.059     77.54848     155.2204     310.2248      2.242     6.93      838.535     54.70393     87.48669        12     1.305     1.032  42.33   0
        63    949.0372    931.9899 307.5141293  +6.3114892     616.4788     1004.364     753.2517     77.30112     155.0352     310.0396      1.715     5.16     840.5076     54.70393     84.96472         6     1.370     0.549  28.76   0
        64    570.3482    931.4935 307.6713920  +6.2991169     1899.426     2740.096     2404.139     77.67188     155.0352     310.5642      1.527     3.07     845.0377     54.70393     260.4072        17     1.061     0.975  80.87   0
        65    609.7400    927.6180 307.6551647  +6.3020276     1449.812       2033.2     1906.788      77.4249     155.1587     310.1013      1.480     2.89     844.9686     54.70393     255.5197        14     0.982     0.905  13.77   0
        66     59.0199    928.4415 307.8838060  +6.2833199     767.8646     988.1648     1738.335      77.4249     155.0352     310.1631      1.349     2.26     839.5259     54.70393     144.9103         6     0.747     0.495  -4.56   0
        67    289.5427    925.4733 307.7881904  +6.2922459     1592.365     2228.476     2063.843     77.79507     155.2204     310.3174      1.440     2.95      842.655     54.70393     261.1057        15     1.056     0.867  56.19   0
        68    557.5985    923.4933 307.6769532  +6.3019959     785.3552     1071.702     789.0591     77.30112     154.9116     310.0704      1.355     5.20     844.8779     54.70393     117.7862         8     0.966     0.792  60.96   0
        69    756.5322    921.4750 307.5944158  +6.3094431     910.6646     1263.143     1154.419     77.91806     155.3438     310.3483      1.564     4.18     843.8163     54.70393     134.4672        11     0.956     0.903  19.46   0
        70    894.0491    917.9430 307.5374302  +6.3154658     7260.636     10928.58      11315.7     77.79507     155.2204     310.4716      1.587     3.19     841.7441     54.70393     936.4788        33     1.394     1.111  60.90   0
        71    131.6269    919.0074 307.8539756  +6.2896423     520.5813     806.7294     323.4919     77.30112     155.0352     310.1631      1.485     3.90     840.4116     54.70393     87.63116         5     0.905     0.482  87.25   0
        72    429.8423    915.2303 307.7302774  +6.3011533      2399.55     3070.307     2970.291      77.4249     155.1587     310.1939      1.389     2.79     844.3758     54.70393     350.4754        17     0.996     0.952  66.71   0
        73    331.5499    913.7023 307.7711421  +6.2985074     11488.27     15067.69     15588.23     77.67188     155.1587     310.5025      1.395     2.61     843.4995     54.70393     1677.247        31     1.169     1.033  71.56   0
        74    251.6257    912.7194 307.8043612  +6.2962464     8267.266     10857.96     11288.47     77.67188     155.0352     310.3483      1.382     2.59     842.3743     54.70393     1244.681        27     1.137     1.013  82.50   0
        75    579.9934    906.9398 307.6682066  +6.3095759     1209.446     1710.635     1649.991     77.17715      155.097     310.1322      1.405     2.97     844.6006     54.70393     221.7408        10     1.036     0.591  62.45   0
        76    764.4697    906.5615 307.5916167  +6.3158644     798.6627     980.5992      923.886     77.67188     155.2204       310.41      1.496     5.33     843.6671     54.70393     103.3732         9     1.077     0.744 -23.21   0
        77    142.1876    903.0099 307.8501270  +6.2966002     733.7015     1093.664     1484.929     77.54848     155.0352     310.2865      1.568     3.15       840.33     54.70393     112.9935         7     0.813     0.676  33.33   0
        78    866.2792    901.7505 307.5495005  +6.3212304     872.7762     1386.449     681.5222     77.79507     155.2821     310.3483      1.707     4.22     841.9657     54.70393     150.3789         9     1.062     0.728  -6.38   0
        79    408.3821    901.1315 307.7396597  +6.3062594     763.2823     950.0864      1310.52     77.30112      155.097     310.2865      1.262     4.21     843.7273     54.70393     151.4723         7     0.784     0.644  68.61   0
        80    909.8304    902.9696 307.5313751  +6.3221717     1156.244     1673.569     1506.239     77.30112     154.9734     310.1013      1.489     4.19     841.1855     54.70393      173.046        10     0.899     0.881 -72.06   0
        81    746.1235    896.0828 307.5995840  +6.3195817     1846.809     2340.782     2737.189     77.91806     155.5286     310.4716      1.322     2.85     843.8182     54.70393     307.5481        11     0.882     0.785  53.67   0
        82    569.8448    896.5275 307.6727682  +6.3135374     708.5251     913.0419     939.9186     77.67188     155.2821     310.3791      1.334     2.44     844.4167     54.70393     140.6365         5     0.717     0.435  25.53   0
        83    977.4865    891.7986 307.5036520  +6.3290272     1135.765     1832.237     2842.746     77.05296     154.7879     310.0704      2.274     5.19     838.9208     54.70393     159.6803        16     1.340     0.989  61.62   0
        84    610.2856    892.3552 307.6561147  +6.3166055     1001.121     1499.315     1543.554     77.79507      155.097     310.3483      1.512     3.88     844.3666     54.70393     169.1298        12     0.976     0.947 -85.88   0
        85    531.0732    892.0531 307.6890172  +6.3140944     1356.728     1691.987     1476.775     77.67188     155.2204     310.3483      1.379     3.43     844.3173     54.70393     194.9379        11     0.988     0.735  76.90   0
        86    621.6303    892.1833 307.6514096  +6.3170538      577.851     949.8116     923.5834      77.4249     154.9734     310.2865      1.574     3.28     844.3792     54.70393     111.6479         5     0.870     0.482  88.20   0
        87    664.7777    889.4860 307.6335827  +6.3196022     3014.997     4285.786     4852.298     77.79507     155.0352     310.2248      1.558     3.00     844.3846     54.70393      407.502        20     1.153     0.961  46.61   0
        88   1015.1465    888.6620 307.4881175  +6.3315701     678.5606     1240.278     1423.165     77.79507     155.1587     310.3174      1.954     4.35     837.4761     54.70393     93.86041         7     0.858     0.628  31.03   0
        89    954.7396    886.8083 307.5132638  +6.3303337     657.3004     830.3033     1341.335     77.17715     155.0352     310.1013      1.091     3.50      839.673     54.70393     112.3372         6     1.009     0.389 -77.39   0
        90    825.3282    886.0237 307.5670291  +6.3263650     961.4129     1295.288     808.6071      77.4249      155.097     310.3174      1.491     3.61     842.5907     54.70393     136.2646        10     0.897     0.822  75.04   0
        91     78.7734    885.1535 307.8770563  +6.3018530     2208.733     3227.785     3388.242      77.4249     155.2821     310.2557      1.514     2.66       838.92     54.70393     362.4989        18     1.241     0.912 -46.18   0
        92     61.2162    885.9924 307.8843183  +6.3009196     3367.332     5091.903     4822.709      77.4249     154.9734     310.1939      1.540     3.02     838.3907     54.70393     564.3754        23     1.257     1.017  59.07   0
        93    204.7942    884.7677 307.8247428  +6.3062235     2584.085     3556.776     3407.608     77.17714     155.0352     310.1322      1.414     2.81     841.5258     54.70393     427.2445        19     1.106     0.969 -57.49   0
        94    943.2098    884.7335 307.5181207  +6.3308082     807.9496     1096.556     1126.226     77.30112     155.0352     310.2865      1.637     3.83      840.092     54.70393     116.9439         9     0.908     0.723   7.58   0
        95    238.5956    881.5204 307.8108164  +6.3086929     1124.667     1331.614     1081.451      77.4249     154.7261     310.1013      1.305     3.19     842.0998     54.70393     153.0113        12     0.926     0.842 -26.81   0
        96    659.2598    878.6492 307.6362355  +6.3238933     7983.561     10890.57     11212.04     77.79507     155.2204       310.41      1.420     2.67      844.241     54.70393     1133.565        32     1.218     1.072  66.23   0
        97    343.7097    880.5808 307.7672012  +6.3125883     1045.579     1221.151     1732.768     77.67188     154.9734     310.2248      1.295     3.84     842.7867     54.70393     160.6076        12     1.104     0.741  55.01   0
        98    796.5356    879.3663 307.5792071  +6.3281580     941.3355     1206.045     1310.793     77.67188     155.2204     310.3174      1.475     4.52     843.1846     54.70393     135.4275        10     1.098     0.696  63.09   0
        99     19.4757    877.2766 307.9019420  +6.3031219     1461.251     1968.935     1876.242     78.04086      155.467     310.4408      1.489     3.40     836.7048     54.70393     201.8713        17     1.216     0.867  46.92   0
       100    448.9504    876.7670 307.7236287  +6.3176710     660.3959     892.4769     796.1262     77.67188     155.2204     310.2865      1.333     3.21     843.4199     54.70393     116.7869         5     0.787     0.495 -52.16   0
       101    896.9378    874.7240 307.5376686  +6.3334067     2902.086     4343.497     4238.509     78.04086     155.2204     310.3483      1.553     3.15     840.9365     54.70393     390.3538        22     1.206     1.006  62.87   0
       102     32.1677    875.7491 307.8967234  +6.3041772     1261.342     1650.954     1566.063     77.67188     155.2821     310.2865      1.278     3.44       837.11     54.70393     187.6262        10     0.934     0.718  86.08   0
       103    342.2775    871.9044 307.7680861  +6.3161229     19250.58     25468.43     26123.66     77.54848     155.3438       310.41      1.365     2.53      842.508     54.70393     3177.325        39     1.212     1.067  67.18   0
       104     76.7882    873.0731 307.8782859  +6.3067744     1463.657     1838.536     1909.555     77.30112     154.8498     310.1939      1.422     3.10     838.6047     54.70393     229.6648        14     1.033     0.862  82.91   0
       105    213.1898    871.5094 307.8217010  +6.3119780      1395.33     1653.054     1193.464     77.54848     154.8498     310.1322      1.225     2.53     841.6357     54.70393     230.5949        10     0.862     0.718  84.80   0
       106    392.6473    871.2451 307.7471927  +6.3180746     736.9072     1160.404     1191.799     77.79507      155.097     310.3791      1.527     4.19     842.8267     54.70393     109.4395         7     0.959     0.523 -30.12   0
       107    419.8397    862.5781 307.7361910  +6.3225594     1304.461     1624.246     1533.453      77.4249     155.0352     310.1631      1.198     2.56     842.8224     54.70393     236.0482        10     0.883     0.694  80.67   0
       108    105.6458    862.7919 307.8666484  +6.3119841     1813.526     2356.568     2549.841     77.30112      155.097     310.0396      1.318     2.65     839.2704     54.70393     276.7893        15     0.952     0.896   3.55   0
       109    451.8056    862.2281 307.7229290  +6.3237691     578.6932     742.0336     341.5144     77.30112     155.0352     310.1631      1.443     4.64     842.9584     54.70393     99.75073         5     0.872     0.702  80.13   0
       110     83.1852    860.3384 307.8760569  +6.3122462      522.778     765.0848     1308.857     77.30112     155.1587     310.1631      1.809     3.61     838.5263     54.70393     84.32013         5     0.980     0.382 -85.57   0
       111    673.7912    858.8953 307.6308600  +6.3325326     919.3288     1323.255     2518.924     77.54848     154.8498     310.1322      1.880     3.13      843.926     54.70393     176.2161         9     0.998     0.594  59.74   0
       112    500.5968    859.3785 307.7027637  +6.3265708     897.3125     1141.617     1658.442      77.4249     154.9116     310.1322      1.205     2.85     843.2418     54.70393     143.3566         9     0.956     0.616  -4.22   0
       113    887.4612    856.6429 307.5422056  +6.3405580     2064.158     2997.768     2578.188     77.79507     155.2204     310.4716      1.591     3.59     840.7808     54.70393     256.2288        17     1.171     0.924  59.73   0
       114     89.0091    856.1948 307.8737777  +6.3141517     2902.014      3799.02     4267.502     77.17715     154.9734     310.1939      1.412     2.76     838.6202     54.70393     453.1581        19     1.144     0.886  64.43   0
       115    858.1136    856.0834 307.5544113  +6.3398154     2212.258     3242.918     3494.559     77.54848     155.4054       310.41      1.580     3.32      841.269     54.70393     337.7644        18     1.098     1.017 -69.51   0
       116    821.5350    855.3836 307.5696245  +6.3388904     3284.517     4676.478     5158.492     77.30112      155.097     310.2557      1.553     2.99     842.2811     54.70393     457.4597        22     1.188     0.981  64.09   0
       117    557.3651    847.0585 307.6796019  +6.3335474     393703.3     520560.1     539003.1     77.67188     155.2204     310.3483      1.386     2.53     843.3701     54.70393     62830.33       162     1.404     1.253  71.89   4
       118    336.9793    853.9127 307.7708882  +6.3233747     826.5197     947.8827     1166.047     77.67188     154.9734     310.2248      1.229     2.96      842.213     54.70393     148.6705         8     0.840     0.642 -40.74   0
       119    401.5607    849.7226 307.7442112  +6.3272581     9291.789     12202.06     12889.42     77.67188     155.2204     310.3483      1.365     2.51     842.4738     54.70393     1431.603        29     1.162     1.003  73.29   0
       120    645.1996    849.8130 307.6430359  +6.3353321     1385.154     1933.468     1624.533      77.4249     154.9116     310.1631      1.458     3.15     843.6238     54.70393     212.8418        12     0.997     0.798  82.71   0
       121    344.7630    848.1282 307.7678496  +6.3260227     14957.52     19483.88     20026.14     77.67188     155.2204       310.41      1.357     2.66     842.2001     54.70393     2180.636        33     1.132     1.069  61.78   0
       122    663.1093    844.3250 307.6357817  +6.3381935     4113.526      5613.32     5953.285     77.79507     155.4054       310.41      1.458     2.75      843.512     54.70393     617.3683        21     1.125     0.919  63.37   0
       123    895.7377    843.0634 307.5392205  +6.3464395     5623.187     8324.319     8981.173     77.79507     155.2204     310.3791      1.585     3.09     840.4531     54.70393     795.0403        29     1.310     1.075  59.70   0
       124    734.5115    840.8220 307.6062476  +6.3420129     835.4909     1065.243     890.2362     77.79507     155.0352     310.2557      1.396     5.25     843.2114     54.70393     142.8887         9     1.122     0.732  81.89   0
       125    637.9583    838.2358 307.6464292  +6.3398714      3985.54     5309.094     5489.469     77.54848     155.2204     310.1939      1.392     2.73     843.2972     54.70393     627.4662        19     1.002     0.968  83.88   0
       126    826.5181    837.3075 307.5681571  +6.3465194      1768.68     2256.518      2511.99     77.54848     155.5286       310.41      1.387     2.78     841.8269     54.70393     243.8163        14     0.960     0.864  23.12   0
       127    628.5400    837.4517 307.6503664  +6.3398820     1103.234     1401.964     1740.312     77.79507     155.1587     310.3483      1.267     2.98     843.2509     54.70393     180.5021         8     0.870     0.652  56.06   0
       128    180.8608    838.1837 307.8362417  +6.3246578      543.879     587.1844    -168.9191     77.30112     155.1587     310.1322      1.148     2.62     840.2077     54.70393     106.2444         6     0.726     0.565 -46.90   0
       129    953.6830    835.8377 307.5153975  +6.3513444      842.312     1088.256     822.7646     77.79507     155.1587     310.3174      1.385     4.74     838.9749     54.70393     115.3661        10     1.073     0.679  22.73   0
       130    630.9598    832.8267 307.6495158  +6.3418721     2426.057     3293.755     3810.676      77.4249     155.0352     310.1631      1.426     2.69     843.1529     54.70393     429.3623        19     1.114     0.937  38.64   0
       131    914.4387    830.9180 307.5318585  +6.3520746     3308.755     4957.248     4770.242     77.79507     155.2821     310.2865      1.602     3.16     839.9812     54.70393     438.4783        22     1.188     1.064  33.72   0
       132    324.6196    831.6695 307.7767648  +6.3321464     1207.901     1508.404     1099.393      77.4249      155.097     310.2865      1.249     3.65     842.0031     54.70393     189.5232        11     1.008     0.806  70.85   0
       133    451.5414    853.5291 307.7233295  +6.3273520     766.8849     974.8937     1195.938     77.91806     155.2204     310.3791      1.534     5.32     842.8194     54.70393     124.0716         8     1.086     0.735  41.30   0
       134    372.7196    827.1255 307.7569432  +6.3356267     3135.689     4003.971     4394.025     78.04086      155.467       310.41      1.355     2.68     842.0909     54.70393     530.2473        20     1.121     0.939  47.16   0
       135    341.5937    819.2631 307.7701315  +6.3378350     636.5831     790.4321     668.8548     77.17715     154.9734     310.1322      1.272     4.04     841.9899     54.70393     103.8919         6     0.736     0.669  23.82   0
       136    508.8699    816.7808 307.7007513  +6.3444345     3659.172     4649.939     4685.132      77.4249      155.097     310.2865      1.306     2.58     842.4985     54.70393      617.054        17     1.048     0.849  61.88   0
       137    853.4907    815.5964 307.5576789  +6.3563790     1244.304       1725.6     2293.694     77.30112     154.9116     310.0704      1.540     2.90     840.8849     54.70393     209.3059        12     0.991     0.787 -58.00   0
       138    574.0001    814.5260 307.6737801  +6.3475335     945.5011     1155.528     1198.918     77.05296     154.6022     310.1322      1.361     4.48     842.5898     54.70393     142.3541        13     1.248     0.872   8.65   0
       139    555.7570    812.9059 307.6814100  +6.3475953     7204.669     9321.449     10191.99     77.79507     155.1587     310.4716      1.339     2.53     842.5089     54.70393      1183.21        28     1.172     0.973  55.23   0
       140    562.7388    812.2607 307.6785322  +6.3480940     1582.805     2017.391     2237.602     77.79507     155.2204     310.3791      1.313     2.76     842.4954     54.70393     239.9841        12     0.947     0.775  57.27   0
       141    473.4641    811.8709 307.7156181  +6.3452826     1854.465       2531.6      2801.38     77.79507     155.2204     310.3791      1.457     2.98     842.2794     54.70393     299.8298        13     1.005     0.772 -88.14   0
       142    267.3747    813.0106 307.8011605  +6.3379402     846.1057     1074.113     750.2178      77.4249     155.0352     310.2248      1.203     3.25     841.3166     54.70393     142.5048         7     0.908     0.585  38.51   0
       143    891.7171    810.8504 307.5419621  +6.3596069      1565.41     2137.448     1534.461     77.79507     155.2204     310.3791      1.521     3.98     840.0587     54.70393     212.9359        18     1.207     1.016  14.73   0
       144    115.0998    811.1150 307.8644559  +6.3336364     1528.392     1973.548     1564.843     77.79507     155.7132     310.4408      1.380     3.59     837.8953     54.70393     229.1549        15     1.159     0.862  56.51   0
       145    691.6045    809.5323 307.6251088  +6.3535065     841.7832     1009.286      1000.38     77.30112     154.9116     310.1631      1.361     4.07     842.5992     54.70393     128.4933         8     0.936     0.667  85.10   0
       146    526.4060    806.7411 307.6938044  +6.3491636     23613.69     30463.81     31080.38     77.30112      155.097     310.1013      1.331     2.50     842.3202     54.70393     3561.405        40     1.187     1.044  63.11   0
       147    367.7145    808.6141 307.7596409  +6.3431029     903.9039      1219.88     1026.569      77.4249     154.9734     310.2557      1.250     2.33     841.9195     54.70393     161.4951         6     0.664     0.618 -43.79   0
       148    232.0683    807.8917 307.8159930  +6.3388750     582.3122     1081.912     1481.086     77.79507     155.3438     310.3483      1.832     3.95     840.6495     54.70393     99.82074         5     1.024     0.437 -46.10   0
       149    940.0769    804.9066 307.5220767  +6.3636648     4187.751     6003.779     5982.122     77.54848      155.467     310.3483      1.504     2.99     838.9187     54.70393     605.4709        26     1.270     1.043  56.57   0
       150    173.0173    806.3129 307.8405669  +6.3375547     651.4363     805.7882     437.2073     77.54848     154.9734     310.2248      1.182     2.46     839.5593     54.70393     122.7849         7     0.694     0.670 -30.64   0
       151    231.8708    802.4161 307.8162584  +6.3411293     884.6595     1782.502     2951.473     77.30112     155.1587     310.2248      3.495     6.66      840.512     54.70393     105.5998        13     1.335     0.933 -39.65   0
       152     60.0066    803.0040 307.8876050  +6.3351431     770.5548     892.8955      1030.87     77.17715     154.9116     310.2248      1.267     3.62     836.6534     54.70393     129.7178         9     0.844     0.733  54.02   0
       153    694.7360    799.4987 307.6241429  +6.3577534     540.9629     867.3622     581.8245     77.79507     155.2821     310.3791      1.589     3.40     842.3102     54.70393     104.4184         5     0.771     0.434  22.85   0
       154     36.8954    797.5119 307.8973861  +6.3366376     1855.114     2494.593     2525.283     77.79507     155.5901       310.41      1.423     2.63     836.3778     54.70393     280.5331        14     0.922     0.887  84.88   0
       155    581.4283    796.3317 307.6713028  +6.3552929     626.8053     939.1157     1215.418     77.54848     155.2204     310.2865      1.927     4.61     842.0614     54.70393     101.1653         8     1.377     0.437  79.78   0
       156    319.0352    795.5278 307.7802934  +6.3468825     3996.352       4902.3     4612.907     77.67188     155.2204     310.3483      1.306     2.47     841.5061     54.70393     718.8826        18     1.005     0.879  75.39   0
       157     18.9227    793.7078 307.9049768  +6.3376069       2619.9     3733.573     3503.835     77.54848     155.4054     310.3791      1.520     3.21     836.1899     54.70393     346.5963        20     1.070     1.066   7.26   0
       158    784.6005    791.1906 307.5871006  +6.3641693     62812.09     84911.39     88015.55     77.17715     154.9116     310.1013      1.416     2.64     841.5743     54.70393     9287.587        63     1.322     1.127  62.63   0
       159    241.3669    767.8788 307.8134720  +6.3557062     767812.8      1500195      1633082     77.67188     155.2204     310.3483      2.071     3.73     839.2409     54.70393     63514.44       604     2.819     2.054  87.03   4
       160    723.0541    792.7544 307.6126078  +6.3614792     747.6274     915.4481      885.134     77.79507     155.2204     310.3483      1.336     4.60     842.1313     54.70393     107.8032        10     0.971     0.728  87.53   0
       161    427.9400    789.8769 307.7352580  +6.3528469     1098.986     1443.698     1099.165     77.91806     155.2821     310.3174      1.377     3.78     841.0651     54.70393     159.1572        10     0.956     0.732  61.59   0
       162    909.7558    786.3233 307.5352869  +6.3703324     9472.019     13528.63     14459.74     77.67188     155.2821     310.3791      1.538     2.88     839.4057     54.70393     1316.042        39     1.370     1.164  39.76   0
       163    712.8514    785.8494 307.6170750  +6.3639912     24970.21     33975.38     36121.76     77.91806      155.097     310.3174      1.426     2.66     841.9581     54.70393     4087.402        45     1.309     1.090  58.96   3
       164    706.5463    782.3218 307.6198110  +6.3652382     105346.2     136841.8     141419.4     77.91806     155.2204     310.3791      1.372     2.57     841.8478     54.70393     14845.31        71     1.283     1.139  71.04   3
       165    529.4361    786.7330 307.6932144  +6.3575257     486.1559     383.3221     327.3673     77.67188     155.2821       310.41      1.045     3.17     841.5389     54.70393     102.1708         5     0.721     0.487 -80.08   0
       166    351.4193    783.3506 307.7672529  +6.3529905     24800.11     32258.02      33132.7     77.30112     155.2821     310.1939      1.342     2.52     841.0615     54.70393     3725.029        42     1.191     1.066  66.05   0
       167    640.1252    782.5835 307.6473860  +6.3629220      1043.25     1486.519      1806.04     77.30112     154.9734     310.2248      1.531     3.67     841.7859     54.70393     162.8844        12     1.118     0.749 -86.42   0
       168    413.2643    781.1535 307.7416440  +6.3559596     26525.07     34066.75     35037.61     77.67188     155.1587     310.3791      1.313     2.45     840.4713     54.70393     4452.158        41     1.149     1.064  60.87   0
       169    400.8534    783.5457 307.7467179  +6.3545582      1669.04     1984.864     1725.102     78.04086     155.1587     310.3483      1.201     2.54      840.733     54.70393     307.6959        13     0.899     0.860  28.65   0
       170    950.4379    779.7810 307.5186095  +6.3743827     2213.977     3131.316     3288.412      77.4249     155.0352     310.1013      1.575     3.37     838.3921     54.70393     306.5325        19     1.216     0.948  84.29   0
       171    906.8477    777.7163 307.5367811  +6.3737898     7320.537     10297.39     11440.22     77.79507     155.2204     310.3791      1.518     2.92     839.3676     54.70393     1049.757        30     1.337     1.013  71.60   0
       172    879.4338    778.5756 307.5481373  +6.3725257     933.7313      1034.91     779.3273     77.30112     155.0352     310.1322      1.376     3.47     839.8029     54.70393     151.6796        11     0.939     0.828  61.91   0
       173    647.3596    777.0280 307.6445670  +6.3654565     7739.875     10038.37     10205.16      77.4249     155.0352     310.1939      1.352     2.57      841.606     54.70393     1283.631        26     1.128     0.974  71.78   0
       174    435.9818    774.9695 307.7324168  +6.3592700     2122.664     2617.965     2602.656      77.4249     155.0352     310.2248      1.279     2.70     840.3616     54.70393     353.7728        14     1.039     0.758  62.44   0
       175    161.0396    774.4636 307.8466083  +6.3503044     1006.031     1332.307     1163.063     77.79507     155.1587     310.3791      1.460     3.16     838.3011     54.70393     143.7329        10     1.005     0.624  60.27   0
       176    875.2646    768.9510 307.5501891  +6.3763613     752.3732     868.2916     470.4739     77.67188      155.097     310.3791      1.196     3.57      839.687     54.70393     115.4688         7     0.737     0.679  86.04   0
       177    600.1750    768.8501 307.6644350  +6.3672636      1118.47     1389.475      1324.99      77.4249     155.2204     310.2557      1.302     3.62     841.2361     54.70393     170.5366         9     0.902     0.685  70.72   0
       178    682.4155    766.9473 307.6303450  +6.3707842     2785.609     3335.807     3827.982     77.17714     155.2821     310.0704      1.226     2.46       841.35     54.70393     463.9216        18     1.036     0.878  53.21   0
       179    151.4474    767.9713 307.8508092  +6.3526644     1361.113     1654.168     1362.657      77.4249     155.2821     310.2557      1.351     2.80     837.8052     54.70393     201.5157        11     0.950     0.717 -20.75   0
       180    126.4363    767.9089 307.8611974  +6.3518543     1181.382     1458.218     891.4531     77.91806     155.1587     310.3791      1.295     3.34     837.1133     54.70393      193.138        11     1.065     0.679  25.34   0
       181    416.2101    763.8211 307.7410003  +6.3632141     64317.21     83428.68     86073.64      77.4249     154.9734     310.1939      1.349     2.45     839.5016     54.70393     11068.66        63     1.226     1.141  67.33   0
       182    959.1127    765.1707 307.5154928  +6.3807029     757.6984     1255.437     1251.046     77.91806     154.9734     310.2248      2.019     4.79     837.9955     54.70393     134.5529         9     1.324     0.653  56.58   0
       183    533.9315    762.8134 307.6921465  +6.3675516     8526.299      10899.4     10796.28     77.30112      155.097     310.2248      1.326     2.47     840.4298     54.70393     1576.589        27     1.085     0.993  66.51   0
       184    450.7004    761.4792 307.7267555  +6.3653304     5557.741     7378.203     7765.629     77.54848     155.5286     310.3791      1.378     2.46     839.8524     54.70393     882.4734        25     1.148     0.955  70.11   0
       185    779.1782    759.3478 307.5904134  +6.3771370     13299.44     17913.08     18298.78     77.30112     155.2204     310.1631      1.407     2.66     840.7463     54.70393      2082.73        34     1.245     1.036  69.82   0
       186      8.4358    755.7986 307.9106042  +6.3529078     1398.238     1948.452     1492.023     76.92859     155.0352     310.1631      1.417     3.29     835.8408     54.70393     233.9228        13     1.106     0.738  72.24   0
       187    447.3811    754.9739 307.7283514  +6.3679058     2790.037     3693.146     4103.477      77.4249     155.0352     310.2557      1.363     2.79     839.4813     54.70393     461.5738        16     1.064     0.827  64.63   0
       188    800.6934    753.5437 307.5816715  +6.3802480     1490.398     2082.835     2578.176     77.67188     155.2204     310.5333      1.495     3.19      840.241     54.70393     256.7626        15     1.022     0.946  33.79   0
       189    136.9102    751.5888 307.8573952  +6.3589426     13735.81     18079.02     19092.83     77.54848     154.9116     310.1631      1.388     2.57     836.9363     54.70393     2253.902        35     1.196     1.078  42.39   0
       190    145.1037    751.8322 307.8539846  +6.3591160     3603.612     4892.271     4915.265     77.91806      155.097     310.4408      1.406     2.72     837.1235     54.70393     592.5531        22     1.096     1.005  26.02   0
       191    129.0587    748.9642 307.8607437  +6.3597638     3509.824     4476.328     4961.744     77.79507     155.2204     310.3483      1.368     2.56     836.6654     54.70393     612.6453        18     1.042     0.876  53.76   0
       192    973.8075    747.7724 307.5099686  +6.3883738      1487.25     2201.518     2967.118      77.4249     155.0352     310.1631      1.564     3.70     837.3764     54.70393     188.0591        16     1.106     0.956 -89.52   0
       193    924.6875    747.7982 307.5303676  +6.3867346     6936.735     9699.489     9528.223     77.05296     154.8498     310.0704      1.469     2.70     838.8811     54.70393      1010.96        28     1.197     1.069  54.39   0
       194    680.1519    745.4967 307.6320004  +6.3795658     2033.726     2791.526     2777.113     77.79507      155.097     310.5025      1.385     2.93     840.6618     54.70393     330.5239        16     1.103     0.843  61.12   0
       195    567.0228    744.8422 307.6790042  +6.3760732     2849.576     3549.597     3392.853      77.4249      155.097     310.1631      1.313     2.37     839.9431     54.70393     524.9046        18     0.992     0.903  76.40   0
       196    415.0161    744.4766 307.7421431  +6.3711614     1403.397     1896.836     2172.359     77.30112     154.9734     310.2248      1.489     3.00     838.4034     54.70393     265.6444        13     1.080     0.742 -82.31   0
       197    129.1530    742.4468 307.8609231  +6.3624579     2188.794      2984.65     3334.159     77.79507      155.097     310.3483      1.406     2.95     836.4698     54.70393     354.0206        18     1.138     0.876 -88.77   1
       198    979.2091    739.0858 307.5080141  +6.3921395     2089.044     3106.298     3148.445      77.4249     154.9116     310.1939      1.540     3.48     837.1376     54.70393     305.9556        19     1.251     0.903  76.53   0
       199    948.3224    739.3055 307.5208343  +6.3910249      3360.01      4847.58     4564.091     77.54848     155.4054       310.41      1.546     3.00     838.1612     54.70393     456.2913        23     1.141     1.072 -61.22   0
       200    918.8616    739.7544 307.5330548  +6.3898627     3307.256      4512.73     4366.236     77.67188      155.097       310.41      1.438     2.86     838.8654     54.70393     504.4072        23     1.164     0.996  66.37   0
       201    671.2097    739.2246 307.6359233  +6.3818583     1625.992     1959.273      2035.03      77.4249     155.0352     310.2248      1.274     3.43     840.4132     54.70393     270.3664        14     1.180     0.747  81.94   0
       202    818.5236    737.6027 307.5747975  +6.3874219     1251.884     1716.861     1612.272     77.30112     154.7261     310.2248      1.556     3.43     839.5884     54.70393     173.0771        13     1.028     0.852  85.22   0
       203    894.0189    734.8244 307.5435362  +6.3910743     870.9413     1092.649     1487.491     77.54848     155.0352     310.2865      1.282     2.48     838.9639     54.70393     162.4261         7     0.688     0.685 -17.76   0
       204    243.7935    734.5042 307.8135823  +6.3695670     2230.464     3140.188     3661.858     77.54848     154.9116     310.1631      1.441     2.72     837.8594     54.70393     385.7966        16     1.031     0.882  35.98   0
       205    680.9037    730.9966 307.6321718  +6.3855778     746.9867     1323.974     1510.925     77.54848     154.9116     310.0396      1.555     5.41     840.2335     54.70393     120.9191        10     1.386     0.673  53.18   0
       206    936.6796    729.3337 307.5260015  +6.3947563     1193.768     1532.534     1439.965     77.91806     155.3438     310.3174      1.305     3.00     838.3391     54.70393        179.9         8     0.867     0.633  87.79   0
       207    264.2211    729.7424 307.8052586  +6.3722151     726.5449     674.8391     537.2851      77.4249     155.1587     310.1631      1.190     3.57     837.9377     54.70393     125.9036         6     0.892     0.575 -67.37   0
       208    159.2648    729.4622 307.8488540  +6.3688253     814.6611     1214.718     1338.793     77.79507     155.2204     310.3791      1.643     2.77     836.5872     54.70393     142.9333         7     0.881     0.518  53.43   0
       209    910.2371    728.4188 307.5370138  +6.3942571     1172.368     1745.268     2061.155      77.4249     155.0352     310.1322      1.563     3.02     838.7093     54.70393      177.167         8     0.845     0.660  53.87   0
       210    963.3286    726.9607 307.5150127  +6.3966196     2546.298     3523.918     3865.525     77.67188     155.2204       310.41      1.525     2.79     837.5223     54.70393     395.7206        18     1.093     0.904  85.02   0
       211    682.8635    726.3845 307.6315118  +6.3875473     1300.354      1636.84     2015.966     77.30112      155.097     310.1939      1.293     2.73       840.09     54.70393     228.3616         9     0.891     0.638  73.97   0
       212    474.2794    722.0938 307.7182799  +6.3823778     655.8653     655.9469     380.2121     77.54848     155.4054       310.41      1.235     2.13     838.5502     54.70393     155.9315         5     0.727     0.415  73.43   0
       213    403.4027    721.9507 307.7477193  +6.3800750     833.3087     1103.734     1078.592     77.17714     154.8498     309.9469      1.496     2.25     837.7674     54.70393     154.4211         7     0.710     0.643 -62.20   0
       214   1005.2048    720.5204 307.4978350  +6.4006666      1709.28     2438.443     2164.611      77.4249     154.7261     310.1013      1.588     4.02     836.2797     54.70393     271.4601        18     1.322     0.875  11.75   0
       215    631.1901    720.4487 307.6531699  +6.3882800     819.5891     1229.246      1000.36     77.30112     155.0352     310.0396      1.415     2.44     839.8315     54.70393     147.0851         8     0.834     0.612 -53.48   0
       216    806.2601    718.9577 307.5805117  +6.3947133     1331.771     1895.306     2006.387     77.79507     155.2204     310.4408      1.473     3.03     839.2922     54.70393     206.7031        11     0.874     0.841 -14.39   0
       217    892.7158    716.4750 307.5446881  +6.3986076      1667.24     2373.316     2776.564     77.91806     155.5286       310.41      1.566     3.14      838.628     54.70393     252.1418        15     1.122     0.805  36.09   0
       218    867.1958    711.4012 307.5554559  +6.3998559     1127.026     1640.538     1823.863     77.17715     154.7879     310.1013      1.605     3.67     838.8196     54.70393     180.5241        10     1.009     0.763 -60.86   0
       219    652.7154    711.1081 307.6445420  +6.3928525     703.4644     833.9317     933.5152     77.54848     155.6517     310.4408      1.293     2.59     839.5576     54.70393     133.5387         7     0.819     0.585  60.07   0
       220    849.5566    707.7150 307.5629045  +6.4007925     1804.061     2449.424     2479.927     77.79507      155.097     310.3174      1.385     2.89     838.8682     54.70393     265.7709        15     1.081     0.823 -80.26   0
       221    112.3129    705.7309 307.8691478  +6.3770542      982.149     1952.753     2016.824     77.79507      155.467     310.3791      2.091     6.64     835.1865     54.70393     150.3563        17     1.994     0.621  70.40   0
       222     48.5174    706.9552 307.8955994  +6.3744152     3028.126     3694.256     3682.201     77.79507     155.2204     310.3483      1.340     2.66     835.0344     54.70393     443.1551        18     1.046     0.928  62.50   0
       223    566.1460    701.3354 307.6808211  +6.3940076     621.0157     746.4016     640.8309     77.79507     155.1587     310.3174      1.340     2.51     838.4455     54.70393     142.9919         6     0.760     0.576  49.20   0
       224    703.9769    698.7265 307.6236655  +6.3996690     677.2886     841.8386     206.0195      77.4249     155.0352     310.2865      1.118     2.96     839.2918     54.70393     115.9937         7     0.744     0.647   8.49   0
       225    661.2966    695.2338 307.6415077  +6.3996923     7593.484     9704.202     10141.87     77.91806      155.097     310.5025      1.317     2.46     839.0705     54.70393     1235.115        29     1.156     0.991  51.12   0
       226    529.7667    695.3724 307.6961288  +6.3952588     776.8023     1052.926     1506.432     77.30112     154.9734     310.1322      1.302     2.56     837.8105     54.70393     163.5805         7     0.834     0.586  69.63   0
       227    518.8670    694.8788 307.7006720  +6.3950996     847.9357     703.0737     1018.764     77.91806     155.3438     310.3174      1.162     3.34     837.7787     54.70393      179.701         8     1.043     0.564  68.15   0
       228    608.1198    694.5376 307.6636160  +6.3982111      1735.26     2330.618      2566.52     77.91806     155.2821     310.3483      1.398     2.81     839.0515     54.70393     313.0701        13     1.019     0.804 -79.98   0
       229    635.1837    690.9238 307.6524966  +6.4006034     2495.216     3460.885     3470.494     77.30112     154.9734     310.2248      1.402     2.40     838.9487     54.70393     484.3749        18     1.103     0.876  75.91   0
       230    124.1791    691.3011 307.8647040  +6.3834087     4479.567     5615.983     5511.219     77.79507     155.0352     310.1322      1.321     2.59     834.8579     54.70393     683.0878        18     1.020     0.887  67.48   0
       231    998.4326    690.3026 307.5016523  +6.4129192     2878.399     4065.104     3643.648     77.79507      155.097     310.4716      1.523     3.24     836.4391     54.70393      425.636        20     1.095     1.006  48.98   0
       232    310.7725    691.0376 307.7872225  +6.3897493     781.2393      764.929     525.3514     77.30112     154.9734     310.1939      1.231     3.77     835.7755     54.70393     135.7858         7     0.965     0.606 -87.79   0
       233    246.7402    690.9907 307.8138163  +6.3876314     859.6123     1016.037     1159.591     77.17715      155.097     310.0704      1.216     2.48     835.4314     54.70393     172.7623         8     0.787     0.706  67.23   0
       234    460.2893    689.1512 307.7251911  +6.3955134      595.423     894.0778     631.5989     77.79507      155.097     310.4408      1.769     4.21     837.3514     54.70393     103.4248         7     1.146     0.442  84.43   0
       235    778.1384    687.2994 307.5932459  +6.4068511     23855.92      31017.9     31880.51     77.54848     155.1587     310.4716      1.344     2.54     838.7343     54.70393     3855.724        40     1.203     1.047  49.24   0
       236    477.3746    687.6799 307.7181447  +6.3966901     1598.497     2073.606     1310.134     77.54848     155.0352     310.3483      1.303     3.02     837.3965     54.70393     269.0941        13     0.970     0.884 -74.23   0
       237    908.1511    686.9295 307.5392608  +6.4113189     4306.508     5920.541     6025.159     77.79507     155.1587     310.3791      1.444     2.74     837.8812     54.70393     732.9719        21     1.131     0.951  72.30   0
       238    505.7111    687.2673 307.7063901  +6.3978043      1128.46     1339.138     1238.251     77.91806     155.4054     310.3174      1.294     3.22     837.4611     54.70393     209.0535        11     1.045     0.702  63.52   0
       239    323.0970    687.4091 307.7822256  +6.3916587     783.7426     1092.455     870.6149     77.54848     154.8498     310.1631      1.269     2.92     835.5617     54.70393     147.7121         7     0.884     0.522  83.35   0
       240    549.2450    686.1774 307.6883464  +6.3997038     661.5923     922.4628     1065.027     77.30112     155.2204     310.1939      1.429     3.10     837.6356     54.70393     129.0526         8     0.908     0.615 -80.01   0
       241    279.3631    687.1984 307.8003952  +6.3902862     855.2062     1269.223     1035.215     76.92859     155.0352     310.1322      1.284     3.43     835.3579     54.70393     138.7124         5     0.742     0.459  75.69   0
       242    251.6204    681.0916 307.8121211  +6.3918815     7429.763     9673.394     9887.246     77.67188     155.0352     310.1939      1.333     2.45     834.8811     54.70393     1203.851        27     1.109     0.992  82.25   0
       243    658.6439    680.1843 307.6431115  +6.4058179      8532.82      10835.5     11636.81     77.30112     155.0352     310.1631      1.283     2.45     838.6138     54.70393     1339.147        26     1.083     0.947  62.61   0
       244    640.9993    681.3747 307.6503999  +6.4047397     1075.672     1415.457      1852.13      77.4249     154.9116     310.1322      1.393     2.49     838.6443     54.70393     212.5959         9     0.870     0.639  69.78   0
       245    353.7121    679.9948 307.7697593  +6.3957412     790.1938     829.4119     529.2432     77.30112     154.9116     310.1013      1.210     2.26      835.283     54.70393     172.7237         5     0.730     0.411  71.65   0
       246    918.5025    672.6951 307.5354353  +6.4175396     1336.463     1853.977     1834.981     77.79507     155.7747     310.1939      1.508     3.64     837.4026     54.70393     200.2855        14     1.206     0.804  82.03   0
       247     18.8723    673.1817 307.9090442  +6.3873676     481.2643     792.8268      1513.58     77.30112     155.1587     310.2865      1.726     3.81     834.2363     54.70393     99.96027         5     0.804     0.518  47.37   0
       248    730.3658    668.4983 307.6137136  +6.4130270     4185.787     5596.116     5734.675     77.79507      155.097     310.4716      1.391     2.66     838.2236     54.70393     638.5466        21     1.168     0.886  67.81   0
       249    685.5490    669.0749 307.6323079  +6.4112994     1283.075     1617.005     1848.526     77.79507     155.2821     310.3483      1.146     2.46     838.3046     54.70393     221.8696         9     0.823     0.683  68.79   0
       250    996.7021    665.0617 307.5032103  +6.4232838     9802.244     13608.28     13970.72     77.54848     155.2821       310.41      1.481     2.99     836.0846     54.70393     1296.403        30     1.231     1.043  62.94   0
       251    935.1429    665.5867 307.5287605  +6.4210265     2752.052     3654.871     3643.602     77.17715      155.097     310.0704      1.372     2.82     837.0117     54.70393     457.5364        19     1.140     0.910  47.40   0
       252    737.5781    665.8356 307.6108069  +6.4143661      635.184     775.1713     924.5853     77.30112     154.9734     310.1013      1.471     5.55     838.1647     54.70393     88.67883         9     1.306     0.664  45.36   0
       253     15.4664    665.0527 307.9107315  +6.3906098     2078.016       3127.3     4148.827     77.79507     155.1587     310.2865      1.744     6.35     834.0809     54.70393     340.1588        21     1.746     0.985  10.84   0
       254    984.0012    665.5427 307.5084694  +6.4226643     1136.622     1542.296     1712.547     77.17714     154.9116     310.0396      1.142     4.34     836.3133     54.70393     355.2969         7     1.182     0.454 -28.29   0
       255    978.6152    665.4675 307.5107089  +6.4225169     1989.141     2015.235     2152.562     77.30112      155.097     310.2557      0.853     3.40     836.3477     54.70393     624.0865         6     0.691     0.483  14.78   0
       256    549.2992    663.0280 307.6890971  +6.4092638     653.7292     694.0023     762.3901     77.79507     154.9734     310.3174      1.215     4.42     837.1067     54.70393      148.007         7     1.006     0.553  69.36   0
       257    432.7204    663.1310 307.7375107  +6.4053382     727.6535     794.6974     1013.232     78.04086      155.467     310.3174      1.190     2.87     836.4674     54.70393     118.6619         7     0.837     0.570  65.01   0
       258     73.9589    660.1932 307.8866035  +6.3945732     30035.35     39492.88     40983.16     77.17715     154.9116     310.0704      1.371     2.59     834.0211     54.70393     4859.593        47     1.242     1.084  59.21   0
       259    535.1849    661.0596 307.6950248  +6.4096066     2423.774     2992.293     2603.889     77.30112     155.1587     310.1013      1.224     2.48     836.9598     54.70393     434.3086        12     0.991     0.686  65.04   0
       260    504.0109    658.3219 307.7080634  +6.4096989     1640.445     2047.434      1632.72      77.4249     154.8498     310.2248      1.262     3.12      836.673     54.70393     293.2284        14     1.167     0.727  67.23   0
       261    925.1653    657.1864 307.5331840  +6.4241641     1065.853     1255.208     1181.826     77.30112     154.9734     310.2248      1.251     2.64     836.9906     54.70393     193.3259         9     0.873     0.656 -15.33   0
       262    544.2428    654.8438 307.6914705  +6.4124746     1150.528     1412.306     1461.679     77.54848     155.2204     310.1939      1.250     3.71     836.9758     54.70393     199.3671        11     1.091     0.743  63.23   0
       263    720.0765    652.2296 307.6185295  +6.4194024     4165.271      5345.51     5309.146     77.67188     155.2821     310.3791      1.301     2.53     837.8633     54.70393     702.2769        21     1.104     0.881  51.15   0
       264    742.0393    650.4210 307.6094679  +6.4208790     4878.865     6124.578     6326.124      77.4249     155.0352     310.1322      1.299     2.46     837.7704     54.70393     829.2047        20     1.068     0.882  64.36   0
       265    573.5030    648.5166 307.6795294  +6.4160610     4067.713     4972.846     4924.661     77.79507     155.5901       310.41      1.196     2.46     837.1203     54.70393     633.7363        16     0.989     0.814  72.06   0
       266    409.5001    648.9391 307.7476290  +6.4104239     1597.211     2028.272      1653.57     77.54848      155.097     310.4716      1.332     3.26     835.6183     54.70393     237.6246        12     1.024     0.745  61.62   0
       267   1014.9722    646.5433 307.4962377  +6.4315355     5536.102     8082.205     7857.229      77.4249     155.2821     310.2557      1.542     3.14     834.9236     54.70393     741.7372        29     1.309     1.062  65.89   0
       268    234.0553    648.0389 307.8205233  +6.4049420     2097.581     2709.806     2615.508     77.79507     155.2821     310.3483      1.354     2.73      833.902     54.70393     325.0817        13     0.944     0.814 -81.96   0
       269    317.6589    647.6030 307.7858166  +6.4079126     1764.857     2388.469     2267.982     77.17715     155.0352     310.1013      1.398     2.70     834.0683     54.70393     282.8019        12     0.968     0.736  71.67   0
       270    980.3345    645.3881 307.5106626  +6.4308647     8958.149     12433.97     12629.76     77.30112     155.0352     310.2248      1.487     2.82     835.5876     54.70393      1284.24        33     1.230     1.115  60.79   0
       271    534.3069    646.2258 307.6958850  +6.4157021     687.2624     925.8999     1227.796     77.91806     154.9734     310.1939      1.178     2.28     836.7855     54.70393      165.028         6     0.693     0.610 -50.30   0
       272    700.3011    644.1976 307.6270107  +6.4220615     1109.437     1462.143     1242.695     77.30112     154.9734     310.0396      1.378     3.13     837.7398     54.70393     192.0295        10     0.895     0.808 -53.05   0
       273     91.5902    642.3458 307.8798802  +6.4025316     1121.103      1320.49     1250.416     77.17715     155.1587     310.0704      1.300     2.95     833.6402     54.70393     180.8557        12     0.997     0.771 -63.74   0
       274    425.6808    639.7540 307.7412161  +6.4147557     3516.869     4551.006     4547.254     77.79507     155.2204     310.3483      1.328     2.68     835.4755     54.70393     611.5823        19     1.375     0.831 -71.77   0
       275    138.7455    639.1065 307.8604053  +6.4054457     29116.98     37824.46     38578.28     77.67188     155.1587     310.5642      1.331     2.53     833.6362     54.70393      4671.47        43     1.198     1.053  68.06   0
       276    806.8996    639.5133 307.5828927  +6.4275369     1430.472     1827.029     1574.383     77.79507     155.7132       310.41      1.385     3.31     837.5239     54.70393     204.2095        12     1.045     0.772  60.79   0
       277    358.2895    634.0453 307.7693960  +6.4148658     869.0377     1146.612     1256.971     77.79507      155.097     310.4716      1.352     3.42     833.9464     54.70393     139.2717         9     0.858     0.793 -11.88   0
       278    975.2488    628.4585 307.5133380  +6.4376863     7750.406     11400.16     11633.96     77.79507     155.2204       310.41      1.594     3.19     835.0936     54.70393     1030.511        36     1.461     1.082  49.93   0
       279     19.8483    627.9873 307.9101564  +6.4060599     1365.749     1884.526     2107.512     77.17715     155.1587     310.0704      1.387     2.87     833.3787     54.70393     246.3359        13     1.019     0.806  79.67   0
       280    568.7748    623.7744 307.6823194  +6.4261195     58314.81     73535.77     75335.39     77.30112     155.0352     310.2248      1.280     2.42     836.5483     54.70393     10642.69        51     1.175     1.031  65.73   0
       281    212.0079    625.3541 307.8304399  +6.4135717     767.3333     1082.882     1418.871     77.30112      155.097     310.0396      1.519     3.54     833.4173     54.70393     128.5731         9     1.033     0.683  68.50   0
       282    933.2586    625.4280 307.5308793  +6.4375455      749.226     842.3531     1029.679      77.4249     155.2821     310.2557      1.222     2.79     836.2063     54.70393     114.9216         6     0.679     0.645 -68.45   0
       283    793.3652    623.5784 307.5890450  +6.4336670     612.8027     765.1718     472.4964     77.30112     155.0352     310.1013      1.218     3.12     837.1296     54.70393     113.4041         6     0.988     0.475  84.98   0
       284    528.0259    624.0743 307.6992337  +6.4246392     827.0659     915.4922     318.5789      77.4249      155.097     310.3174      1.174     1.94     836.4357     54.70393     191.8589         7     0.782     0.520  46.49   0
       285    176.1564    620.6387 307.8454875  +6.4143209     3274.488     4408.239     4465.082     77.54848     155.1587     310.2248      1.396     2.72     833.3278     54.70393     525.8076        17     1.005     0.889  59.57   0
       286    979.8091    619.9852 307.5117257  +6.4413361     708.9138     966.2609     853.4273     77.54848     154.9734     310.2248      1.278     5.40     834.6558     54.70393     107.1851         8     1.133     0.727  84.09   0
       287    498.6101    620.4751 307.7115712  +6.4251457     794.0317     1000.757      945.145      77.4249     154.8498     310.1631      1.365     3.58     835.8458     54.70393     151.1303         8     0.992     0.601  45.18   0
       288     68.9709    614.8228 307.8901976  +6.4131387       1757.5     2309.354     2532.225     77.30112     155.0352     310.1939      1.378     2.59     833.0778     54.70393     351.2401        13     1.052     0.711  84.56   0
       289    466.0113    607.6148 307.7255404  +6.4293696     78056.71     97516.62     100540.2     77.54848     154.9116     310.2865      1.303     2.39     834.9053     54.70393      14690.9        62     1.206     1.050  69.39   0
       290      9.4412    609.4768 307.9151001  +6.4133541     2134.316     2685.471      2966.74     77.67188     155.2204       310.41      1.315     2.68     833.0305     54.70393      315.266        14     0.948     0.839  80.19   0
       291    651.9163    604.6760 307.6484251  +6.4367712     1134.033     1440.174     1764.675     77.91806     155.5286     310.4408      1.389     2.87     836.4345     54.70393     182.0989         9     0.932     0.623  53.24   0
       292    140.2798    602.8065 307.8609855  +6.4204845     1977.528     2241.962     1573.271      77.4249     154.7879     310.1322      1.303     2.95     832.8951     54.70393     300.6851        13     0.964     0.811  59.43   0
       293    936.2283    600.5921 307.5304722  +6.4478988     747.6154     1173.673     1594.486      77.4249     155.0352     310.1631      1.819     5.91     835.4655     54.70393     120.6085         8     1.245     0.789  28.53   0
       294    419.6861    600.5494 307.7450170  +6.4307430     1251.311      1829.83     2233.683     77.79507      155.097       310.41      1.584     2.74     833.7437     54.70393      207.772        11     1.011     0.677  61.14   0
       295    612.1054    599.4366 307.6651352  +6.4376103         1035     1352.898      1462.45     77.91806      155.097     310.4408      1.482     2.55     835.3351     54.70393     223.4857        10     0.981     0.673 -84.94   0
       296    960.5814    597.9435 307.5204451  +6.4497998      543.532     680.5353     608.9509     77.30112     155.1587     310.1631      1.364     3.45     834.5113     54.70393      69.1391         5     1.508     0.228  72.94   0
       297    493.8552    598.3027 307.7142871  +6.4341420     544.9438     836.1382     1280.179     77.67188     155.2204     310.5333      1.630     3.93     835.0948     54.70393      90.7254         6     1.291     0.342 -86.25   0
       298     99.4305    608.5214 307.8777590  +6.4167592       412.42     361.6586     256.6061     77.67188     155.2821     310.3174      1.041     4.10     832.9215     54.70393     87.40625         5     0.963     0.499  -1.63   0
       299    311.4977    596.9334 307.7900719  +6.4286278     2499.032     3401.369     3718.176     77.79507     155.2821       310.41      1.370     2.75     832.8857     54.70393     368.3441        19     1.109     0.878  64.37   0
       300    463.6166    595.4391 307.7269420  +6.4343170     1064.898     1298.568     2076.002      77.4249      155.097     310.1322      1.235     2.81     834.4141     54.70393     165.2158         9     0.947     0.604  78.78   0
       301    738.1110    591.0220 307.6130798  +6.4452741     6371.911      8302.79     8665.817     77.79507     155.0352     310.2248      1.339     2.46     836.2177     54.70393     1134.492        25     1.117     0.973  56.59   0
       302    176.5796    593.1931 307.8462320  +6.4256668     389.4533     811.5427      1534.51      77.4249     154.9734     310.1631      3.084     4.51     832.6652     54.70393      68.8927         5     0.829     0.696  37.33   0
       303    791.6062    586.2666 307.5910189  +6.4490145     16519.02     20914.79     21984.67     77.30112     154.9734     310.1631      1.296     2.50     836.3145     54.70393     2537.494        30     1.136     0.965  58.63   0
       304   1008.7531    586.7080 307.5008102  +6.4560355     1191.822     1810.093     1758.273     77.79507     155.1587     310.4716      1.494     3.10     832.5697     54.70393     170.0783        10     0.852     0.807 -86.42   0
       305    533.6804    586.4841 307.6981411  +6.4403481     1466.547     1975.785     1848.287     77.67188     155.5286     310.4408      1.464     2.76     835.1945     54.70393     267.3189        12     0.928     0.822 -83.80   0
       306     36.5181    586.1717 307.9046374  +6.4238824     919.8467     1360.751     1636.733     77.67188     155.0352     310.2865      1.755     3.65     832.8498     54.70393     145.2318        11     0.983     0.818  40.37   0
       307    615.5656    584.3672 307.6642011  +6.4439475     3598.304     4629.467     4597.071      77.4249     154.9734     310.1013      1.270     2.52     834.9188     54.70393     561.4142        18     1.097     0.796  73.99   0
       308    932.6857    580.4180 307.5326150  +6.4561112     1287.698     1768.691     2482.957      77.4249     154.9734     310.2865      1.545     2.74      834.743     54.70393     192.5585        12     0.930     0.795 -79.41   0
       309    227.8902    578.0247 307.8254299  +6.4336437     1510.943     2083.586     2377.087     77.91806     155.0352     310.1939      1.447     2.80     832.1772     54.70393      251.272        12     1.021     0.685 -82.66   0
       310    191.8590    579.1183 307.8403580  +6.4319886     756.0562     975.6656     1225.629     77.91806     155.2821     310.3483      1.316     2.50     832.2604     54.70393     132.0684         6     0.705     0.577 -44.86   0
       311    373.7872    578.1036 307.7648314  +6.4384803      1262.98     1418.488     1133.479     77.67188     154.9734     310.1322      1.217     2.71     832.4184     54.70393     231.1406         9     0.874     0.662  34.93   0
       312    357.9840    577.8440 307.7714037  +6.4380604     693.4188     557.4565     599.9542     77.30112      155.097     310.1631      1.147     3.67     832.2787     54.70393     133.1909         5     0.825     0.470  71.22   0
       313    867.6576    569.5315 307.5599877  +6.4584490     3289.082     4132.228     3493.741     77.91806     155.1587     310.2865      1.303     2.47     835.9995     54.70393     502.5627        20     1.004     0.950  64.74   0
       314    162.5547    569.5583 307.8528494  +6.4349565     829.3058     1011.043     614.5099     77.67188     155.2204     310.1939      1.315     4.28     832.0836     54.70393     140.1294         9     1.068     0.714  69.60   0
       315    826.4250    567.0117 307.5771981  +6.4581209     2975.616     3831.631     4180.321      77.4249     155.0352     310.2865      1.348     2.56     836.0219     54.70393     480.5165        18     1.035     0.918  61.35   0
       316    806.9731    558.1392 307.5855733  +6.4611385     189745.7     242020.6     250353.7      77.4249     155.2821     310.2557      1.332     2.40     835.8637     54.70393     34053.47       104     1.294     1.142  69.10   0
       317    797.3912    562.9081 307.5893944  +6.4588513     2850.536     3830.625     4834.348      77.4249     154.9116     310.1631      1.393     2.44     835.9149     54.70393     504.6141        20     1.020     1.009  88.39   0
       318    254.3473    562.1135 307.8149745  +6.4410967     9485.005     12206.96     12114.34     77.79507      155.097     310.4716      1.320     2.55     831.8162     54.70393     1502.289        29     1.122     1.024  51.09   0
       319    740.0278    563.3702 307.6132056  +6.4567550     840.7056     1037.713     1628.787     77.30112     154.9734     310.1322      1.403     3.91     835.3924     54.70393     129.8096         8     1.014     0.567  21.08   0
       320    188.5614    556.7094 307.8424788  +6.4411306     71167.21     91383.53     94669.62     77.79507     155.1587     310.3791      1.330     2.51      831.659     54.70393     10907.41        57     1.214     1.106  67.38   0
       321    736.3548    558.4340 307.6148958  +6.4586712     690.6646     965.8638     1292.158      77.4249     155.1587     310.2248      1.547     4.74     835.1995     54.70393     122.7706         7     1.082     0.650 -33.31   0
       322    112.4789    552.9938 307.8742029  +6.4401217     7524.753     9935.616     9711.431      77.4249     154.7261     310.1322      1.354     2.56      831.819     54.70393     1131.493        26     1.117     1.014 -84.32   0
       323    978.1911    549.9409 307.5147274  +6.4702038      1615.35     2178.444     2135.872     77.17714      155.097     310.0704      1.422     3.55     832.3118     54.70393     224.8041        14     1.130     0.823  50.19   0
       324    998.3613    548.6472 307.5063923  +6.4714065     861.7154     1292.762     806.7764     77.67188     155.2204     310.1939      1.576     5.16     831.7228     54.70393      113.563        10     1.110     0.845  41.34   0
       325    227.0078    548.3219 307.8267918  +6.4458780     926.3063     1159.833     1431.839      77.4249     154.7261     310.1322      1.263     3.58     831.2784     54.70393     141.8425         9     1.067     0.562  64.26   0
       326    361.9592    543.7795 307.7708928  +6.4522578     20836.51     26531.72     27541.62      77.4249     155.0352     310.1631      1.307     2.39     831.1862     54.70393     3950.382        39     1.151     1.029  75.99   0
       327    843.4146    545.3537 307.5708627  +6.4676275     5136.445     6630.851     7074.655     77.17715     155.0352     310.1322      1.299     2.46     835.6353     54.70393      765.821        20     1.077     0.887  55.94   0
       328    452.1898    544.1448 307.7334032  +6.4551152     1024.536     1031.408      1418.15     77.17714     155.1587     310.0396      1.190     2.74     832.3536     54.70393     227.4501        10     1.016     0.623  73.10   0
       329    163.7551    542.7534 307.8532497  +6.4460639      2330.21     2765.854     3236.814     77.79507     155.1587     310.3483      1.235     2.50     831.3937     54.70393     415.1693        12     0.896     0.774  65.68   0
       330    797.5564    538.7908 307.5901295  +6.4688148     6816.617     8833.531     9296.729     77.30112     155.0352     310.1013      1.310     2.43     835.2653     54.70393     1063.006        25     1.099     0.942  66.96   0
       331    238.8726    540.3729 307.8221303  +6.4495563     1033.039     981.3937     903.8461     77.54848     155.1587     310.2557      1.166     2.38     831.0628     54.70393      230.948         9     0.891     0.626  70.04   0
       332    528.3461    538.5714 307.7019575  +6.4599533     7941.442     9836.529     10244.14     77.54848     155.2821     310.2557      1.277     2.55      832.875     54.70393     1238.437        24     1.088     0.924  80.24   0
       333    169.4181    539.9174 307.8509927  +6.4474241     752.7808     902.2183     1239.917      77.4249     154.9116     310.3174      1.032     2.53     831.3098     54.70393     141.5461         6     0.755     0.492  86.29   0
       334    101.1842    539.9319 307.8793322  +6.4451369     1104.646     1444.436     1415.994     77.30112     155.1587     310.2557      1.383     3.16     831.6154     54.70393     188.5927        11     1.010     0.770  66.43   0
       335    386.3574    535.1828 307.7610467  +6.4566209     1598.556     2081.104     2538.189     77.30112     155.0352     310.1013      1.235     2.54     831.0814     54.70393     275.3201        12     0.950     0.737  67.40   0
       336    856.4711    531.7236 307.5658933  +6.4736886     728.4646     1103.008     1259.231     78.04086      155.467     310.3483      1.757     4.63     834.8862     54.70393     115.7622         9     1.104     0.713  61.58   0
       337    175.2847    531.8867 307.8488254  +6.4509358     8192.116     10498.77     10571.84     77.54848     155.4054       310.41      1.329     2.54     831.1027     54.70393     1363.534        26     1.054     1.016  61.87   0
       338     46.9716    530.6971 307.9021584  +6.4471363      6111.55     8420.877     8262.083     77.91806     154.9734     310.3483      1.427     2.65     832.2343     54.70393     1023.969        28     1.221     1.002  68.46   0
       339    814.0641    530.9912 307.5835325  +6.4725833     1593.465     1900.537     1913.282     77.30112     155.0352     310.2248      1.284     2.82     834.8472     54.70393     282.9875        11     0.981     0.688  85.16   0
       340    573.1107    531.6152 307.6835964  +6.4643157     2746.797     3994.654      4001.26     77.54848     155.0352     310.1939      1.506     3.19     832.8666     54.70393      381.707        19     1.195     0.925  -5.07   0
       341    270.5212    528.2883 307.8093901  +6.4556026     107017.6       135454     139806.5     77.54848      155.467     310.4716      1.302     2.43     830.6575     54.70393     15825.96        83     1.259     1.127  62.21   0
       342    560.1439    525.7891 307.6891769  +6.4662896     1181.443     1275.596     1286.801     77.17714     155.1587     310.0396      1.258     2.96     832.5384     54.70393     219.8846        10     0.979     0.669  54.79   0
       343    254.1924    523.2427 307.8163413  +6.4571406     1678.205     2054.615     2496.744     77.30112     155.0352     310.0704      1.290     2.64     830.4249     54.70393     287.5283        12     1.020     0.670  79.75   0
       344    793.7013    520.5284 307.5923394  +6.4762272     19582.41     24416.99     25007.48     77.54848     155.4054     310.3483      1.276     2.48     834.2384     54.70393     3235.075        35     1.186     0.982  56.13   0
       345    497.3192    519.0272 307.7154981  +6.4669895     49016.59     67586.57     70883.52     77.67188     155.0352     310.3791      1.441     2.87     832.1501     54.70393     7843.214        63     1.389     1.182  22.81   0
       346    647.8240    517.4968 307.6530343  +6.4726309     1325.043     1717.937     1770.428     77.91806     154.9734     310.2248      1.408     3.12     832.8566     54.70393     194.9161        11     1.007     0.715  48.58   0
       347    970.0087    521.7496 307.5190641  +6.4815728     1776.065     2505.011     2828.482     77.30112      155.097     310.0396      1.540     3.10     831.9034     54.70393     303.1838        15     1.102     0.872  84.59   0
       348    209.7981    515.4790 307.8350406  +6.4588634     2239.976     3262.129     3293.024     77.17715     154.7261     310.1322      1.495     2.82     830.3128     54.70393      353.884        19     1.098     0.963 -45.15   0
       349     95.5747    515.5507 307.8824802  +6.4550158      759.304      969.647     1138.622      77.4249     155.2821     310.2557      1.439     3.94     831.2236     54.70393     112.8838         9     0.925     0.785 -72.82   0
       350     45.2382    515.5825 307.9033858  +6.4533188     1429.126     1589.243      1427.67      77.4249      155.097     310.1013      1.316     3.29      832.038     54.70393     209.2142        10     0.911     0.798 -79.55   0
       351    657.2858    514.0240 307.6492200  +6.4743794     3641.426     4552.432     5317.554     77.79507     154.9734     310.2248      1.317     2.44     832.8216     54.70393     634.2413        17     1.000     0.836  74.49   0
       352    719.4026    512.9261 307.6234548  +6.4768978     1456.253     1755.687     2174.827     77.30112     154.7261     310.2248      1.300     2.99     833.2824     54.70393     234.6375        11     0.999     0.669  60.29   0
       353    667.4117    513.8078 307.6450212  +6.4748054      1608.81     1842.321     1831.901      77.4249     155.0352     310.2557      1.154     2.47      832.874     54.70393     288.1467        11     0.908     0.708  52.63   0
       354     76.4044    511.9880 307.8905620  +6.4558456     769.0878     1183.957     1928.102      77.4249     154.9116     310.2248      1.375     2.34     831.4763     54.70393     169.5184         5     0.773     0.471 -37.43   0
       355    394.9582    509.7692 307.7583246  +6.4674007     2172.782     2622.952     2334.362     77.30112     155.1587     310.1939      1.237     2.28     830.6085     54.70393     431.8318        14     0.885     0.865   5.12   0
       356    326.4569    507.9486 307.7868382  +6.4658674     4858.233     5914.562     5921.567     77.79507     155.2204     310.3483      1.259     2.49      829.624     54.70393     765.0013        19     1.000     0.897  70.68   0
       357    141.6274    506.6996 307.8636495  +6.4602101     31710.31     40170.26     41627.91     77.79507     154.9734     310.2557      1.310     2.46     830.8423     54.70393     5077.554        42     1.153     1.045  63.15   0
       358    506.4743    507.3369 307.7120861  +6.4721213     2702.357     3328.564     3631.985     78.04086     155.2204     310.3174      1.253     2.35     831.7151     54.70393     445.5562        15     1.005     0.769  63.75   0
       359    869.7020    506.5035 307.5612373  +6.4845410     1843.464     2585.341     2360.294     77.79507     155.7747     310.1939      1.406     2.81     833.3489     54.70393     303.4039        16     1.074     0.887   8.84   0
       360    106.5991    504.8660 307.8782598  +6.4597960     3247.175     4315.421     4439.122     77.05296     154.8498     310.1013      1.369     2.58     830.9669     54.70393     545.3347        19     1.135     0.902  88.45   0
       361    343.4845    503.1553 307.7799262  +6.4684147     1220.276     1537.974     1696.766     77.79507     155.1587     310.3483      1.249     2.51     829.3637     54.70393     218.7565         7     0.768     0.591 -77.99   0
       362    967.2059    500.9930 307.5209188  +6.4900503     5983.177     8019.485     8292.815     77.17715     155.0352     310.1939      1.384     2.74      831.535     54.70393     972.1556        23     1.118     0.979  61.73   0
       363    540.3776    493.8037 307.6984559  +6.4788380     1756.399     2087.875     2114.751      77.4249     154.9116     310.1631      1.160     2.23     831.2439     54.70393     311.7517        11     0.859     0.742 -41.34   0
       364      5.8806    491.1014 307.9205547  +6.4621092      29880.8     39053.59     40412.86     77.67188     155.5901     293.4089      1.359     2.49     832.3314     54.70393     5042.343        49     1.225     1.105  57.89  16
       365    438.6501    487.7173 307.7409142  +6.4779622     52307.41     65205.95     66838.52     77.79507     155.2204     310.3791      1.267     2.39     830.9134     54.70393     9098.345        50     1.159     1.034  65.04   0
       366    646.6570    487.3326 307.6545258  +6.4850467     14856.99      18455.6     18621.65     77.91806     155.1587     310.3174      1.246     2.39     832.0249     54.70393     2452.039        30     1.079     0.963  60.82   0
       367    980.6666    485.8820 307.5158300  +6.4967358     1318.354     1786.097     1604.584     78.04086      155.467       310.41      1.438     4.42     831.0507     54.70393     193.8945        13     1.225     0.842  87.30   0
       368    286.4639    487.8275 307.8041236  +6.4728404     1190.255     1256.577      759.696      77.4249     155.2204     310.2557      1.115     2.41     828.7501     54.70393     228.0087        10     0.814     0.766 -89.11   0
       369    203.7948    485.3811 307.8385430  +6.4710897     22870.98     30753.83     31479.98      77.4249     154.8498     310.1631      1.396     2.74      829.504     54.70393     3728.283        37     1.289     0.998  48.36   0
       370   1012.7394    486.3849 307.5024904  +6.4975911     559.8242     593.6945     776.8357     77.30112     155.1587     310.1013      1.357     3.47     830.6505     54.70393     88.78546         5     0.753     0.462 -14.94   0
       371    909.2198    484.9956 307.5455382  +6.4947327      804.064     1200.726     1057.123      77.4249     154.9116     310.1631      1.547     2.70      831.824     54.70393     163.7554         7     0.851     0.563  63.71   0
       372    820.9703    485.1238 307.5821921  +6.4917511     1071.113     1412.376     1347.215     77.67188     155.2821     310.3791      1.321     2.66     832.2446     54.70393     208.1859         9     0.886     0.674  22.64   0
       373    568.3298    484.0922 307.6871696  +6.4837784     3540.646     4642.008     4797.088     77.79507     155.3438     310.3483      1.309     2.52     831.1219     54.70393     581.8268        16     1.016     0.793  67.54   0
       374    942.4122    481.1061 307.5318797  +6.4974395     5312.024     7017.075     7318.835     77.54848     154.9734     310.1631      1.360     2.68     831.4041     54.70393     836.1184        22     1.115     0.914  71.39   0
       375    615.4321    479.6860 307.6677513  +6.4871652     8104.514     9887.207     10084.97     77.79507     155.0352     310.3174      1.238     2.40     831.4445     54.70393     1274.037        25     1.082     0.899  67.18   0
       376    103.1336    480.5261 307.8805160  +6.4697295     1396.956     1944.768     2077.767     77.91806     155.2821     310.3174      1.461     2.82     830.5591     54.70393     230.4103        13     0.966     0.827  78.23   0
       377    169.3369    486.4394 307.8528198  +6.4695013      1858.92     2250.641     2257.662     77.79507     155.1587     310.3791      1.242     2.86     830.2182     54.70393     292.2258        14     1.014     0.838 -54.71   0
       378    965.0320    473.3677 307.5227410  +6.5013847     3957.639     5200.128     5503.994     77.30112     154.9734     310.0396      1.395     2.77     831.0064     54.70393     630.3413        21     1.031     1.008 -81.88   0
       379    527.6801    470.9816 307.7044927  +6.4878383     8997.433     11101.69     11779.17      77.4249     154.9116     310.2557      1.243     2.24     830.1428     54.70393      1654.44        25     1.052     0.928  58.99   0
       380    403.5268    472.2374 307.7560213  +6.4831828      965.071      1176.94     1499.477     77.67188     155.2204       310.41      1.205     2.51     829.8086     54.70393     175.5767         8     0.761     0.730  42.79   0
       381    373.6273    471.2926 307.7684724  +6.4825758     3217.773      3777.81     3225.085     77.91806     154.9734     310.2248      1.239     2.60     828.8113     54.70393     498.0754        15     0.968     0.819  52.18   0
       382    743.5403    471.0315 307.6148255  +6.4949980      603.475      694.946      466.207     77.54848     155.2821     310.3174      1.354     4.28     831.7253     54.70393     94.71112         5     0.793     0.660  -5.09   0
       383     96.7364    470.7735 307.8835004  +6.4735422     660.3051     777.5248     1132.104      77.4249     155.2204     310.2865      1.240     3.59     830.5402     54.70393     134.5155         7     1.008     0.525 -65.36   0
       384    884.1818    466.7600 307.5565460  +6.5014315     3623.274     4539.246     4919.733      77.4249     155.0352     310.1013      1.313     2.52     831.4022     54.70393     628.8014        18     1.038     0.907  45.96   0
       385    536.8887    467.9115 307.7007702  +6.4894125     787.1042     1105.577     1947.453     77.54848     155.7132     310.4408      1.297     2.77     829.9485     54.70393     146.1887         7     0.845     0.533  45.04   0
       386    232.3973    466.4891 307.8272959  +6.4798453     848.2479     1184.486     1119.198     77.17715     154.9116     310.0704      1.615     3.00     828.5764     54.70393     143.9303         6     0.831     0.488  86.75   0
       387    891.5287    461.1378 307.5536813  +6.5039967     2622.769     3379.668     3578.988     77.91806     155.2204       310.41      1.307     2.56     831.1919     54.70393     410.2742        16     1.047     0.791  68.64   0
       388    930.9072    460.3598 307.5373493  +6.5056241     1394.492     1652.096     1537.665     77.91806     155.1587     310.4408      1.348     2.91     831.0027     54.70393      232.224         9     0.901     0.653  67.99   0
       389    110.6121    460.5475 307.8780802  +6.4782283     1003.559       1236.8     933.5699     77.17715     155.1587     310.0704      1.321     3.05     830.3558     54.70393     142.6567        10     0.900     0.763  44.95   0
       390    715.5154    457.0440 307.6269334  +6.4998421     3514.069     4530.357      4735.25     77.79507     155.1587     310.3174      1.291     2.44     831.0334     54.70393     600.6045        19     1.088     0.854  77.08   0
       391    610.0273    458.6023 307.6707004  +6.4956907     516.1461     683.4783      1444.91     77.30112     154.9734     310.1631      1.588     4.23     829.9357     54.70393     76.58954         5     0.793     0.645 -85.54   0
       392    269.3201    459.0121 307.8122099  +6.4841654     751.9286     926.4546     784.5012      77.4249     154.9116     310.1939      1.226     4.14      827.774     54.70393     110.6661         7     0.778     0.629  84.43   0
       393    386.3719    455.5204 307.7637065  +6.4895130     4667.148     5841.582     6059.102     77.67188     155.1587     310.3483      1.257     2.44     828.5475     54.70393      707.936        23     1.108     0.913  74.88   0
       394     77.1271    456.3502 307.8921294  +6.4788413     2328.324     3050.663     3289.216     77.79507     155.2821     310.3791      1.361     2.54      830.756     54.70393     380.5275        14     0.910     0.864 -60.99   0
       395    426.7097    455.4746 307.7469524  +6.4908768     1342.669      1670.23     1778.202     77.79507      155.467       310.41      1.260     2.94     829.1912     54.70393     239.9869        11     1.027     0.637  79.39   0
       396    614.1136    451.8714 307.6692277  +6.4986058     12483.65     15157.83     15804.64     77.91806      155.467     310.3791      1.275     2.29     829.5015     54.70393     2386.942        27     1.044     0.925  66.61   0
       397    776.8397    448.4196 307.6017470  +6.5054407     19765.84     24668.75     25729.11      77.4249     155.0352     310.0704      1.268     2.33     830.9578     54.70393     3493.845        34     1.110     0.990  65.49   2
       398    780.7722    443.7788 307.6002681  +6.5074874     1549.349      2156.42     2364.435     77.17714     155.0352     310.3174      1.329     2.27     830.8243     54.70393     298.9407        10     0.877     0.652 -89.83   3
       399    296.5103    448.9476 307.8012530  +6.4892286      3255.11     4043.426     4084.406     77.79507     155.0352     310.4716      1.291     2.68     827.0607     54.70393     498.3257        16     0.998     0.812  72.79   0
       400    420.2280    448.1346 307.7498904  +6.4936914     792.4607     1019.307     746.6083      77.4249     155.2204     310.2865      1.337     3.59     828.7654     54.70393     141.4558         8     0.975     0.624  81.38   0
       401    805.9409    445.4251 307.5897581  +6.5076436     1526.487     1706.656     1763.821      77.4249     155.2204     310.1939      1.125     2.35     830.8531     54.70393     307.8125        10     0.867     0.665  84.97   0
       402    395.0434    445.6868 307.7604336  +6.4938623     648.8227     781.9415       877.47     77.79507      155.097     310.3483      1.271     4.00     828.2719     54.70393     105.0828         7     1.107     0.432  55.84   0
       403    379.4532    445.3775 307.7669198  +6.4934701     1933.186     2396.019     2417.661     77.30112     155.2204     310.1631      1.238     2.47     827.9628     54.70393     320.4826        13     0.955     0.773  49.01   0
       404    962.0343    443.1676 307.5249910  +6.5137549     2037.178     2602.884     2949.796      77.4249     154.9734     310.1013      1.349     2.61     830.4939     54.70393      368.666        16     1.058     0.834  43.74   0
       405    710.1793    442.0831 307.6296491  +6.5058420     697.7943     771.0143     710.3204     77.54848     154.9116     310.2865      1.159     2.83     830.2665     54.70393     138.6134         5     0.769     0.500 -37.53   0
       406    367.9385    441.3501 307.7718376  +6.4947489      845.457     849.6595     675.2649     77.79507     155.1587       310.41      1.210     3.36     827.6543     54.70393     162.8054         8     1.040     0.530  61.22   0
       407    114.2035    440.5722 307.8772588  +6.4865957     5388.241     6999.021     7509.584     77.30112     154.9734     310.1939      1.322     2.47     830.1459     54.70393     882.8851        22     1.079     0.926  47.10   0
       408    752.3373    439.2159 307.6122322  +6.5084269     2689.525      3284.98     3106.204     77.30112     155.1587     310.1939      1.265     2.45     830.6574     54.70393     439.2664        16     0.994     0.833  66.82   0
       409   1016.0829    437.9314 307.5027128  +6.5177083     4586.065     6840.008     6526.534     78.04086      155.467     310.3791      1.580     3.47     830.3185     54.70393     619.9947        27     1.338     1.041  44.73  16
       410    272.0501    437.4853 307.8117972  +6.4931447     1874.984      2355.44     2595.045     77.79507     155.1587     310.4408      1.288     2.34     826.9062     54.70393     346.9203        13     1.086     0.649  78.75   0
       411    350.2362    435.2189 307.7793961  +6.4966899     3879.683     4892.941     4911.125     77.30112     155.0352     310.1322      1.258     2.28     827.2592     54.70393     704.6937        19     1.074     0.876  82.17   0
       412    278.3079    435.6250 307.8092602  +6.4941217     618.9406     595.2068     1733.474     77.91806     154.9734     310.1939      1.206     4.31     826.7062     54.70393     101.7315         6     1.013     0.523 -32.89   0
       413    706.2397    432.9097 307.6315916  +6.5094987     1969.321     2204.721     2159.093     77.79507     155.1587     310.3791      1.196     2.51     829.7543     54.70393     338.2471        13     0.990     0.756  75.25   0
       414    409.6154    431.6350 307.7548508  +6.5001500       652.31     683.2932     442.7883      77.4249     154.9734     310.1939      1.077     2.82      827.731     54.70393     132.8081         5     0.714     0.457  72.20   0
       415    237.8960    430.9551 307.8262029  +6.4947003     1010.043     1239.675      1320.75     77.79507      155.097     310.5025      1.229     2.93     827.6771     54.70393       209.66         8     0.922     0.675  49.23   0
       416    448.9250    426.6072 307.7386901  +6.5035363     610.0745      584.137     49.81515      77.4249     154.7261     310.2248      1.091     2.87      827.488     54.70393     109.7042         6     0.736     0.611 -60.28   0
       417    547.5438    425.7060 307.6977545  +6.5071936     1245.856     1479.303      1703.33     77.67188     155.2204     310.5333      1.266     2.78     827.2828     54.70393     201.8624         9     0.890     0.662 -69.61   0
       418    696.2960    424.5583 307.6360009  +6.5126164     701.3237     965.6283     1033.875     77.79507     155.1587     310.4716      1.664     4.53     829.0969     54.70393     122.3232         7     0.910     0.641  67.95   0
       419    469.6625    423.9453 307.7301649  +6.5053264     1771.258     2161.324     2196.257     77.91806     155.1587     310.3174      1.243     2.41     827.3055     54.70393     336.3306        12     0.969     0.751  71.19   0
       420    832.2700    422.8789 307.5795721  +6.5178270     1801.701     2284.689     2064.372     78.04086      155.467     310.3174      1.277     2.58     830.1167     54.70393     307.5892        13     1.046     0.766 -83.84   0
       421    817.9741    421.9994 307.5855401  +6.5177155     2361.082     2972.586     2938.156      77.4249     154.9116     310.1631      1.303     2.52     830.0869     54.70393     415.6302        14     0.964     0.832  82.87   0
       422    715.2934    420.1008 307.6282579  +6.5150883     18167.14     22534.13     23134.67     77.79507     155.7132     310.2557      1.248     2.36     829.3818     54.70393     3284.044        32     1.096     0.949  65.97   0
       423    617.4602    422.0926 307.6688319  +6.5110125      887.243     1080.623     1323.894     77.67188     155.1587     310.4408      1.107     2.44     827.4749     54.70393     201.8428         5     0.720     0.442  66.15   0
       424    636.4744    416.2392 307.6611287  +6.5140619     3275.144     4095.681     4647.408     77.67188     155.2204       310.41      1.273     2.41     827.3709     54.70393     577.8607        15     0.958     0.869  25.89   0
       425    709.4511    414.9394 307.6308571  +6.5170253     693.0691     803.5141     1214.997     77.79507     155.1587     310.3483      1.073     3.67     828.9702     54.70393     124.9819         6     0.786     0.494  84.12   0
       426    611.5159    413.1160 307.6716009  +6.5145211     6692.669     8497.557     9028.241     77.54848     155.3438     310.4408      1.272     2.59     826.8845     54.70393     1067.247        18     1.101     0.780  75.19   3
       427    607.7283    410.6468 307.6732568  +6.5154146      18268.7     22693.38     23631.65     77.79507     155.2821     310.3483      1.251     2.33     826.7479     54.70393     3425.482        30     1.129     0.950  58.14   3
       428    940.5406    409.9442 307.5350255  +6.5267601     4365.218     5380.271     5231.492     77.91806     155.2204     310.3791      1.305     2.57     829.5724     54.70393     696.1064        17     1.036     0.832  71.97   0
       429    379.6924    406.0837 307.7681356  +6.5097019     35462.27     44605.24     45889.09     77.54848     155.5901     310.4716      1.298     2.34      826.267     54.70393     6289.947        45     1.140     1.026  68.36   0
       430    416.8313    407.5859 307.7526580  +6.5103201     731.7905     843.2598     315.8145      77.4249     154.9734     310.2865      1.169     3.02     826.3784     54.70393     148.0144         7     0.861     0.569  80.83   0
       431    896.1604    405.6515 307.5536048  +6.5270605     1739.823     2388.459     3386.812     77.67188     155.2821     310.3483      1.637     2.60      829.389     54.70393     333.8544        12     1.126     0.678  61.79   2
       432    125.5184    405.5930 307.8737327  +6.5014163     2785.111     3614.647     3535.888      77.4249     154.7879     310.1939      1.260     2.36     829.5099     54.70393     509.4561        15     1.046     0.798  43.38   0
       433    591.3137    401.7341 307.6803732  +6.5185483     696.1654     837.8008     886.4067     77.79507     155.4054       310.41      1.078     3.10     826.2769     54.70393     146.9023         5     0.732     0.452 -79.60   0
       434     59.0268    401.2451 307.9014977  +6.5009873     1731.697     2387.735     2123.646     77.30112     155.2821     310.2557      1.389     2.90     830.4565     54.70393     273.3475        14     1.020     0.804  49.34   0
       435    909.4297    400.2512 307.5482723  +6.5297305     6096.438     7712.972     4945.759     77.54848     155.3438     310.2557      1.282     2.52       829.09     54.70393     946.0924        23     1.096     0.937  65.81   0
       436    965.4606    398.3693 307.5250584  +6.5323657     647.2124     712.3129     567.9344     77.54848     155.2204     310.3174      1.062     3.39     828.7743     54.70393     117.4443         6     0.907     0.433  71.95   0
       437    237.1770    396.6905 307.8276500  +6.5088235     17435.56      21958.1     22093.02     77.79507     155.0352     310.2248      1.291     2.45     826.6006     54.70393     3056.375        35     1.124     1.002  73.19   0
       438     72.6016    390.9816 307.8962037  +6.5056790     958.5238     1256.483     1906.758      77.4249     154.7879     310.0704      1.241     2.51     830.1298     54.70393     199.9561         8     0.777     0.680 -53.28   0
       439    732.0608    390.2779 307.6222873  +6.5279593     892.3621     936.4196     977.6754     77.91806     155.2821     310.3174      1.106     2.01     828.3585     54.70393     183.2665         7     0.669     0.638 -76.35   0
       440    700.0691    389.4915 307.6356035  +6.5272206     865.0469     975.2101     932.0929     77.79507     155.3438     310.3483      1.180     2.96     827.5198     54.70393     165.5768         8     0.937     0.603  78.49   0
       441    960.4664    388.6716 307.5274558  +6.5362043     1089.612     1252.965     1454.775     77.79507     155.2821       310.41      1.212     2.94     828.2264     54.70393     162.5857         9     0.913     0.665  47.96   0
       442    350.0611    386.3112 307.7811063  +6.5168773     1534.425     1949.604      2298.49     77.79507     155.3438       310.41      1.340     2.63     825.1371     54.70393     297.9156        13     1.054     0.690  80.72   0
       443    182.9804    386.5801 307.8505017  +6.5111872     1020.054     1051.097     877.4423     77.54848     155.1587     310.2865      1.114     2.50     827.9301     54.70393     196.3604         8     0.803     0.638 -89.79   0
       444    137.4654    385.3582 307.8694491  +6.5101702     6286.798     7901.958      8031.16     77.79507     155.1587     310.4408      1.269     2.41      829.018     54.70393     969.1702        22     1.035     0.948  72.63   0
       445    377.7447    386.0591 307.7696149  +6.5179048     679.4412     765.6309     1086.811     77.91806     155.2204     310.3483      1.070     3.56     825.1531     54.70393     136.3607         7     0.769     0.627  83.30   0
       446    435.0193    384.3991 307.7458784  +6.5205000     983.3271     1305.088     1641.647      77.4249     154.7879     310.0704      1.436     3.17     825.1766     54.70393     188.9703        10     0.947     0.861  65.97   0
       447    335.3732    385.2925 307.7872418  +6.5168078      520.736       531.66     696.6727     77.91806     154.9734     310.1939      1.185     3.45     825.0108     54.70393     102.6961         5     0.739     0.467  77.14   0
       448    242.3512    384.2012 307.8259193  +6.5141529     1752.112     2074.064     1906.016     77.17715     154.8498      309.916      1.273     2.40     825.9615     54.70393     323.0132        14     0.974     0.805  77.99   0
       449    630.3791    383.8904 307.6647408  +6.5272157      635.437     649.8366     857.6098     77.67188     155.0352     310.2248      1.131     3.71     825.9379     54.70393     120.4899         6     0.978     0.404  72.43   0
       450    823.2641    381.8019 307.5846820  +6.5344886     815.1716     1004.322     1252.497     77.17715     154.9734     310.1322      1.227     3.02     828.2704     54.70393     130.5783         8     0.787     0.688  49.06   0
       451    159.5768    381.1707 307.8604047  +6.5126384     2979.312     4320.938     4505.446     77.30112      155.097     310.1939      1.528     3.68     828.6257     54.70393     445.6974        21     1.284     0.924 -84.99   0
       452    555.0449    379.9486 307.6961674  +6.5263361     1333.662     1732.218     2071.903     77.91806     155.1587     310.3791      1.332     2.63     825.1666     54.70393     210.3877        10     0.867     0.700  87.20   0
       453     22.8003    377.7849 307.9173333  +6.5094610     547.5759     769.6678     315.0079      77.4249     154.9116     310.1013      1.266     3.68     830.8848     54.70393     101.4971         5     0.979     0.397 -86.92   0
       454    382.9697    375.8610 307.7677858  +6.5222897     2563.406     3172.566     3199.416     77.54848     155.2204     310.3174      1.220     2.28     824.5961     54.70393     506.9399        14     1.048     0.725  63.34   0
       455    270.9417    376.5161 307.8143005  +6.5182808     1149.561     1489.459     1417.699     77.79507     155.2204       310.41      1.325     2.21     825.0159     54.70393     232.2384         8     0.767     0.656 -59.73   0
       456      1.9124    376.0499 307.9260680  +6.5094780     958.8105     1008.647     1001.512     74.13947     131.5809     242.7573      1.216     3.41      831.287     54.70393     139.9857         9     0.812     0.756 -36.49  24
       457    971.7628    374.6689 307.5232289  +6.5423605     1120.339     1508.244     1507.801     77.67188     155.2204     310.4408      1.326     3.18     827.1348     54.70393     168.4797        10     0.962     0.652 -85.87   0
       458    316.9962    373.7515 307.7952621  +6.5209596     711.4247     1129.797     1229.102     77.17714     154.9734     309.9778      1.793     4.02     824.5048     54.70393     135.0861         7     0.966     0.697  83.86   0
       459    590.2301    371.8969 307.6818199  +6.5308318     611.1569     775.3547     797.6213     77.91806     154.9734     310.3791      1.182     3.93     824.9822     54.70393     99.01788         6     0.778     0.569 -46.76   0
       460    436.7799    369.4626 307.7456467  +6.5267257     9221.583     11331.91     11805.34      77.4249     155.2204     310.2248      1.250     2.33     824.4243     54.70393     1594.262        25     1.080     0.923  78.67   0
       461     33.2835    370.3904 307.9132272  +6.5128649     3690.334     5401.643     5459.754      77.4249     154.9116     310.1939      1.546     2.68     830.6617     54.70393     676.0453        26     1.382     1.019 -55.70   0
       462    607.9662    370.3703 307.6745030  +6.5320523     547.2247      739.133     969.1494     77.30112     154.9734     310.1013      1.338     4.08     824.9761     54.70393      87.1521         5     1.051     0.452  65.45   0
       463    769.5684    368.3141 307.6074383  +6.5382743     2273.133     2848.044     3365.699     77.79507     155.0352     310.2865      1.225     2.47     827.4638     54.70393     385.0394        13     0.959     0.768  48.93   0
       464    777.4102    366.6599 307.6042357  +6.5392178     15704.54     19460.96     19902.88     77.17715      155.097     310.0704      1.227     2.36     827.4473     54.70393     2466.678        33     1.083     0.995  65.93   0
       465    536.2772    368.3906 307.7043500  +6.5304834     502.7502     732.6329     1084.596      77.4249     154.7879     310.1631      1.311     3.41     824.6471     54.70393     80.04675         5     0.749     0.450  18.41   0
       466    197.2309    368.5042 307.8451884  +6.5191266     672.7424     910.2275     818.3108     77.91806     154.9734       310.41      1.229     2.43     826.9537     54.70393     128.8754         5     0.707     0.444  24.72   0
       467    340.8896    365.2690 307.7856207  +6.5252593     1374.227     1938.027     1762.706     77.91806     155.4054     310.3483      1.417     2.61     824.0428     54.70393     234.9518         9     0.885     0.634  69.35   0
       468   1021.4014    361.6582 307.5030401  +6.5493777     4307.858      5724.66     5878.704     77.17715     150.0763     266.8475      1.382     2.60     825.1378     54.70393     686.4968        21     1.104     0.939 -87.91  24
       469    952.4697    358.1816 307.5317926  +6.5485284     626.3828     992.0462     1235.067      77.4249      155.097     310.2865      1.400     2.44     826.4351     54.70393     150.2908         5     0.728     0.447 -67.23   0
       470    186.0987    357.7188 307.8501743  +6.5232076     1101.938     1667.326     1759.022     77.67188     155.6517     310.4408      1.586     3.77      827.179     54.70393     193.1799        12     1.056     0.829  87.91   0
       471    484.9897    352.9870 307.7261707  +6.5351350     3823.107     4712.705     5094.431     77.54848     154.9734     310.2865      1.261     2.34     824.2287     54.70393     757.2552        19     1.062     0.850 -89.70   0
       472    457.2703    353.6545 307.7376635  +6.5339357      2847.53     3553.822     3110.228     77.67188     155.1587     310.3174      1.212     2.27     823.9432     54.70393     544.0291        15     0.933     0.824  54.72   0
       473    913.7711    352.8080 307.5480483  +6.5494637     881.9036     948.5805     680.5414      77.4249     155.0352     310.1631      1.214     2.42     826.7795     54.70393     170.8804         6     0.735     0.536  48.98   0
       474    842.7900    349.5705 307.5776444  +6.5484450     38913.79     51446.85     53063.57     77.30112     155.0352     310.1939      1.396     2.72     826.7598     54.70393     6543.719        54     1.321     1.061  79.80   0
       475    428.3800    347.8389 307.7498596  +6.5353738     467.6906     518.8644     852.2607      77.4249     155.0352     310.1013      1.209     5.03     823.3013     54.70393     78.85321         5     1.002     0.715 -15.57   0
       476    334.9984    345.4488 307.7887317  +6.5332461      1098.75     1170.894     1176.752     77.17714     154.8498     309.9469      1.234     2.75     823.3882     54.70393     173.1204         8     0.799     0.669  89.13   0
       477     60.2597    346.2229 307.9028332  +6.5237458     722.7557     949.2292     455.0175      77.4249     155.1587     310.2248      1.183     3.65     829.7178     54.70393     134.1224         6     0.787     0.518  41.10   0
       478    614.5344    341.9901 307.6727222  +6.5439888     3431.799     4336.438     4662.511     77.30112     155.0352     310.2248      1.249     2.43     823.7596     54.70393     637.6321        19     1.037     0.849 -89.70   0
       479     22.8398    342.8853 307.9184893  +6.5238714     1405.375     1661.337     1554.865     77.79507     155.1587     310.3174      1.222     2.66     830.3858     54.70393     223.8315         9     0.769     0.727  79.21   0
       480    146.4796    340.2532 307.8672180  +6.5290944      650.355     636.1246     90.10298     77.79507     155.2204     310.3791      1.213     4.40     828.2623     54.70393     100.8253         6     0.924     0.595  24.35   0
       481    699.2326    335.5878 307.6377495  +6.5494493      99103.8     121677.6     125102.5     77.30112     154.9734     310.2557      1.246     2.32     825.1053     54.70393     17709.12        65     1.192     1.037  64.33   0
       482    857.5006    337.0874 307.5719489  +6.5540875     1314.082     1725.734     1701.116     77.79507     155.6517     310.3791      1.299     2.54     826.1456     54.70393     253.0248         9     0.909     0.613  54.12   0
       483     78.5066    335.3889 307.8956173  +6.5288294     1606.536     1886.044     1815.177     77.54848     154.9116     310.1322      1.195     2.93     829.1015     54.70393     233.5856        14     1.029     0.817  27.79   0
       484    940.6545    332.4382 307.5375580  +6.5587660     947.6422     1125.372     1119.096     77.79507     155.2821     310.3483      1.217     3.84     825.3137     54.70393     148.5187         8     1.007     0.633  56.59   0
       485    561.6099    332.3839 307.6950295  +6.5461936     3500.195     4133.379     4247.459     77.54848     154.9734     310.2248      1.217     2.55     822.9448     54.70393     549.8139        14     0.927     0.828  71.81   0
       486    388.8335    332.8218 307.7667905  +6.5402556     679.0712      862.443     813.7016     77.30112     155.0352     310.1322      1.259     2.77     822.8182     54.70393     164.1562         5     0.848     0.430  45.41   0
       487     98.9102    331.3700 307.8872765  +6.5311713     7777.242     9628.734     10012.84     77.91806     154.9734     310.3174      1.297     2.43     828.7382     54.70393     1307.079        24     1.063     0.935  55.94   0
       488    760.0439    330.6222 307.6126519  +6.5535207     573.9244     618.1038     693.3273     77.30112      155.097     310.1631      0.986     3.06     825.5795     54.70393     130.4636         5     0.903     0.538 -76.13   0
       489    544.9708    328.5886 307.7020687  +6.5472066     8858.819     10921.91     10989.12     77.30112     155.0352     310.1939      1.239     2.29     822.7424     54.70393     1710.518        24     1.054     0.877  67.20   0
       490    273.8382    326.2979 307.8147801  +6.5391116     3363.953     4161.658     3893.519     77.79507      155.097     310.5642      1.256     2.33      823.949     54.70393      582.816        18     1.024     0.867  51.73   0
       491    407.8539    323.7729 307.7591919  +6.5446260     32101.23     40115.71     41477.28     77.54848     155.3438     310.2865      1.280     2.33     822.4727     54.70393     6138.418        44     1.148     1.023  67.63   0
       492    515.4885    322.5355 307.7145189  +6.5487240     1609.824     2060.088     1432.336     77.79507      155.467     310.3483      1.255     2.33     822.5444     54.70393     282.1676        13     0.947     0.788   5.79   0
       493    674.9014    321.9836 307.6483116  +6.5542574     590.5039     496.8921     552.0446     77.79507     154.9734     310.1631      0.979     3.67     824.1575     54.70393     116.0493         7     0.893     0.510  44.22   0
       494    387.8428    322.0018 307.7675642  +6.5446899     1509.894     2005.973     2403.352     77.17715     154.9116     310.0396      1.300     2.77     822.5518     54.70393     273.4373         9     0.837     0.706  20.25   0
       495    487.1626    319.2215 307.7263971  +6.5491487     1507.486     1909.103     2063.689      77.4249     154.9734     310.1013      1.271     2.40     822.4374     54.70393     297.2188        10     0.912     0.702  73.90   0
       496    802.6802    316.1391 307.5954218  +6.5609169     1098.685     1567.424     1243.596     77.91806     155.2204     310.3174      1.496     3.31     825.1535     54.70393      216.377         9     1.097     0.511  70.98   0
       497    384.7873    316.3524 307.7690227  +6.5469206     1060.157       1495.1     1847.894     77.17715      155.097     310.0704      1.497     3.77     822.4286     54.70393     167.5165        12     1.070     0.857  62.20   0
       498    638.5261    315.6537 307.6636347  +6.5556611     669.8759     817.0891     720.6454     77.67188     155.2204     310.3174      1.268     3.11      822.981     54.70393     129.5453         6     0.892     0.426  70.62   0
       499    496.9406    314.1787 307.7225036  +6.5515566     10773.26     13362.12     13785.31      77.4249     155.1587     310.1939      1.269     2.25     822.1402     54.70393     2029.278        26     1.033     0.946  67.15   0
       500    766.1144    312.8365 307.6107231  +6.5610659     3859.667     4905.008     5391.816     77.79507     155.1587     310.3483      1.288     2.22      824.749     54.70393     770.6793        19     1.019     0.839  60.40   0
       501    921.5110    312.4073 307.5461780  +6.5664017     997.8887     1397.276     1554.457     77.30112     154.9116     310.1013      1.411     2.68     824.4795     54.70393     180.9957         8     0.870     0.641  51.27   0
       502    713.9402    312.5836 307.6324070  +6.5594365      946.139     1201.417      840.049     77.30112     155.1587     310.1013      1.325     3.00     824.2514     54.70393     171.5441         8     0.915     0.628  67.65   0
       503    112.3069    311.7094 307.8823714  +6.5397368     547.7374      726.925     966.5647     77.79507     155.7132     310.3791      1.142     2.32     828.3255     54.70393     109.0659         5     0.713     0.441 -76.09   0
       504    323.4957    310.9472 307.7946657  +6.5471074     1312.709       1709.1     1321.175     77.67188     155.2204      310.595      1.265     3.15     823.0499     54.70393     224.2489        12     1.074     0.686  24.76   0
       505     81.9845    308.0215 307.8950914  +6.5402451      467.437     469.7508     483.8328     77.54848     154.9734     310.2865      1.200     3.73     828.5909     54.70393     78.19324         5     0.676     0.592  89.82   0
       506    258.5869    304.7298 307.8218386  +6.5475074     765.2012     1078.026     1156.805     77.30112     154.9734     310.2248      1.501     4.33     823.9333     54.70393     115.1204         7     0.951     0.561  33.95   0
       507    159.1010    304.7824 307.8631650  +6.5441615     1351.277     1695.973     1585.593     77.79507      155.097     310.1013      1.252     2.85     827.3961     54.70393     257.6088        10     0.963     0.668  55.56   0
       508    435.7545    304.2579 307.7482542  +6.5536137     700.2946      724.584     625.6393     77.79507     155.2204     310.4408      1.295     3.32     821.7576     54.70393     106.7654         5     0.917     0.354  45.22   0
       509    605.6040    302.9066 307.6777375  +6.5598288     403.3423      603.874     762.6448      77.4249     154.9116     310.0704      1.253     3.40     821.4634     54.70393     85.59064         5     0.755     0.442  69.96   0
       510    386.8202    298.3719 307.7687800  +6.5544122     9226.693     11576.19     12073.78      77.4249     155.0352     310.2865      1.272     2.33      821.973     54.70393     1594.498        26     1.065     0.941  69.58   0
       511    242.6916    298.9237 307.8286365  +6.5493737     2642.674     3453.684     3359.542     77.67188      155.467     310.3483      1.298     2.52      824.096     54.70393     453.8315        16     1.022     0.839  68.27   0
       512    675.0771    298.8375 307.6490112  +6.5638200      541.686      802.657     621.3388     77.67188     155.2821     310.3483      1.571     2.77     823.1844     54.70393     115.9338         5     0.762     0.499  61.12   0
       513    754.7148    294.1163 307.6160833  +6.5684166     66305.09     82043.23        84167     77.54848     155.3438     310.4408      1.239     2.32      823.739     54.70393     12208.64        57     1.176     1.016  67.26   0
       514    740.4974    298.0513 307.6218587  +6.5663194     1236.998     1384.604     1518.465     77.67188     155.2204     310.5642      1.222     2.57      823.814     54.70393     214.0126         9     0.852     0.651  28.98   0
       515    426.3575    293.7333 307.7525101  +6.5576459     3104.031     3842.367     4147.755     77.79507     155.1587       310.41      1.223     2.38     821.4363     54.70393     541.6714        16     0.979     0.859  56.92   0
       516    585.8397    293.4527 307.6862643  +6.5630745     531.0551     791.5684     757.1959     77.67188     155.2204     310.3174      1.645     5.48     820.9042     54.70393     104.5385         7     1.397     0.607 -87.72   0
       517    989.5129    291.0571 307.5186367  +6.5774720     1919.073     2511.089     2453.898     77.79507     155.2204     310.4716      1.304     2.89     822.7941     54.70393     309.6464        16     1.120     0.767  61.68   0
       518    572.4561    291.0486 307.6919048  +6.5636216     1493.698     1730.888     1644.703     77.79507     155.2204     310.4408      1.157     2.49     820.7943     54.70393     263.0187         9     0.840     0.682  80.16   0
       519    930.5486    290.1997 307.5431626  +6.5758709     2652.531     3605.051     3744.774     77.05296     154.7261      309.916      1.354     2.71     823.1602     54.70393     398.8409        18     1.051     0.954  48.23   0
       520    463.4814    289.8998 307.7372158  +6.5604661     1424.195     1614.117     1626.566     77.79507     155.7132     310.4408      1.272     2.59     821.0546     54.70393      256.488        12     0.945     0.747  44.16   0
       521    412.9016    289.3351 307.7582474  +6.5590132      2460.48     2871.655     3378.872     77.79507     155.2821     310.3791      1.183     2.18     821.3854     54.70393     475.8743        14     0.986     0.742  42.35   0
       522    292.5229    288.7579 307.8082759  +6.5552350     866.0988      981.699     733.1147     77.67188     155.2204     310.3791      1.168     2.96     823.2475     54.70393     149.1575         8     0.782     0.763  17.29   0
       523    834.2895    283.6135 307.5833737  +6.5753961     1540.292     1904.654     2014.498     77.54848     154.9734     310.2248      1.386     3.20     823.6591     54.70393     241.9156        15     1.179     0.787  63.73   0
       524    463.2082    284.3521 307.7375148  +6.5627476     964.9003      1054.02     1143.756     77.30112      155.097     310.0087      1.105     2.29     820.8795     54.70393     170.0618         9     0.848     0.627 -69.08   0
       525    189.3022    280.8181 307.8514228  +6.5550653     3000.842     4074.556     4540.044     77.67188      155.097     310.1013      1.382     2.62     825.7299     54.70393     486.3018        18     1.090     0.868  65.08   0
       526    443.5277    280.7348 307.7458119  +6.5635852     1470.272     1754.743     1740.754     77.79507     155.2204     310.3791      1.207     3.12     820.9885     54.70393     246.0995        11     0.932     0.827  21.63   0
       527    753.1273    278.7317 307.6172560  +6.5747161      7504.88     9196.225     9264.389     77.91806     155.3438     310.3483      1.235     2.27     823.1187     54.70393     1431.269        22     1.007     0.899  76.37   0
       528    343.5230    278.3990 307.7874358  +6.5612143     871.9543     1310.638      706.033     77.05296     154.6642     310.1322      1.408     3.45     822.2658     54.70393     150.5866        10     1.088     0.628  38.16   0
       529    224.8010    278.8907 307.8367403  +6.5570473     800.4697     1053.992     1065.813     77.05296     154.7261     310.1322      1.143     2.26     824.2819     54.70393     163.8073         6     0.707     0.551  56.69   0
       530     85.6995    278.2185 307.8945488  +6.5526743     1404.802     1650.195     1466.808     77.79507      155.097     310.1322      1.210     2.55     828.0779     54.70393     225.3956         9     0.830     0.687  83.87   0
       531    769.5697    276.5290 307.6104983  +6.5761718     3302.286      4031.53     3882.153     77.67188     155.2204     310.3174      1.194     2.43     823.1618     54.70393      526.248        15     0.974     0.793  59.78   0
       532    471.8685    275.9789 307.7341970  +6.5664934      663.567      753.064     870.6541      77.4249     155.1587     310.2557      1.162     3.17     820.5698     54.70393     135.6187         6     0.913     0.441  52.89   0
       533    311.6462    273.1729 307.8008537  +6.5623082     533.8967     504.6243     533.1232      77.4249     155.2821     310.2557      1.224     3.44     822.9314     54.70393     78.50085         5     0.774     0.441 -73.20   0
       534     72.7490    272.0612 307.9001354  +6.5547832     1605.844     2196.954      2809.25     77.79507     155.1587     310.3483      1.424     2.86     827.9212     54.70393     268.7567        14     1.005     0.861 -87.19   0
       535    358.8822    271.4785 307.7812868  +6.5645841     2117.938     3586.683     3699.032     77.91806      155.467     310.4716      1.770     4.37     821.9029     54.70393     348.7438        21     1.566     0.889  -4.13   0
       536   1007.7642    267.4528 307.5118393  +6.5878230     6915.101     8873.114     8871.264     77.67188     155.2204     310.3791      1.349     2.64     821.8323     54.70393     998.9369        25     1.133     0.955  67.38   0
       537    647.2359    268.3924 307.6615942  +6.5754646      610.278     679.1837     144.2548     77.17715     155.0352     310.1013      1.247     4.31     821.3715     54.70393     85.00085         7     0.972     0.545  60.42   0
       538    485.7401    267.5574 307.7287158  +6.5704327     2751.938     3424.499     2752.199     77.79507     155.2204     310.4408      1.268     2.55     820.2196     54.70393     500.2527        14     1.003     0.768  83.61   0
       539    248.2992    263.2153 307.8275039  +6.5643043     7302.534     9232.358     9751.886     77.79507     154.9734     310.0704      1.281     2.46     824.0679     54.70393     1202.168        25     1.092     0.933  60.12   0
       540    916.2783    262.3320 307.5500193  +6.5869041     717.4998     903.0079     1238.269     77.91806     155.3438     310.3483      1.259     3.37      822.098     54.70393     137.5581         6     0.891     0.448  88.31   0
       541    812.7827    261.5747 307.5930435  +6.5837817     651.5588     791.7686     659.3474     77.54848     155.0352     310.2865      1.215     3.49     822.7229     54.70393     114.4693         7     0.918     0.548  57.75   0
       542    768.0825    256.4685 307.6117852  +6.5844053     981.0204     1288.105     1487.861     78.04086      155.467     310.3791      1.265     2.56     822.3521     54.70393     182.7675        11     0.974     0.694 -51.87   0
       543    120.4077    257.1073 307.8808389  +6.5625516      580.716     776.2062       1102.9      77.4249     154.9116     310.1631      1.536     3.46     827.2141     54.70393     94.68207         5     0.797     0.433  69.71   0
       544    225.2548    255.8295 307.8373250  +6.5665839     917.6758     1063.566     926.0964     77.54848     155.2821     310.2557      1.363     3.42     824.4053     54.70393     159.7865        10     1.008     0.697  52.45   0
       545    382.6216    253.9206 307.7720123  +6.5726254     2046.025     2729.228     2488.153      77.4249     154.9116     310.3483      1.306     2.40     821.3914     54.70393     363.1063        14     0.967     0.774  65.33   0
       546    969.5032    252.4012 307.5282365  +6.5927696     1192.337     1670.841     1895.303     77.30112     154.9116     310.0087      1.451     3.19     821.4127     54.70393     213.6291        10     1.087     0.691  68.92   0
       547    304.8669    249.9356 307.8044486  +6.5716761     1574.864     2064.539     1598.839     77.79507     155.2204     310.3791      1.345     3.65     823.1525     54.70393     262.9882        14     1.224     0.732  52.71   0
       548    152.0749    249.7686 307.8679297  +6.5666405     2324.602     2785.913     2938.978     77.67188     155.2821     310.3174      1.269     2.68     826.4072     54.70393     417.8348        14     0.959     0.811  73.55   0
       549    905.7614    244.5202 307.5549820  +6.5939096     1985.304     2700.311     3151.209     77.67188     155.2821     310.3174      1.319     2.46     821.4625     54.70393     332.3916        15     1.037     0.801  65.56   0
       550    561.9125    245.3828 307.6978110  +6.5821254     2826.727     3582.573     3467.259     77.54848     154.9734     310.2248      1.259     2.32      820.018     54.70393     503.3715        15     0.985     0.793  51.64   0
       551    725.5498    242.8681 307.6299097  +6.5886074      6601.68     7921.868     8216.559     77.67188      155.097     310.3483      1.218     2.40     821.6751     54.70393     1132.586        21     1.015     0.871  74.24   0
       552    666.3638    242.8079 307.6545015  +6.5866644     2615.643     3128.291     3671.244     77.17715     155.0352     310.1013      1.183     2.53      821.029     54.70393     442.1046        15     1.007     0.789 -84.59   0
       553    963.6582    242.5983 307.5309912  +6.5966233     835.0927     1076.258     770.6035     77.17715     154.9116     310.0704      1.419     3.59     821.0742     54.70393     126.4907         7     0.918     0.529  61.56   0
       554    286.5793    239.2252 307.8124049  +6.5754877     478.9878     421.4532     411.3973      77.4249     155.0352     310.2865      1.035     3.35     823.7585     54.70393     80.73242         5     0.731     0.457 -70.82   0
       555    381.1583    237.2671 307.7731778  +6.5794525     901.7632     1100.753     1079.786     77.79507     155.1587       310.41      1.351     3.46     821.2088     54.70393     143.1387         9     0.953     0.707  85.77   0
       556    921.3246    234.9804 307.5488335  +6.5983648     1338.904     1635.338     1682.861      77.4249     155.0352     310.2865      1.253     2.82     820.8743     54.70393     221.3014        10     1.004     0.630  72.03   0
       557    225.0518    228.4010 307.8383290  +6.5779017     2836.047      3366.89      3577.01     77.17714     154.8498      309.916      1.256     2.42     824.5555     54.70393     500.8497        15     0.926     0.858 -89.98   0
       558    867.7927    227.0625 307.5713386  +6.5998579      2063.09     2372.185     2949.018     77.17714     155.0352     310.1631      1.233     2.31     821.0428     54.70393     388.0466        13     0.994     0.703 -89.09   0
       559    758.2534    226.4806 307.6168690  +6.5964605     2131.145     2705.249     2485.429     77.79507     155.2204       310.41      1.291     2.51     821.2134     54.70393     359.7278        14     0.920     0.862  59.75   0
       560    246.8273    221.7962 307.8295039  +6.5813562     684.0673      1042.26     995.1257     77.30112     155.0352     310.1939      1.415     5.22     824.3254     54.70393     93.97864        10     1.206     0.639 -46.63   0
       561    458.9338    218.0863 307.7415074  +6.5899653     28829.13      35848.3     36203.07     77.79507     155.4054       310.41      1.299     2.30     819.2889     54.70393      5395.93        41     1.137     1.004  66.31   0
       562    320.0195    219.5556 307.7991712  +6.5847252      886.804     1079.789     872.2997     77.30112      155.097     310.1939      1.282     3.63     822.6445     54.70393     136.6466        10     1.005     0.673  69.47   0
       563    784.9891    217.0993 307.6060738  +6.6012222     16078.04     20545.73     21811.69     77.54848     154.8498     310.1322      1.322     2.34     820.8729     54.70393     3046.156        41     1.245     1.110  17.50   0
       564    723.6232    213.0810 307.6317040  +6.6008421     919.4664     1252.671     1385.676      77.4249     154.9116     310.2865      1.445     3.61     820.6237     54.70393     157.2411         7     0.949     0.469  81.48   0
       565    464.6436    212.6632 307.7393166  +6.5923947     1893.515     2365.984      2686.45     77.79507     155.1587       310.41      1.277     2.54     818.9783     54.70393     332.0842        13     0.955     0.754  62.08   0
       566    147.1951    211.5177 307.8712405  +6.5822702     2962.968     3897.593     3822.828     77.30112     154.8498     310.1013      1.338     2.52     825.7935     54.70393     498.6518        18     1.063     0.912  37.70   0
       567    121.8721    210.5907 307.8817920  +6.5818061     1274.499     1513.911     1170.381     77.30112     154.8498     310.1939      1.185     2.87     826.3561     54.70393      274.081        11     0.923     0.832  32.75   0
       568    173.5870    209.7742 307.8603346  +6.5838724     867.9544     1033.536     659.6501     77.54848     155.0352     310.2865      1.244     2.27     825.2611     54.70393      171.125         8     0.804     0.638 -39.65   0
       569    921.3385    207.4124 307.5497457  +6.6097479     1764.494     2293.812     2273.244     77.30112     155.0352     310.0704      1.295     2.71     819.9147     54.70393     265.3391        14     1.020     0.784  72.62   0
       570    619.4667    206.2154 307.6752078  +6.6002129     483.0913     538.2216     656.1686     77.30112      155.097     310.2557      0.981     2.61     819.2097     54.70393     95.39661         5     0.714     0.447  66.61   0
       571    582.9747    203.8215 307.6904492  +6.5999867     5749.252     7073.239     7276.543      77.4249     155.0352     310.2865      1.256     2.41     818.8448     54.70393     1104.601        21     1.021     0.889  70.97   0
       572    545.6360    203.8541 307.7059614  +6.5987301     2591.177     3125.439     2845.043     77.67188     155.2204     310.3791      1.226     2.32     818.6884     54.70393     493.5579        15     0.990     0.820  47.33   0
       573    303.3426    204.7108 307.8065971  +6.5902976     1437.004     1812.669     1770.479     77.67188     155.1587     310.4716      1.299     2.64     823.3373     54.70393     270.1283        10     0.887     0.720  57.36   0
       574    387.4940    203.0085 307.7716925  +6.5938086     2012.433     2447.279     2759.495      77.4249     154.8498     310.1322      1.226     2.49     820.7123     54.70393     349.4367        11     0.855     0.742  53.74   0
       575    943.9402    200.9095 307.5405715  +6.6131826     3231.031     3939.466     4102.542     77.67188     155.2204       310.41      1.300     2.49     819.6732     54.70393     562.8571        17     1.023     0.861  86.64   0
       576    890.0681    200.3204 307.5629744  +6.6116387      13776.3     17099.28     17913.93     77.91806      155.467     310.3483      1.276     2.30     819.9304     54.70393      2515.78        27     1.066     0.948  68.40   0
       577    317.8584    201.0827 307.8006879  +6.5922802     1256.366     1745.429     1930.216     77.91806     155.2204       310.41      1.444     3.07     822.7757     54.70393      193.454        10     0.902     0.731  85.54   0
       578    565.1434    200.2136 307.6979783  +6.6008828     952.4764     1244.513     1388.305     77.17714      155.097     310.0396      1.202     2.35     818.5861     54.70393     201.3124         9     0.879     0.630  76.84   0
       579    209.2791    200.7177 307.8458102  +6.5888045     777.1517     1202.048     1028.788     77.91806      155.467     310.4716      1.565     4.41     824.7482     54.70393     126.5381         7     1.030     0.537  63.85   0
       580     16.1306    197.2361 307.9261699  +6.5837812     31303.29     40169.04      41993.4     77.67188     155.2821       310.41      1.322     2.43     827.7219     54.70393     5478.239        49     1.202     1.095  53.62   0
       581    976.7258    198.0811 307.5270435  +6.6154376     11472.71     15014.82     15181.07     78.04086      155.467       310.41      1.359     2.59     819.5663     54.70393     1833.696        34     1.161     1.042  67.41   0
       582    688.0950    198.1438 307.6469638  +6.6058284     3486.856     4256.156     4656.593     77.67188     155.2204     310.5642      1.259     2.25     819.9643     54.70393     699.4858        17     1.023     0.817  61.74   0
       583    262.4737    197.8591 307.8238060  +6.5917619     1457.451     1761.395     1700.385     77.91806     155.2204     310.3483      1.255     3.00      824.171     54.70393      227.321         9     0.872     0.697  71.98   0
       584    496.7451    193.0964 307.7266339  +6.6015433       2396.6     3072.771     3000.411     77.67188     155.2204     310.5333      1.249     2.50     818.0388     54.70393     469.6238        15     0.991     0.803  60.45   0
       585    880.9892    188.8746 307.5671279  +6.6160633     2466.756     3145.183     3371.455      77.4249     154.8498     310.1631      1.331     2.66     819.6279     54.70393     435.5278        15     0.991     0.829  39.72   0
       586    828.6284    189.6671 307.5888569  +6.6139980     2513.793      3098.19     3593.161     77.54848     155.1587     310.3174      1.235     2.41     819.8085     54.70393     428.0314        16     1.014     0.823 -68.07   0
       587    508.6604    189.0637 307.7218182  +6.6036053     3078.912     3946.739     3954.762     77.79507     155.1587     310.3791      1.305     2.41      817.937     54.70393     546.5114        18     1.035     0.870  75.76   0
       588    343.2498    185.8026 307.7906506  +6.5994365     6777.874     12864.19     13578.25     77.17715     154.8498     309.9469      1.973     6.23     821.8925     54.70393     981.3386        42     1.848     1.052 -83.72   0
       589    740.2522    186.2458 307.6256903  +6.6124749     49660.49     61253.76     62961.75     77.91806     155.1587       310.41      1.234     2.32     819.6953     54.70393     9078.366        45     1.142     0.992  67.80   0
       590    974.0599    185.0351 307.5285854  +6.6207358     3255.527     4249.895     4413.121     77.79507     155.2204     310.3174      1.359     2.53     819.1849     54.70393     603.7772        20     1.072     0.957  65.91   0
       591   1012.3519    183.6108 307.5127226  +6.6225931     1961.224     2622.789     2495.341     77.30112      155.097     310.0396      1.478     2.85     819.1194     54.70393     304.8079        16     1.023     0.904 -81.41   0
       592    908.1270    183.2996 307.5560381  +6.6192657     8917.312     11124.17     11448.64     77.54848     155.3438     310.3483      1.282     2.45     819.2827     54.70393     1566.903        24     1.102     0.887  63.79   0
       593    451.6294    182.4603 307.7457340  +6.6044312      6366.18     7776.256     7777.984     77.54848     155.2204     310.3174      1.222     2.36     818.4941     54.70393     1057.056        20     0.991     0.887  60.19   0
       594    317.5641    181.8592 307.8014543  +6.6002073     570.4047     748.7375     320.0557     77.79507     155.2204     310.3174      1.506     3.18     822.8286     54.70393      127.364         5     0.748     0.616 -21.48   0
       595    226.0051    179.1840 307.8395834  +6.5982542     986.8814     1205.253     749.4596      77.4249     154.9116     310.1939      1.288     3.69     824.5611     54.70393     168.8463        10     1.110     0.632  45.09   0
       596    108.9430    174.0172 307.8883911  +6.5964738     5942.276     7569.318     7868.983     77.30112     155.1587     310.1013      1.319     2.37     826.3267     54.70393     1080.495        24     1.080     0.962  51.74   0
       597    928.2045    172.8260 307.5480447  +6.6242562     1042.557     1444.078     2062.796     77.30112     155.0352     310.1939      1.422     3.28     818.8896     54.70393       156.45         9     0.934     0.730 -75.23   0
       598    279.2748    170.6427 307.8177381  +6.6035600     42784.28     53438.41     55149.93     77.67188     155.2821     310.3791      1.271     2.39     824.0093     54.70393      7161.95        49     1.148     1.055  56.33   0
       599    254.5585    171.7043 307.8279713  +6.6022963     8343.784     10431.66     10689.63     77.79507     155.1587     310.4716      1.273     2.40     824.2588     54.70393     1391.897        25     1.102     0.930  65.27   0
       600    605.5109    172.0621 307.6821470  +6.6138499     803.3448     1003.587     1071.947     77.79507     155.3438       310.41      1.275     2.78     817.4619     54.70393     133.7316         6     0.764     0.494 -82.25   0
       601     64.0294    171.8870 307.9071222  +6.5958505     514.7943     684.0858     1187.135     77.91806     154.9734     310.2248      1.601     4.99      827.258     54.70393     75.60535         5     1.142     0.617 -77.55   0
       602    193.9513    170.6505 307.8531867  +6.6007063     603.8244     641.3406      1365.04     77.79507      155.097     310.2865      1.311     4.19     824.6572     54.70393     102.6042         6     0.964     0.519  74.97   0
       603    708.3704    169.7026 307.6394889  +6.6182456     973.9788     1118.083     1085.418     77.91806     154.9734     310.3791      1.054     2.88     819.1755     54.70393     214.1541         8     0.986     0.520  67.69   0
       604    403.3581    166.0764 307.7663379  +6.6095863     63253.79     78849.46     80783.23     77.67188     155.2204     310.3791      1.264     2.30     819.5565     54.70393     11076.29        53     1.148     1.037  64.66   0
       605    159.2874    167.4534 307.8676955  +6.6008675     5001.942     6192.355     6566.946     77.79507      155.097     310.5025      1.244     2.48     824.7386     54.70393     810.2776        18     1.041     0.832  75.10   0
       606    420.5497    166.6215 307.7591770  +6.6099346     1834.649      2252.21      2154.93     77.30112     155.2821     310.2248      1.252     2.42     818.9014     54.70393     341.9252        13     0.927     0.800  49.12   0
       607    307.3524    163.8134 307.8063016  +6.6073172     23052.49     29052.58     29768.98     77.17715      155.097     310.1013      1.261     2.42     823.2706     54.70393     3971.237        34     1.124     0.976  54.83   0
       608    742.6632    162.1483 307.6254925  +6.6225046     41069.77     50991.24     51611.68     77.79507     155.1587     310.3174      1.236     2.33     818.7835     54.70393     7171.208        48     1.165     1.002  62.70   0
       609    690.8342    164.1694 307.6469597  +6.6199472     1215.779     1489.886      1375.21     77.30112     154.9734     310.1013      1.247     2.52     819.0667     54.70393     231.2078         9     0.870     0.635  64.62   0
       610    573.8828    165.0258 307.6955232  +6.6157023     686.4239     846.1711     1540.808     77.67188     154.9734     310.3174      1.130     2.01     817.0215     54.70393      162.092         5     0.588     0.572   9.12   0
       611    314.7519    163.8905 307.8032247  +6.6075324     2547.477     3362.485     3990.836     77.79507      155.097     310.5025      1.480     2.59     822.9856     54.70393     449.8907        16     1.037     0.808  77.23   2
       612    541.2391    163.7070 307.7091302  +6.6151599     563.0623     976.5881     1652.119     77.91806     155.1587       310.41      1.794     3.71     816.8929     54.70393     94.92694         5     0.944     0.418  84.36   0
       613    791.0325    162.7398 307.6053755  +6.6238675     1414.721     1772.415     1717.338     77.54848     155.2821     310.2865      1.238     2.62     818.8215     54.70393     248.0455         9     0.878     0.634  70.63   0
       614     29.9147    162.7954 307.9216006  +6.5984622     801.2813     964.0953     1200.701     77.30112     154.8498     310.0396      1.336     4.38     827.9771     54.70393     120.2601         7     0.903     0.604 -31.20   0
       615     59.3831    159.6765 307.9094627  +6.6007364     11578.32     14686.35     14765.59     77.30112     154.9734     310.2248      1.283     2.38      827.368     54.70393     1853.318        29     1.109     0.998  59.20   0
       616    566.3481    160.0820 307.6988189  +6.6174927     622.2081     650.0706     918.3972     77.79507     155.2204     310.3791      1.147     4.18     816.8039     54.70393     95.81042         7     0.887     0.728   0.99   0
       617     93.3148    157.7969 307.8954286  +6.6026479     1912.719     2381.517     2461.929     77.17715     154.8498     310.0704      1.303     2.55     826.5661     54.70393      321.774        12     0.864     0.821   2.79   0
       618   1001.1776    156.3287 307.5182733  +6.6334874     1312.452     1751.985     1801.036      77.4249     155.0352     310.3483      1.391     2.81     818.1754     54.70393     210.8876        11     0.886     0.794 -87.42   0
       619    969.2026    155.6005 307.5315834  +6.6327281     664.1694      880.824     884.2981     77.17715     154.7879     310.1013      1.359     3.88     818.2359     54.70393     103.8333         6     0.888     0.485  41.85   0
       620    727.0433    150.0294 307.6323869  +6.6269892     774.8203      930.212     667.7301      77.4249     155.2204     310.2557      1.236     3.31     818.3432     54.70393     140.4947         5     0.939     0.387  65.37   0
       621   1003.6802    148.0707 307.5175082  +6.6369801     534.0895     837.5195     1566.103     78.04086     155.5286     310.3791      1.363     3.51     817.7484     54.70393      112.595         5     0.866     0.412  71.08   3
       622   1001.9545    142.5933 307.5184076  +6.6391844     2627.183      3498.66     3908.876     77.30112     154.9734     310.0087      1.397     2.60      817.491     54.70393     434.7255        16     1.192     0.816  62.57   2
       623    576.5779    146.7046 307.6950157  +6.6233566     1068.943     1411.905      1518.39     77.79507     155.0352     310.1939      1.331     2.64     816.7603     54.70393     165.3651         7     0.844     0.547  34.60   0
       624    585.0090    140.4727 307.6917208  +6.6262104     1351.371      1589.27     2086.742     77.30112     154.7879     310.1939      1.146     2.60     816.7371     54.70393     236.3802         9     0.868     0.646  68.57   0
       625    278.1942    136.9075 307.8193178  +6.6174525     38061.27     48003.62     50481.72      77.4249     154.9116     310.1322      1.294     2.38     823.9745     54.70393     6922.866        48     1.163     1.048  62.56   0
       626    593.3956    138.5006 307.6883022  +6.6273038     2375.312     2972.858     3854.805     77.54848     154.9116     310.0087      1.268     2.48     816.7513     54.70393     366.9677        15     1.052     0.750  46.69   0
       627    337.4656    138.7069 307.7946314  +6.6186883     1270.613     1505.232     1355.507     77.79507     155.4054     310.3483      1.134     2.51     822.4006     54.70393     240.0671         9     0.862     0.669  64.51   0
       628     23.3980    135.4347 307.9252274  +6.6095404     5481.954     6872.982     7135.793     76.92859     155.0352     310.1631      1.286     2.46      827.965     54.70393     814.5754        22     1.064     0.900  52.13   0
       629    709.8918    133.3553 307.6400698  +6.6333036     9988.535     12308.26     12451.66     77.79507     155.1587     310.4716      1.226     2.28     817.7339     54.70393     1836.077        26     1.040     0.939  58.84   0
       630    264.0184    131.6486 307.8253838  +6.6191503     972.7172     1200.931     1816.896     77.30112     155.2821     310.1631      1.274     3.08     824.0613     54.70393      182.624        10     0.999     0.617  69.89   0
       631    120.6322    130.6694 307.8849900  +6.6147619     5914.375     7591.969     8299.183     77.67188     155.2204     310.3791      1.309     2.41     825.0059     54.70393     1027.916        27     1.128     0.983  57.31   0
       632    582.2617    128.5225 307.6932617  +6.6310530     893.4078     1325.498     1662.445     78.04086     155.2821     310.3483      1.496     2.80     816.6568     54.70393      171.551         7     0.834     0.584 -85.22   0
       633    187.2567    134.5271 307.8571800  +6.6153970     1235.096     1732.685     2160.271     77.67188     155.1587     310.3174      1.503     2.84     824.3116     54.70393     200.4783        10     0.903     0.688  77.78   0
       634    648.2473    127.4338 307.6658810  +6.6336984     1053.628     1258.216     1397.194     77.54848     155.2204     310.2865      1.274     3.15     817.3049     54.70393     161.2844         9     0.904     0.647 -72.24   0
       635    459.6358    127.7013 307.7442397  +6.6273071     1629.823     1955.184     1883.478     77.79507      155.097     310.5333      1.230     2.45     817.4831     54.70393     258.9294        12     0.904     0.753  78.41   0
       636    391.2776    126.5396 307.7726808  +6.6255074     4938.683     6842.531     7115.046     77.91806     155.2821     310.3174      1.474     3.07     820.0367     54.70393     735.8951        30     1.394     1.065 -87.80   0
       637    355.7071    125.4929 307.7874950  +6.6247528     4104.529     5273.351     5811.857     77.79507     155.7132     310.3174      1.280     2.31     821.9062     54.70393      722.845        20     1.069     0.907  81.71   0
       638    567.9284    125.3131 307.6993244  +6.6319009     1044.833     1668.605     1952.017     77.91806      155.467     310.3483      1.824     4.18     816.6024     54.70393     154.6353        14     1.175     0.885 -64.69   0
       639    110.1221    125.4892 307.8895306  +6.6165491     2146.942     2441.785     2736.471     77.54848      155.467     310.4716      1.287     2.59     825.0258     54.70393     355.6592        15     0.998     0.904  77.81   0
       640    938.3828    124.0263 307.5454405  +6.6447429     560.5741      882.163     1157.184      77.4249     154.9734     310.2557      1.915     5.41      816.784     54.70393     86.99982         8     1.252     0.661  80.06   0
       641    746.1881    123.2495 307.6253257  +6.6386827     677.0178     863.5262      793.912     77.17715     155.1587     310.0396      1.333     4.66     817.1711     54.70393     98.99451         8     0.935     0.660 -89.30   0
       642    671.4288    123.1977 307.6563905  +6.6362185     953.6004     1119.541      1160.03     77.30112     154.9734     310.1631      1.228     2.94     817.5023     54.70393     146.0723         7     0.808     0.580 -65.30   0
       643     48.6240    121.4510 307.9152168  +6.6161584     653.1349     886.6814     357.5177      77.4249     155.2204     310.2557      1.395     3.46     826.8926     54.70393      102.045         6     0.914     0.634  25.82   0
       644   1002.4650    119.4380 307.5189660  +6.6487620      1853.32     2458.432     2984.138     77.67188     155.1587     310.4408      1.453     2.91      816.231     54.70393     269.3181        15     1.014     0.906  85.37   0
       645    728.4703    119.5259 307.6328118  +6.6396312     663.7159     695.4662     266.3389     77.91806     155.3438     310.3483      1.099     3.43     817.0974     54.70393      114.758         7     0.865     0.628  68.80   0
       646    207.5665    114.4158 307.8494164  +6.6243792      7014.11     8886.266     8839.911      77.4249     154.9734     310.2248      1.285     2.45     824.1484     54.70393     1065.418        27     1.138     0.965  42.33   0
       647     90.3034    114.3658 307.8981382  +6.6204785     2613.993     3240.514     3398.865     77.91806      155.097     310.5025      1.257     2.49     825.1161     54.70393     423.6406        15     1.090     0.788  51.43   0
       648    846.3948    114.1857 307.5839909  +6.6457535     612.4701     734.0334      1098.34      77.4249     154.9116     310.1939      1.385     2.40     816.7064     54.70393     102.7882         5     0.707     0.453  70.24   0
       649    669.3799    113.1114 307.6575785  +6.6403149     7684.909     9214.388      9023.24     77.67188     154.9734     310.2248      1.211     2.35     817.0878     54.70393     1372.556        19     0.981     0.853  64.65   0
       650    817.3856    112.8571 307.5960889  +6.6453388     1251.903     1414.835     1784.239     77.17714      155.097     310.0396      1.220     2.76     816.7234     54.70393      198.975         9     0.862     0.677  73.38   0
       651    621.5914    110.4073 307.6775253  +6.6398415     11861.41     14482.62     15475.43     77.17715     155.0352     310.2248      1.217     2.38     816.6557     54.70393     1854.912        26     1.055     0.921  72.88   0
       652    256.0409    110.8786 307.8293947  +6.6274593     928.7733     857.0966      910.176     77.67188     155.2204     310.3791      1.173     2.75     824.0186     54.70393     180.7668         8     0.900     0.587 -69.88   0
       653    559.7069    109.9498 307.7032540  +6.6379704     885.9624     1235.755     1702.303     77.67188      155.097     310.5333      1.401     4.04     816.5023     54.70393      168.601         7     0.806     0.580  77.12   0
       654     20.2027    109.5726 307.9274241  +6.6201111     1151.916     1681.803     1593.041     77.30112     154.9734     310.1631      1.506     5.27     827.9142     54.70393     178.5284        12     1.313     0.745 -70.03   0
       655    348.7134    106.1274 307.7910494  +6.6325151     4546.232     6364.096      6623.87     77.91806      155.467     310.3483      1.451     3.07      822.386     54.70393     729.0007        30     1.467     1.010 -66.77   0
       656    214.5672    107.0931 307.8467533  +6.6276365     401.2533     369.5678    -76.60114     77.91806      155.097       310.41      1.325     3.94     824.1033     54.70393     86.26019         5     0.908     0.490 -84.47   0
       657    994.9509    104.8675 307.5225732  +6.6545290     1053.428       1576.1     1502.118     77.67188     155.1587     310.3791      1.504     3.59     815.5388     54.70393     159.1138        10     1.028     0.690 -73.02   0
       658    530.5080    105.5461 307.7155335  +6.6388162     2120.072     2491.626     2562.942     77.67188      155.097     310.5025      1.219     2.54     816.5231     54.70393     324.5753        13     0.949     0.751  65.83   0
       659    625.1110    101.9276 307.6763462  +6.6434598     66926.23     82775.79     84782.85     77.79507      155.467     310.3791      1.281     2.25     816.5477     54.70393     13006.16        55     1.164     1.019  64.95   0
       660    304.1391     95.7318 307.8099181  +6.6353193     4605.816     5949.281     6485.009     77.91806     155.1587     310.3483      1.345     2.49     823.5069     54.70393     771.5812        20     1.018     0.930  58.38   0
       661    965.0442   1022.2009 307.5044835  +6.2747717     436.6996     724.3806     1027.188     77.17714     142.4152     255.7431      1.792     3.67      842.799     54.70393     85.28748         5     1.409     0.275  12.16  16
       662    704.1357     90.3287 307.6438976  +6.6508774     1169.361     1455.855     1334.501     77.79507     155.2204       310.41      1.294     2.94     816.1957     54.70393     214.2087        10     0.955     0.775  71.90   0
       663    675.5258     89.0929 307.6558268  +6.6504362     1740.622     2388.852     2314.942     77.79507     155.3438     310.3174      1.323     2.40     816.3257     54.70393     300.1595        13     0.973     0.738  74.39   0
       664    689.4957     85.7844 307.6501326  +6.6522668     3946.722     4947.203     4944.869     77.54848     154.9734     310.1939      1.267     2.41     816.2163     54.70393     621.2603        18     1.017     0.850  81.26   0
       665    431.2401     76.9424 307.7577368  +6.6473179     5203.748     6366.424     6505.357     77.79507     155.2821     310.3791      1.279     2.45     818.0717     54.70393     930.5055        22     1.116     0.880  67.76   0
       666    885.8378     72.9815 307.5689745  +6.6640756     2630.254     3244.667      3223.88      77.4249      155.097     310.1013      1.275     2.73     815.3651     54.70393     445.6109        14     1.017     0.777 -88.16   0
       667    903.8137     72.1696 307.5615320  +6.6650073     4462.197     5955.961      6089.46      77.4249     154.9734     310.2865      1.368     2.45     815.1191     54.70393     748.7488        23     1.054     1.018 -77.14   0
       668    583.8259     72.6835 307.6944779  +6.6541601     816.6654     914.0496     857.4357     77.79507     154.9734     310.2865      1.166     2.96     816.2242     54.70393     148.0112         7     0.848     0.563  79.41   0
       669    595.8643     70.6992 307.6895420  +6.6553802      2147.49     2625.219     2672.393     77.79507     155.2821     310.3791      1.191     2.42     816.2048     54.70393     405.9131        12     0.994     0.680  81.44   0
       670    615.8434     70.3647 307.6812515  +6.6561832     611.5978     706.2432     523.7592     77.54848     155.2204     310.1939      1.015     2.35     816.1771     54.70393     128.7789         6     0.708     0.594  67.37   0
       671    394.5065     68.7963 307.7732726  +6.6494561     2397.466     2782.602     2644.247     77.54848     154.9116     310.0704      1.246     2.61     819.9862     54.70393     361.3066        16     1.037     0.805  68.55   0
       672    241.6763     70.1196 307.8367298  +6.6438078     1020.015     1451.476     1323.818     78.04086      155.467     310.4716      1.445     3.22     823.2968     54.70393     152.1686        10     0.885     0.794  61.55   0
       673    142.4021     65.8005 307.8781227  +6.6422726     3975.808     5058.751     4855.356     77.17715     154.7879     310.0396      1.274     2.45     823.0927     54.70393     642.5577        18     1.050     0.846  62.38   0
       674     24.3614     63.6844 307.9272384  +6.6391960     15216.64     19552.99     20818.95     77.79507     155.1587     310.2865      1.339     2.52      825.607     54.70393     2367.478        35     1.205     1.024  58.19   0
       675    290.6374     64.2695 307.8165825  +6.6478585     1725.803     2176.313     3079.146     77.67188     155.2204     310.4408      1.308     2.53     823.5463     54.70393     293.2188        11     0.878     0.759  39.10   0
       676    564.0812     63.0131 307.7030054  +6.6574955     757.8602     970.9919     713.8676      77.4249     154.9734     310.1939      1.185     1.86     816.1374     54.70393     173.4259         5     0.594     0.550 -88.79   0
       677    551.3680     62.9272 307.7082909  +6.6571076     1130.588     1289.544     760.1567     77.67188     155.2204     310.3791      1.212     3.02     816.1415     54.70393     172.4566         9     0.792     0.775 -77.15   0
       678    982.1878     62.1051 307.5293000  +6.6717622     574.9736     887.7114     681.2282     77.54848     154.9734     310.1939      1.493     3.95     814.3331     54.70393     92.46936         6     0.766     0.583  36.12   0
       679    945.2455     62.4160 307.5446405  +6.6704088     622.5116     715.5453     1071.147     77.30112      155.097     310.1322      1.149     2.21     814.4467     54.70393     140.8442         5     0.703     0.437  24.50   0
       680    153.5706     61.8014 307.8736165  +6.6442972     568.4486     785.5176     1096.514     77.30112     155.0352     310.1631      1.574     3.40     822.8887     54.70393     81.99164         5     0.781     0.428  67.69   0
       681    892.9368     59.0447 307.5664890  +6.6700655     706.8715     879.2954     1137.702     77.79507     155.1587     310.3791      1.148     2.48     814.9949     54.70393     165.0441         7     0.864     0.488  46.47   0
       682    826.1313     57.9726 307.5942847  +6.6682905     7291.945     9480.267     9859.063      77.4249      155.097     310.2557      1.321     2.38     815.1898     54.70393     1367.894        26     1.119     0.941  61.26   0
       683    771.2297     58.2895 307.6170876  +6.6663360     4024.582     5049.882     5105.772     77.91806     154.9734     310.2865      1.299     2.55     815.3452     54.70393       692.01        18     1.034     0.879  87.45   0
       684    416.1887     58.8326 307.7645970  +6.6542931     1253.693     1499.718     1060.664     77.30112     154.9734     310.1939      1.234     2.22     818.5864     54.70393      258.551         9     0.850     0.604  68.78   0
       685    917.3560     58.1153 307.5563729  +6.6712595     633.0597     712.1962     577.4242     77.79507     155.1587     310.3174      1.087     1.82     814.5735     54.70393     156.4115         5     0.674     0.445  69.50   0
       686    758.0535     57.7388 307.6225811  +6.6661256     805.4217     1244.324       2414.3     77.79507     155.1587     310.3174      3.925     3.39     815.4828     54.70393     139.1406         8     0.989     0.630  39.98   0
       687    533.6071     56.4759 307.7158866  +6.6591796     1454.681     1859.558     1772.171      77.4249     154.7261     310.1939      1.281     2.77     816.1197     54.70393     226.3535        13     1.038     0.726  58.90   0
       688     64.7009     55.4797 307.9107535  +6.6439340     4047.694      5177.36     4770.168     77.67188     155.5901     310.3791      1.291     2.57     823.9857     54.70393     611.6335        21     1.092     0.921  71.78   0
       689     49.1880     56.5703 307.9171623  +6.6429645      1131.87     1407.995     1293.633     77.30112     154.9734     310.2248      1.299     2.91     824.4995     54.70393     194.3911         9     0.906     0.623  74.61   0
       690    653.5266     55.7155 307.6660826  +6.6634855     574.0968     612.1706      360.908     77.91806     155.5286     310.3791      1.248     4.47     815.8885     54.70393     107.8641         7     1.015     0.600  67.69   0
       691    425.9328     54.9183 307.7606792  +6.6562342     1182.214     1377.748     1514.245     77.91806      155.467       310.41      1.263     2.81      818.201     54.70393     206.5562         7     0.843     0.542  48.52   0
       692    588.4686     51.9713 307.6932409  +6.6628664     1624.328     1996.161     1515.782     77.54848     155.2204     310.2865      1.273     2.82     816.0256     54.70393     260.5271        13     1.016     0.751  48.64   0
       693    259.4449     52.7444 307.8299295  +6.6515751     547.4991      988.522     1260.961     77.79507     155.2204     310.3483      1.722     2.73     823.0801     54.70393     104.5156         5     0.701     0.476 -73.98   0
       694      7.0215     51.0214 307.9348685  +6.6438435     3019.543     4199.174     4708.339     77.54848     155.0352     303.0736      1.430     2.67     825.2093     54.70393     529.2493        21     1.074     1.023  45.73  16
       695    765.8720     45.7556 307.6197320  +6.6713331     2278.298     2918.856     3184.803     77.67188     155.2204     310.3791      1.300     2.70     815.1841     54.70393     438.0293        17     1.097     0.822  71.07   0
       696    406.5859     46.1714 307.7690110  +6.6592004     1275.128     1761.007     1609.251      77.4249     155.0352     310.2557      1.361     2.73     819.2361     54.70393     215.2334         9     0.909     0.650  69.06   0
       697     79.6238     46.6954 307.9048482  +6.6480602     1057.101     1069.929     938.7358     77.91806     154.9734     310.2248      1.160     3.18     823.3284     54.70393     191.2179         9     0.903     0.676  82.70   0
       698    657.5137     45.9030 307.6647535  +6.6676696      630.917     629.8516     704.1282     77.79507     155.5901       310.41      1.043     2.35     815.7292     54.70393     122.3684         6     0.742     0.497 -84.62   0
       699    103.6401     45.0194 307.8949258  +6.6495558     1131.868     1487.412     1438.601      77.4249     155.0352     310.0704      1.281     2.55     822.8445     54.70393       191.39         9     0.853     0.641  28.59   0
       700    687.6398     44.2262 307.6522912  +6.6693640     420.4215      496.963     20.03552      77.4249     155.0352     310.1631      1.250     4.52     815.6149     54.70393     87.61145         5     0.838     0.692  38.07   0
       701    421.4552     39.4225 307.7630585  +6.6624828     3203.734     4127.896     4710.106      77.4249     155.2204     310.1631      1.248     2.37     818.3671     54.70393     529.7372        18     1.096     0.828  71.94   0
       702     92.3656     39.7630 307.8997869  +6.6513488     11602.16     14984.18     15163.29     77.54848     154.9734     310.1322      1.330     2.53     822.8738     54.70393     1815.031        30     1.158     0.978  56.72   0
       703    242.9762     38.8940 307.8372368  +6.6567434     717.9504     976.8721     1026.083     77.91806     154.9734     310.1939      1.287     3.55      822.513     54.70393     115.4063         8     0.949     0.614 -62.96   0
       704    635.2098     31.6108 307.6744989  +6.6728286     23091.97     28650.26     29403.87      77.4249     155.0352     310.3174      1.249     2.41      815.659     54.70393     4136.233        35     1.145     0.948  66.16   0
       705    259.0641     33.6994 307.8307263  +6.6594256     1695.831     2521.647     3374.531     77.79507     155.2821     310.3791      1.592     2.94     822.7072     54.70393     277.2297        15     1.065     0.854  68.88   0
       706    664.8340     32.7273 307.6621517  +6.6733531      655.676     631.3279     124.8692     77.67188     155.1587     310.3174      1.144     4.11     815.5014     54.70393       111.83         6     0.773     0.623 -81.04   0
       707    944.3384     31.5196 307.5460463  +6.6831356     513.9366     703.6144     559.5596     77.91806     155.2204     310.3483      1.315     3.89     813.5762     54.70393     112.9615         6     1.057     0.410 -54.60   0
       708    535.0542     27.7175 307.7162469  +6.6711017     6528.038     7943.657      7905.42     77.79507     155.2204     310.4408      1.267     2.31     815.8839     54.70393     1215.503        20     1.015     0.896  65.04   0
       709    253.2161     28.1029 307.8333439  +6.6615409     2445.308     3164.711     3784.528     77.67188     154.9734     310.1939      1.345     2.76     822.4556     54.70393     407.7986        15     1.005     0.838  79.77   0
       710      2.4938     26.1578 307.9375855  +6.6539572     1569.159     1987.821     1855.734     77.91806     139.1503     251.6666      1.326     2.67     823.5028     54.70393     258.1556        11     0.945     0.699  49.32  24
       711    690.9959     26.3174 307.6514945  +6.6768698     579.6495      517.205     940.2439     77.30112     154.8498     310.0704      1.059     2.08     815.3569     54.70393     140.0081         5     0.739     0.455  62.26   0
       712    621.2891     21.4323 307.6806235  +6.6765679     3927.131     5361.626     6823.358     77.91806     155.0352     310.3483      1.574     2.45     815.6164     54.70393     636.0112        21     1.205     0.879  66.25   2
       713    793.7153   1020.1180 307.5756908  +6.2699485     6718.901     10513.43     10819.34     77.54848     155.5286     282.8738      1.673     3.46     843.8826     54.70393     821.0781        36     1.333     1.277  47.74  16
       714    261.1348     23.8747 307.8301954  +6.6635511     11505.66     14501.63     15769.14     77.91806     155.2204     310.3174      1.306     2.40     822.5585     54.70393     2073.922        30     1.131     0.967  55.63   0
       715    320.8533     24.0978 307.8053738  +6.6654533     1186.262     1652.519     2000.717     77.67188     155.2204     310.5642      1.424     2.74      823.327     54.70393     238.1279        11     0.959     0.745  73.49   0
       716     26.5077     23.5509 307.9276955  +6.6558377     2822.601     3687.083     3565.173     77.67188      155.097     310.5025      1.356     2.47     823.1008     54.70393     416.2838        17     1.033     0.858  65.23   0
       717    918.4621     23.1584 307.5570777  +6.6857295     2385.613     2957.573     3269.538     77.79507     155.1587     310.4408      1.316     2.57     813.5939     54.70393     375.3214        15     0.971     0.860  83.18   0
       718    525.9431     23.1532 307.7201855  +6.6726827     762.0685     1061.621     1263.824     77.79507     155.2204     310.4408      1.619     3.89     815.8618     54.70393     139.6668         8     0.929     0.668 -86.40   0
       719    249.0257     20.4803 307.8353407  +6.6645481     3964.151     5071.327     5338.776     77.54848     155.0352     310.3483      1.328     2.42     822.1799     54.70393     689.6168        21     1.139     0.867  62.57   0
       720    302.1110     18.6955 307.8133427  +6.6670580     1169.735      1454.36     1284.402     77.79507     155.5901     310.3791      1.206     2.40     823.2462     54.70393     216.0375         9     0.866     0.631  68.10   0
       721    891.6581   1016.8978 307.5351309  +6.2745282     1318.967     2078.508     2132.756     77.54848     155.1587     309.4521      1.727     4.64     843.3857     54.70393     185.3906        19     1.270     1.078 -88.82  16
       722    214.2474   1015.4856 307.8164391  +6.2525682     2249.716     3196.156     3391.547     77.79507     155.1587     310.3483      1.511     3.05     845.0891     54.70393     287.9647        18     1.056     1.001 -31.67   0
       723     95.3100     13.6099 307.8994419  +6.6622451     646.7001     782.8323     451.4363     77.54848     154.9116     310.1631      1.495     3.76      822.146     54.70393     117.7855         5     0.857     0.474 -46.35   0
       724    717.5061   1012.5228 307.6075866  +6.2705535      7608.75     11254.64     11651.36     77.54849     155.4054     310.3791      1.635     3.25       846.27     54.70393      939.275        33     1.346     1.134  76.38   0
       725    432.3630   1012.8054 307.7259695  +6.2609497     4413.462     6425.882      7096.55     76.92858     154.9734     310.1322      1.526     2.80     847.5622     54.70393     615.5338        27     1.160     1.116  55.81   0
       726    709.8453   1011.8809 307.6107889  +6.2705639     1142.093     1479.737     1137.704     77.79507     155.2204     310.3483      1.451     4.28     846.3308     54.70393     169.3921        16     1.233     0.963  20.59   0
       727    573.7141   1011.6828 307.6673181  +6.2661195     4511.931     6884.218     7961.397     77.54848     155.4054     310.4408      1.667     3.22     847.0645     54.70393     612.6806        29     1.262     1.196  37.72   0
       728    749.5793   1007.7276 307.5944292  +6.2735988     1264.873     2022.076     3042.602      77.4249      155.097     310.3174      2.409     4.53     845.4672     54.70393     155.0591        17     1.271     0.965  69.00   0
       729    957.1350   1002.0159 307.5084386  +6.2828439     5856.009     10457.82     10562.78     77.30112      155.097     310.2557      1.885     4.10      842.297     54.70393     651.9451        37     1.476     1.305  64.09   0
       730    711.5551   1002.9652 307.6103761  +6.2743020     1193.594     1557.606     1994.933     77.54848     155.1587     310.2248      1.519     4.17     846.1044     54.70393     155.6855        15     1.179     0.879 -73.19   0
       731    439.9608   1001.5911 307.7231897  +6.2658331      1048.98     1562.253     1609.306     77.17714     155.0352     310.0704      1.529     3.43     847.2307     54.70393     197.7278        13     1.099     0.824 -81.05   0
