#   1 NUMBER                 Running object number                                     
#   2 X_IMAGE                Object position along x                                    [pixel]
#   3 Y_IMAGE                Object position along y                                    [pixel]
#   4 ALPHA_J2000            Right ascension of barycenter (J2000)                      [deg]
#   5 DELTA_J2000            Declination of barycenter (J2000)                          [deg]
#   6 FLUX_APER              Flux vector within fixed circular aperture(s)              [count]
#   9 FLUXERR_APER           RMS error vector for aperture flux(es)                     [count]
#  12 FLUX_RADIUS            Fraction-of-light radii                                    [pixel]
#  13 FWHM_IMAGE             FWHM assuming a gaussian core                              [pixel]
#  14 BACKGROUND             Background at centroid position                            [count]
#  15 THRESHOLD              Detection threshold above background                       [count]
#  16 FLUX_MAX               Peak flux above background                                 [count]
#  17 ISOAREA_IMAGE          Isophotal area above Analysis threshold                    [pixel**2]
#  18 A_IMAGE                Profile RMS along major axis                               [pixel]
#  19 B_IMAGE                Profile RMS along minor axis                               [pixel]
#  20 THETA_IMAGE            Position angle (CCW/x)                                     [deg]
#  21 FLAGS                  Extraction flags                                          
         1    103.0062     54.7308 307.8996237  +6.6511506     9654.259     14479.14     14937.96     77.79517     155.7772     312.1765      1.583     3.69     833.7081     55.05355     1293.085        35     1.516     0.958  52.00   0
         2    189.2448     20.8693 307.8649311  +6.6680302     10931.65     16318.13     17236.04     78.29227     156.1503     312.3318      1.606     3.75     833.7332     55.05355     1466.527        35     1.480     1.003  56.33   0
         3    533.4902     18.9889 307.7219465  +6.6803691     3049.836      4505.41     4568.865     78.04411     155.9017     312.1454      1.575     3.89     827.3782     55.05355     450.1516        23     1.428     0.879  57.80   0
         4    934.8915     18.5903 307.5551532  +6.6939640     4045.554     5981.465      6565.87     78.04411     155.8395     312.0832      1.616     3.86     824.3407     55.05355     602.3566        23     1.425     0.858  55.58   0
         5    735.7705     17.2501 307.6379460  +6.6878618     1899.975     2734.056     2561.184     77.91974     156.3366     312.2386      1.553     4.02     826.8311     55.05355     313.5328        16     1.363     0.737  54.85   0
         6    471.5167     17.3690 307.7477540  +6.6789592     1845.475     2729.806     2697.726     78.29227     156.0261     312.2075      1.583     4.34     828.3779     55.05355     295.3514        15     1.218     0.827  55.17   0
         7    999.6541     14.8412 307.5283651  +6.6976731     1875.874     2788.843     2709.916     78.16829     156.2124     312.3628      1.615     4.52     822.3981     55.05355     255.2715        18     1.453     0.788  57.16   0
         8    719.0009     11.3289 307.6451132  +6.6897448     7582.569     11104.99     10834.51     77.67039     155.7772     312.1454      1.525     3.93     826.6041     55.05355      1046.58        31     1.496     0.892  58.36   0
         9    639.2874     10.6337 307.6782624  +6.6873631     3862.964     5486.972     5700.184     78.29227     156.0882     312.3318      1.529     3.69     826.5803     55.05355     578.4116        22     1.418     0.775  56.77   0
        10    341.1609      9.9541 307.8021720  +6.6776433     884.0367     1287.793     1901.791     78.04411     156.2124     312.2075      1.893     5.16     834.4014     55.05355     126.2748        10     1.163     0.648  68.16   0
        11    439.4080      6.8388 307.7614506  +6.6822282     6477.053     9680.146     10272.54     77.67039     155.9639     303.4165      1.600     3.91     828.8003     55.05355     965.8573        28     1.464     0.917  51.30  16
        12    395.1887      8.9237 307.7797557  +6.6798832     849.5893     1167.318     1074.299     77.91974     155.8395     312.1765      1.475     4.88     830.9137     55.05355     110.4478         9     1.060     0.636  34.11   0
        13     40.3372      6.4685 307.9272916  +6.6689598     8749.483     13132.01     13792.86     78.29227     156.1503     300.6226      1.659     3.72     830.9719     55.05355      1273.09        37     1.483     1.069  51.03  16
        14    686.3717      5.7715 307.6588590  +6.6909467     980.0801      1418.53     1268.694     77.79517     156.0261     293.8684      1.527     3.80     826.3163     55.05355     149.3241         9     1.072     0.696  53.55  16
        15    515.1307      4.2100 307.7300721  +6.6858537     893.9411     1436.214     1381.966     77.79517     155.2783     276.5946      1.663     4.82     827.4815     55.05355     141.4843         8     1.088     0.604  62.01  16
        16    336.0931      2.2301 307.8045378  +6.6806612     12845.57     16840.42     17803.47     77.42025     136.6038     249.3385      1.443     3.94     834.5152     55.05355     1764.305        31     1.342     0.952  32.45  24
        17    109.6359      2.3527 307.8986350  +6.6729932     2564.338     3613.937     3687.181     77.42025      138.157     251.0056      1.573     4.39      831.928     55.05355     365.7181        22     1.449     0.895  37.76  24
        18    430.6343      1.9603 307.7652604  +6.6839474      734.035      948.303     1412.418     74.74318     133.0065     244.9035      1.322     3.38     828.8549     55.05355     127.9315         5     0.780     0.424  69.53  24
        19    101.1871      1.5733 307.9021721  +6.6730304     1210.888     1595.248     2002.645     70.60605     127.4201     238.8487      1.313     4.13      831.928     55.05355     204.7264        12     1.326     0.598  16.91  24
        20    805.3994      1.2452 307.6095467  +6.6967971     638.3227     712.3864     872.0778     66.64891     122.2933     233.1776      1.149     3.81      823.897     55.05355      153.257         6     0.969     0.430   1.08  24
        21    402.7359      1.2515 307.7768774  +6.6833034     824.9053     1150.281     1296.541     67.08406      123.005     233.8422      1.186     2.63     830.1931     55.05355     234.7222         6     0.860     0.432  -3.14  24
        22    539.8362    990.8497 307.6867060  +6.2794211     3937.012     6607.075     7629.181     78.04411     156.2124     312.2386      1.852     4.26      858.936     55.05355     497.3211        35     1.592     1.207  37.65   0
        23    759.5685   1022.3930 307.5944111  +6.2737540     1173.194     1594.133     1454.421     77.67039     141.3494      254.688      1.557     5.40     857.5932     55.05355     139.9495        15     1.236     0.850  56.77  24
        24    608.2947    992.3128 307.6582311  +6.2811099      1360.21     2255.326     1888.554     78.29227     156.5845     312.3939      1.723     5.32     858.5059     55.05355     166.4155        17     1.455     0.818  38.37   0
        25    649.3497    990.2296 307.6412536  +6.2833440     1397.355     2114.266     1968.205     77.91974     156.3366     312.2386      1.641     4.93     858.1661     55.05355      195.067        18     1.486     0.852  48.88   0
        26     73.9764    989.3115 307.8801891  +6.2644136      994.712     1451.943     1459.298     78.29227     156.0261     312.2075      1.640     5.45     853.9839     55.05355     140.2465        10     1.106     0.758  36.42   0
        27    804.6357    988.6089 307.5768274  +6.2892058     555.4924     900.6396     671.6787     77.79517     155.9639     312.1143      1.785     3.80     855.5095     55.05355      101.122         5     1.027     0.673  62.08   0
        28    492.6434    987.4629 307.7064153  +6.2792377     2267.317     3377.653     3434.844     78.29227     156.1503     312.3939      1.637     4.07      858.851     55.05355     276.8516        21     1.394     0.881  57.17   0
        29    927.2442    979.4899 307.5262198  +6.2970645     38550.77      67185.9     72703.12     78.29227     156.0882     312.4249      1.908     4.21       854.01     55.05355     4506.975        81     1.829     1.340  57.82   0
        30      1.3833    979.7402 307.9106521  +6.2659203     1372.461     1904.206     2135.721     68.37288     124.7276     235.6601      1.236     3.83     852.5335     55.05355      280.106        11     1.282     0.540  82.04  24
        31    234.4034    977.5517 307.8139745  +6.2746624     1657.044     2908.636     3171.464     77.67039     155.9639     311.9278      1.933     4.72     856.2733     55.05355     198.6545        19     1.376     0.889  74.03   0
        32    633.0570    976.0062 307.6484952  +6.2886698     768.3678      1051.01     928.5038     77.79517     156.0882     312.0522      1.589     3.87     858.0259     55.05355      124.325         7     0.986     0.618  59.43   0
        33    122.5915    976.8250 307.8604244  +6.2712032     627.0121     1044.838     971.9844     77.91974     156.0261     312.1765      1.794     5.36     854.8904     55.05355     89.28387         8     0.991     0.820  54.98   0
        34    825.1509    973.2004 307.5688238  +6.2962516      2058.55     3564.917     3614.044     77.54543     155.8395     311.8967      1.742     4.25     854.9527     55.05355     311.0788        23     1.506     0.949  55.59   0
        35    773.3848    971.1212 307.5903889  +6.2953800     6371.544     10598.05     11318.43     77.91974     155.9639     312.1765      1.787     3.85     855.8382     55.05355     811.8799        40     1.574     1.195  57.51   0
        36    242.7870    970.1778 307.8107414  +6.2779878     1453.795     2401.909     2736.739     78.04411     156.0261     312.2386      1.618     5.13      856.191     55.05355     179.6331        20     1.483     0.937  55.35   0
        37    560.4347    970.3762 307.6788391  +6.2885621     854.0952     1175.425     742.9265     77.79517     156.0261     312.1143      1.597     4.60     858.3956     55.05355      121.462         8     1.116     0.539  56.45   0
        38    206.2249    969.4159 307.8259482  +6.2770736     808.7432     1383.202     1289.854     78.04411     156.0882     312.2697      1.829     4.95     855.9508     55.05355     128.3705         9     1.246     0.601  87.21   0
        39     67.7177    968.1446 307.8835006  +6.2729398     2624.015     4209.047     4632.694     78.29227     156.2124     312.3939      1.736     3.99     853.5003     55.05355     305.7587        24     1.405     0.995  55.92   0
        40    961.6330    966.2651 307.5123814  +6.3036710     5970.428     10702.95     11148.28     78.16829     156.2124     312.3007      1.912     4.57     852.9631     55.05355     701.5411        43     1.757     1.230  48.38   0
        41    217.6204    962.1243 307.8214618  +6.2804663     516.3698     926.3968     620.1404     77.91974     156.0261     312.2697      1.680     3.46     855.8508     55.05355     80.16675         5     0.776     0.446 -72.55   0
        42    935.4503    957.9809 307.5235304  +6.3062169     1808.886     3127.305     3046.539     77.79517     156.2745     312.1454      1.844     5.22     853.3747     55.05355     214.4558        22     1.481     1.020  59.85   0
        43    655.9832    953.8802 307.6397162  +6.2985703     4366.902     7143.496     7465.938     77.91974     155.9017     312.2075      1.714     3.85     857.4538     55.05355     554.6976        32     1.577     1.039  49.24   0
        44    268.3243    954.0949 307.8006785  +6.2854842     4174.304     6865.657     7430.835     77.91974     156.3986     312.3628      1.715     4.02     856.2574     55.05355     558.8024        32     1.579     1.043  48.91   0
        45    794.8837    954.1124 307.5820303  +6.3031195     1188.071     1827.642     2196.921     78.04411     156.3986     312.3628      1.695     5.47     854.8687     55.05355     186.6716        16     1.387     0.838  44.37   0
        46    477.9930    952.2077 307.7136811  +6.2932991      1045.72     1606.373     1961.328     77.67039     156.0261     312.2075      1.566     5.48      858.082     55.05355      139.069        14     1.359     0.782  40.84   0
        47     36.8720    951.2534 307.8968769  +6.2788735     1897.439     3312.149      3198.17     78.16829     156.1503     312.2697      1.796     4.45     852.6243     55.05355     293.2452        24     1.487     1.015  59.87   0
        48    888.0138    950.1627 307.5434898  +6.3078607     777.1141     1416.253     1399.025     77.79517     156.0261     312.0522      1.922     6.10     853.7471     55.05355     107.2365        10     1.378     0.758  40.90   0
        49    959.2194    947.2869 307.5140172  +6.3114244     807.3719     1330.479     926.8225     78.04411     155.9639     312.2075      1.692     5.87     852.6499     55.05355     118.6069        11     1.169     0.830  62.58   0
        50    304.3473    947.6441 307.7859376  +6.2893568     838.7139      1246.43     1682.651     78.29227     156.2124     312.3318      1.773     3.92     856.7206     55.05355     155.9107         8     1.192     0.610  47.81   0
        51    580.5857    946.3605 307.6712765  +6.2991502     1602.285     2445.392     2344.456     77.79517     156.0261     312.0832      1.651     4.48     857.7906     55.05355     222.3578        18     1.451     0.798  46.25   0
        52   1012.0189    945.7482 307.4921430  +6.3138207     755.6755     1385.561     1238.183     77.79517     156.2745     312.1454      1.819     6.02     851.5807     55.05355     107.1722         9     1.225     0.833   6.43   0
        53    619.9843    942.5312 307.6550447  +6.3020500     1326.719     1911.522     1862.595     77.79517     156.1503     312.2386      1.611     6.35     857.5101     55.05355     162.7231        15     1.334     0.848  35.28   0
        54     69.4945    942.9029 307.8836130  +6.2834185     811.9321     1313.788     1519.074     78.29227     156.7702     312.1765      2.001     4.99     853.0676     55.05355     121.2866         8     1.245     0.809  13.54   0
        55    299.8435    940.5238 307.7880470  +6.2921446     1469.387     2229.228     2910.582     78.16829     156.2745     312.3628      1.796     4.17      856.628     55.05355     195.1538        15     1.197     0.886  46.63   0
        56    766.6097    936.5483 307.5943586  +6.3094246     967.4144     1243.692     1143.586     77.67039     156.0882     312.0832      1.635     5.55     855.0693     55.05355     146.4547        11     1.463     0.594  45.97   0
        57    904.3126    933.1359 307.5372903  +6.3154333     6383.365     10677.72     11295.76     78.29227     156.3986     312.3628      1.811     4.04     853.1658     55.05355     760.1877        39     1.658     1.125  54.17   0
        58    142.0681    934.6752 307.8537561  +6.2892563     597.7075     664.0121     259.6397     78.41605     156.3366     312.3318      1.312     4.44     854.5358     55.05355     89.41193         7     1.058     0.530  67.29   0
        59    113.6404    932.3697 307.8656375  +6.2892517     575.8961     774.9263     670.4072     77.79517     155.9639     312.1454      1.643     6.39     853.8032     55.05355      97.0816         7     1.424     0.804  71.93   0
        60    440.1674    930.2057 307.7301259  +6.3011128     2221.451     3598.954      3601.28     77.67039     156.0261     312.1454      1.677     4.26     857.2371     55.05355     268.0367        20     1.391     0.875  51.95   0
        61    341.8115    928.6730 307.7710186  +6.2984453     9655.928      15111.1     16330.87     77.79517     155.8395     312.1765      1.694     3.80     856.7648     55.05355     1283.362        38     1.544     1.075  57.10   0
        62    608.5331    930.3870 307.6602066  +6.3066796     532.0333     707.0501     741.4213     77.79517     156.0261     312.2386      1.596     4.15     857.3475     55.05355     97.38007         5     1.212     0.405 -56.37   0
        63    261.8974    927.6873 307.8042348  +6.2961686      6914.91     11100.37     11531.77     78.29227     156.6465     312.3628      1.714     3.82     855.9279     55.05355     889.4886        34     1.521     1.057  54.93   0
        64    590.0524    922.1702 307.6681561  +6.3094525     1275.841     1724.527     1777.366     78.04411     156.3366     312.2697      1.461     3.89     857.2456     55.05355     152.1843        13     1.035     0.845  37.21   0
        65    774.2421    921.7026 307.5916857  +6.3158078     704.7194     1084.648     818.6931     78.29227     156.0882      312.549      1.674     5.25     854.6332     55.05355     96.25732         9     1.147     0.680  47.98   0
        66    920.0467    918.5875 307.5312424  +6.3219639     1039.365     1875.834     2279.598     77.67039     156.0261     312.0522      1.967     6.88      852.767     55.05355     130.4926        14     1.398     0.950  40.40   0
        67    876.8895    916.9694 307.5492182  +6.3211910     736.3367     1166.113     1347.574     78.41605     156.0261     312.2697      1.697     4.72     853.2137     55.05355     116.7477         8     1.006     0.628  25.33   0
        68    418.7127    916.3696 307.7394992  +6.3061044     576.9686     868.6512     1026.407     78.41605     156.0261     312.2697      1.545     5.37     856.7691     55.05355     78.45898         8     1.445     0.564  39.01   0
        69    756.2803    910.9980 307.5995026  +6.3196261     1682.773     2651.022     3138.194     77.67039      155.715     312.0832      1.682     4.10     854.8392     55.05355     285.2142        19     1.444     0.839  56.14   0
        70    579.7825    911.5378 307.6727770  +6.3134974     697.1705      1084.83     1258.614     77.91974     156.1503     312.1765      1.992     5.96     857.0869     55.05355     92.65808         9     1.157     0.864  48.70   0
        71    541.3140    907.2515 307.6888949  +6.3139781     1267.032     1828.057     1484.646     78.29227     156.0882     312.3939      1.572     4.15     857.3032     55.05355     187.7366        15     1.175     0.915  78.51   0
        72      6.6022    908.5399 307.9108847  +6.2954848     912.3259     1311.876     1635.844     77.67039     155.9017     301.5568      1.601     5.90     851.5424     55.05355     112.6447        11     1.198     0.817  52.30  16
        73    987.7592    906.8336 307.5035159  +6.3290751     1081.864     1961.036     2409.849     78.04411     156.2124     312.1765      2.029     5.14     851.1392     55.05355      150.574        16     1.313     1.080  39.90   0
        74    631.8748    907.0641 307.6512951  +6.3170882     685.7545     691.5038     311.9569     78.41605     156.2124     312.3007      1.344     5.93     856.5947     55.05355     89.46802         8     1.270     0.779  27.47   0
        75    619.9943    907.7412 307.6562059  +6.3164110     759.3748     1145.219     866.1199     77.79517     156.0882     312.1143      1.580     5.15     856.6806     55.05355      96.3551        10     0.963     0.778  87.21   0
        76    965.7038    903.6442 307.5127813  +6.3296559     582.9267     1276.294     846.8572     78.29227     156.1503      312.487      1.976     7.56     851.5657     55.05355     94.63885        11     1.826     0.875  65.45   0
        77    674.9700    904.6287 307.6334809  +6.3195357     2576.076     3719.782     4313.884     77.79517     155.9639     312.0832      1.588     3.91     856.3107     55.05355     338.9627        20     1.325     0.923  51.76   0
        78    952.7875    899.8725 307.5182710  +6.3307818     815.8276     1363.205     1188.327     77.79517     155.8395     312.1454      1.758     6.11     851.7836     55.05355     103.8777        12     1.486     0.705  64.91   0
        79     89.0175    899.9410 307.8769535  +6.3018086     1872.516     3035.968     3088.368     77.91974     156.0882     312.0832      1.683     4.54     852.6809     55.05355      253.032        22     1.477     0.954  57.94   0
        80     71.4166    900.6263 307.8842388  +6.3009334     2781.806     4564.896      4542.65     77.91974     156.0261     312.2386      1.758     4.18     852.4359     55.05355     371.0233        24     1.445     1.032  61.40   0
        81    835.6602    901.0491 307.5668715  +6.3263856     770.2037     1033.531     1305.652     78.29227     156.1503     312.3939      1.573     4.61     853.5645     55.05355     102.6714         8     1.097     0.549  32.20   0
        82    215.0291    899.5236 307.8246432  +6.3062188     2132.398     3367.362     3512.841     78.16829     156.2745     312.3628      1.663     3.70     854.9431     55.05355       271.37        21     1.364     0.912  51.79   0
        83    353.9051    895.8581 307.7670990  +6.3123964      767.767     1398.879     1501.654     78.16829     156.2124     312.4559      2.048     4.74     856.0742     55.05355     131.4722         9     1.253     0.508  56.45   0
        84    248.8746    896.5455 307.8106893  +6.3085855     956.9062     1378.334     1352.647     78.16829     156.2124     312.3318      1.666     4.12     855.3442     55.05355     121.0084        11     1.055     0.733  45.69   0
        85    669.5059    893.7425 307.6361145  +6.3238465     6885.905     10596.74     11449.41     78.16829     156.2124      312.487      1.683     4.02     856.1212     55.05355     945.7217        33     1.535     1.000  54.54   0
        86    807.1442    894.1118 307.5789453  +6.3282965     674.5033     1126.231     1233.519     78.29227     156.0882      312.487      1.948     6.26     853.8626     55.05355      99.4151        11     1.367     0.804  51.94   0
        87     42.7274    890.8732 307.8964799  +6.3039934      1139.07     1910.793     1530.331     78.53963     156.3366     312.3939      1.749     6.32     851.9211     55.05355     178.6786        14     1.531     0.761  55.06   0
        88     29.3563    891.7114 307.9020037  +6.3031972     1208.467     1923.257       1895.6     78.29227     156.1503     312.3628      1.611     4.99     851.7468     55.05355     167.4439        15     1.451     0.805  63.28   0
        89    907.1874    889.9124 307.5375403  +6.3333713     2629.686     4210.383      4675.37     77.91974     155.9639     312.2386      1.747     4.51     852.5235     55.05355     329.4846        26     1.563     1.011  48.05   0
        90    781.7960    890.0391 307.5896078  +6.3291305     580.1642     835.4709     594.2697     77.42025     155.9639     312.0832      1.488     3.09     854.1832     55.05355      105.482         5     0.787     0.495  37.13   0
        91    352.5452    886.9174 307.7679641  +6.3160413      16399.1     25239.74     26874.04     78.29227     156.2124     312.3939      1.673     4.05     855.8651     55.05355     2221.802        43     1.523     1.100  56.97   0
        92     87.2778    887.7014 307.8780880  +6.3068021     1303.803     2063.995     2190.843     77.91974     156.4606     312.3628      1.649     4.65     852.4437     55.05355      181.874        15     1.273     0.843  77.81   0
        93    223.5934    886.6620 307.8215195  +6.3118155     1299.246     2007.042     1893.636     77.67039     156.0261     312.1143      1.653     4.17     854.9706     55.05355     192.7052        14     1.260     0.802  44.18   0
        94    403.1713    885.9904 307.7469726  +6.3181228     514.8787     1042.425     660.7303     77.91974     156.0261     312.1765      1.618     5.28     856.1202     55.05355     96.12244         8     1.540     0.510  50.66   0
        95    681.7341    878.9443 307.6315320  +6.3303641     717.0032     918.9473     826.7006     78.41605     156.0882     312.3318      1.323     3.12     855.6232     55.05355     111.9694         7     0.748     0.659  73.46   0
        96    430.2637    877.8480 307.7359956  +6.3223926     1061.797     1593.756     1375.516     78.16829     156.0882     312.3628      1.678     4.59     856.2219     55.05355     148.5418        14     1.258     0.811  57.78   0
        97    115.7705    877.5058 307.8666002  +6.3119693     1796.818     2531.549     2099.844     78.41605     155.9639     312.2386      1.520     3.99     852.8891     55.05355     248.5104        16     1.256     0.823  42.04   0
        98    684.1546    873.7318 307.6307013  +6.3325967      746.049      1288.35     1999.293     78.29227     156.1503     312.3628      1.586     6.41      855.483     55.05355     121.4066        12     1.813     0.637  54.57   0
        99    897.7204    871.7419 307.5420787  +6.3405558     1875.603     3134.353      2999.65     78.29227     156.2124     312.3007      1.757     4.73     852.4381     55.05355     241.7369        22     1.527     0.940  58.52   0
       100    511.0860    874.2042 307.7025554  +6.3266064     629.8311     929.7813     1189.265     77.79517     155.8395     312.0522      1.529     3.01     856.8336     55.05355     107.5101         5     0.824     0.647  42.97   0
       101    831.6600    870.5045 307.5695537  +6.3388604     2774.022     4458.565     4773.161     78.16829     156.2124     312.4249      1.704     4.02     853.4068     55.05355     402.8471        27     1.649     0.900  52.87   0
       102     99.4519    871.1920 307.8735889  +6.3140263      2387.18     3779.452     4385.735     77.79517     156.0882     312.0211      1.809     4.50     852.3029     55.05355     294.8703        21     1.503     0.886  60.58   0
       103    868.3779    871.0867 307.5542860  +6.3398465     1983.122     3143.096     3176.768     78.29227     156.0261     312.1765      1.731     4.70     852.9404     55.05355     263.3892        17     1.311     0.840  55.60   0
       104    567.6393    862.1229 307.6794757  +6.3334881     335376.8     511236.7     538477.5     78.16829     156.2124     312.3318      1.652     3.79       856.16     55.05355     44839.75       171     1.745     1.276  54.98   0
       105    347.1760    868.9544 307.7707970  +6.3232756      644.576     995.6347     1358.785     77.91974     156.2124     312.2075      1.505     5.50     855.4438     55.05355     96.07373         9     1.332     0.640  61.92   0
       106    655.5234    865.1514 307.6428784  +6.3351804     1269.708       1989.9     2569.951     78.16829     156.2745     312.3318      1.722     4.79     855.4888     55.05355     201.1066        15     1.430     0.706  68.24   0
       107    411.9057    864.7042 307.7440601  +6.3272022     7809.202     11935.89     12473.64     78.29227     156.8321     312.2697      1.644     3.78     855.7783     55.05355     1077.057        35     1.516     1.006  53.64   0
       108    355.1248    863.0589 307.7676943  +6.3259760     12359.19      18971.8     19951.44     78.41605     156.2124     312.3007      1.627     3.87     855.3309     55.05355     1611.386        44     1.522     1.128  55.45   0
       109    905.9976    858.0986 307.5390971  +6.3464639     4998.215     8323.401     8706.009     77.79517     155.9639     312.0211      1.746     4.05     852.0959     55.05355     638.9387        36     1.578     1.114  53.56   0
       110    673.4657    859.1968 307.6356268  +6.3382388     3489.589     5462.383     5478.754     77.54543     155.9639     312.1143      1.648     4.24     855.3777     55.05355     469.2567        25     1.435     0.963  46.50   0
       111    745.6465    856.6351 307.6057373  +6.3417106      705.309     1270.984     1642.396     77.91974     156.1503     312.2075      1.826     4.62     854.2376     55.05355     115.1759         8     1.209     0.502  46.40   0
       112    648.3122    853.4193 307.6462659  +6.3397819     3428.425     5121.961     5565.056     78.04411     155.9639     312.2386      1.648     4.31     855.3015     55.05355     429.5007        27     1.540     0.939  56.25   0
       113    836.6121    852.2404 307.5681077  +6.3465650     1605.511     2577.431     2636.895     77.67039     156.0261     312.0832      1.804     5.01      853.197     55.05355     206.2892        16     1.349     0.834  56.18   0
       114    757.8045    853.1801 307.6008039  +6.3435433     535.2635     609.5551      547.105     77.91974     155.9017     312.1454      1.312     3.41     854.0671     55.05355     81.75787         5     0.981     0.342  45.76   0
       115    638.7142    852.5074 307.6502823  +6.3398371      1053.42     1616.297     2338.025     78.16829     156.6465     312.4249      1.804     4.02     855.3099     55.05355     196.0901        12     1.297     0.729  46.62   0
       116    964.0565    851.6078 307.5152027  +6.3510809      683.326     1161.738     1314.584     77.67039     156.0882     312.0832      1.634     3.95     850.5304     55.05355     113.3458         7     0.959     0.593  57.50   0
       117    641.2480    847.8681 307.6493855  +6.3418369     2184.927     3291.561     3754.101     78.29227     156.1503     312.3318      1.593     3.58     855.2285     55.05355     302.5007        19     1.282     0.882  52.85   0
       118    335.2414    846.9538 307.7764921  +6.3319563     1048.843     1768.377     1832.886     78.16829     156.2124     312.1765      1.692     4.76     854.9121     55.05355     153.3083        12     1.376     0.928  56.08   0
       119    924.8336    846.1177 307.5316749  +6.3520382     2885.879     4916.077     4936.219     78.29227     156.1503     312.3007      1.797     4.00     851.4548     55.05355     373.2134        25     1.486     1.009  49.89   0
       120    382.8914    842.0302 307.7568700  +6.3355880     2869.292     4184.222     4547.486     78.41605     155.9639     312.3007      1.495     3.58     854.9417     55.05355     379.6633        22     1.375     0.886  55.38   0
       121    585.1180    839.5632 307.6729734  +6.3433857     2308.015     2193.823     2390.552     78.29227     156.2124     312.3007      0.661     0.46     855.2239     55.05355     1200.818         5     0.552     0.319 -84.26   0
       122    519.1398    831.8749 307.7006305  +6.3443489      3081.42     4740.778     5191.311     78.53963     156.2124     312.3007      1.611     3.92     854.9338     55.05355     438.8636        24     1.530     0.860  52.25   0
       123    863.8832    831.0858 307.5574894  +6.3562082      1020.77     1686.213     1983.523     78.04411     156.3986     312.4249      1.757     5.58     852.8014     55.05355     123.9363        13     1.180     0.833  48.15   0
       124    583.9880    829.5244 307.6737791  +6.3474917      822.394     1209.668     1049.236     77.91974     155.9017     312.1454      1.712     4.72      854.925     55.05355     126.2305         7     1.038     0.610  54.87   0
       125    566.0495    827.8862 307.6812836  +6.3475671     6174.379     9211.521     10170.75     78.29227     156.1503     312.3939      1.579     3.68     854.7974     55.05355     819.6012        29     1.442     0.979  56.19   0
       126    277.6272    827.8702 307.8010586  +6.3378986     875.9307     1379.888     863.6949     77.91974     156.0882     312.2697      1.682     5.92     854.4388     55.05355     115.4592        13     1.353     0.847  57.52   0
       127    573.0466    827.4891 307.6783911  +6.3479653     1161.065     1684.197     1620.605     78.29227     156.0882     312.4559      1.535     5.40     854.7867     55.05355      167.738        11     1.316     0.626  48.98   0
       128    483.7505    826.9241 307.7154930  +6.3452063     1576.009     2312.896     1969.709     78.16829     156.2745     312.3318      1.564     3.77     854.6654     55.05355     210.0289        18     1.277     0.875  52.50   0
       129    901.9362    826.1343 307.5418516  +6.3595228     1377.911     2136.612     1842.049     78.29227     156.2124     312.3318      1.589     4.10       851.69     55.05355     194.4368        15     1.150     0.900  37.86   0
       130    125.3771    825.9093 307.8643482  +6.3335897     1390.753      2028.95     1892.652     78.29227     156.0261     312.1765      1.600     5.37     851.8882     55.05355     159.0388        16     1.308     0.873  69.19   0
       131    701.4399    824.8821 307.6251584  +6.3533392      693.457     1050.283     1170.802     78.29227     156.2745     312.2697      1.734     4.75     854.4597     55.05355     108.0344         7     1.078     0.594  40.13   0
       132    536.7721    821.7994 307.6936460  +6.3490987      19631.6     29895.32     31574.43     77.79517     155.9639     312.1454      1.633     3.81      854.397     55.05355      2864.94        51     1.565     1.081  52.23   0
       133    377.8874    823.2075 307.7595802  +6.3431896     699.6861      977.025      583.264     77.79517     155.9017     312.0832      1.386     3.82     854.4069     55.05355     130.0671         5     0.809     0.517  48.51   0
       134    950.3497    820.0782 307.5219478  +6.3636386      3717.63     5707.108     6093.583     78.29227     156.2745     312.3318      1.619     3.70      850.382     55.05355     476.3286        27     1.412     1.016  51.32   0
       135     70.2464    817.4096 307.8875278  +6.3352429     726.2172      879.392     1115.164     77.79517     156.0882       311.99      1.437     4.41     850.4133     55.05355     101.5997         7     0.929     0.595  53.68   0
       136     47.2777    812.2158 307.8972407  +6.3366135     1582.444     2534.491      2680.56     77.91974     155.9639     312.2075      1.694     4.60     850.1532     55.05355     210.0344        17     1.394     0.767  53.96   0
       137    329.3043    810.5019 307.7801823  +6.3468033     3422.145     5053.979     5483.368     78.29227     156.7702     312.1765      1.603     4.22     854.0787     55.05355     468.4282        22     1.410     0.877  56.94   0
       138    794.9107    806.3149 307.5869617  +6.3641289     54348.95     84075.13     88715.05     78.04411     156.4606     312.4559      1.669     3.76     853.0845     55.05355      6998.18        72     1.639     1.152  52.90   0
       139     29.0744    808.4026 307.9049282  +6.3375745     2156.411     3307.754      3374.23     77.79517      155.715     312.2075      1.617     3.93     849.9607     55.05355     287.6213        21     1.342     0.920  52.08   0
       140    437.9336    804.8289 307.7352613  +6.3527903     979.6696     1407.512     977.6759     78.04411     156.1503     312.2697      1.672     5.71     853.7824     55.05355     138.4099        11     1.268     0.839  67.60   0
       141    252.1861    804.2173 307.8124188  +6.3468071     4993.998     8158.757     10316.66     78.04411     155.9017     312.2697      1.941     3.88     853.9506     55.05355      658.002        32     1.500     1.083  43.94   0
       142    920.1779    801.6122 307.5350950  +6.3702541     8135.497     13194.03     13970.48     77.91974     156.0261     312.2386      1.735     3.90     850.6752     55.05355      1070.81        37     1.593     1.050  54.92   2
       143    917.1097    792.9957 307.5366571  +6.3737085     6521.653     10449.48     11405.53     77.79517     155.9017     312.0522      1.696     3.99     850.6222     55.05355     910.1699        35     1.625     1.006  55.15   2
       144    723.1555    800.8083 307.6169459  +6.3640028     21249.89     33630.01     36569.17     77.79517     156.0882     312.0522      1.682     3.84     853.9036     55.05355     2747.525        52     1.710     1.059  58.23   3
       145    716.8636    797.4162 307.6196724  +6.3651926      87381.6     133844.1     141183.6     77.79517     156.1503     312.1765      1.664     3.77     853.8518     55.05355     11862.95        85     1.680     1.152  57.33   3
       146    361.6994    798.3201 307.7671386  +6.3529191     20920.86     31832.01     33877.02     78.16829     156.5845     312.3628      1.652     3.81     853.7202     55.05355     2829.353        49     1.588     1.053  54.56   0
       147    423.6118    796.1329 307.7415009  +6.3558994     22160.91     33761.29     35534.95     77.79517     156.0261     312.2386      1.625     3.84      853.576     55.05355     3032.649        48     1.546     1.077  53.06   0
       148    410.8609    798.5252 307.7467158  +6.3544842     1504.949     2038.601     2078.642     78.53963     156.2124     312.3318      1.514     4.40     853.7354     55.05355     190.4644        14     1.280     0.734  51.10   0
       149    251.7607    782.7525 307.8133172  +6.3556528     756070.4      1757069      1959611     78.16829     156.2124     312.1454      2.317     6.67     853.2978     55.05355     63921.76       602     2.509     2.053  60.27   4
       150    889.7457    793.5278 307.5480038  +6.3725753      809.191     1111.158      1145.34     78.16829     156.0882     312.2697      1.445     4.57     851.5821     55.05355      116.941         8     0.961     0.792  40.02   0
       151    657.5289    792.0175 307.6444948  +6.3654359      6426.32     9951.535     10603.06     77.79517     156.1503     312.2697      1.647     3.87     853.9814     55.05355     860.7513        34     1.535     0.988  53.78   0
       152    446.2726    790.0823 307.7322932  +6.3591571     1895.564     2696.146     2350.158     78.53963     156.5226     312.3628      1.536     3.99     853.2227     55.05355     252.9808        17     1.315     0.768  46.70   0
       153    171.2431    789.6968 307.8465206  +6.3500798     705.9152     1136.781     411.5363     78.29227     156.1503      312.487      1.752     6.30     852.4653     55.05355      109.662        11     1.398     0.796  49.51   0
       154    610.8377    783.9820 307.6641549  +6.3671898     728.4614     1216.276     1753.971     77.91974     156.0882     312.0832      1.708     4.83      853.659     55.05355     119.7696         8     1.328     0.498  78.75   0
       155    692.6526    782.1494 307.6302384  +6.3706846     2420.006     3638.677     4429.204     78.41605     156.0882     312.3628      1.664     4.39     853.4333     55.05355     333.7488        19     1.452     0.841  53.07   0
       156    161.8564    783.0521 307.8506423  +6.3525068     894.7262     1413.268     1296.535     78.29227     156.2124     312.3007      1.638     4.77      851.952     55.05355     122.1719        12     1.254     0.704  74.96   0
       157    136.8920    782.6763 307.8610220  +6.3518222     1011.875     1679.472     1511.463     78.16829     156.3986     312.3318      1.731     4.87     851.1689     55.05355     139.1979        12     1.183     0.730  63.22   0
       158    885.5171    783.1534 307.5501067  +6.3767165     564.9563     868.0932     947.1755     78.29227     156.2124     312.3318      1.747     4.21     851.4518     55.05355     89.17505         6     1.092     0.464  31.97   0
       159    426.5345    778.8133 307.7408685  +6.3631466     53770.96     82528.63     87205.25     77.79517     156.0261     312.2386      1.656     3.92     852.9882     55.05355     7782.557        74     1.624     1.181  53.00   0
       160    969.5155    779.9848 307.5153269  +6.3808281     580.2418     1000.169     1319.422     77.91974     155.9639     312.2386      1.806     4.37     849.5381     55.05355      78.2525         8     1.174     0.463  79.97   0
       161    544.2908    777.7763 307.6919997  +6.3675224     7216.334     10517.44     10864.43     78.29227     156.0261     312.1765      1.600     3.75     852.5343     55.05355     1035.738        29     1.435     0.945  53.75   0
       162    461.0089    776.4219 307.7266318  +6.3652899     4617.297     6987.783     8396.004     77.91974     155.9639     312.1454      1.682     4.02     852.7161     55.05355     572.9083        30     1.500     1.024  46.65   2
       163    789.5499    774.4065 307.5902553  +6.3771210     11643.96     17919.34     19040.68     77.79517     156.0261     311.9589      1.700     3.86     852.4661     55.05355     1680.813        47     1.578     1.118  53.29   0
       164    650.3431    797.4939 307.6472957  +6.3629349     748.1028     1170.442     1170.506     78.16829     156.2124      312.518      1.452     5.19     854.2554     55.05355      117.267        10     1.071     0.778  50.97   0
       165    457.7043    769.8685 307.7282241  +6.3678842     2304.234     3433.407     3300.655     78.16829     156.3366     312.3628      1.629     3.86     852.5562     55.05355      333.381        19     1.385     0.810  48.33   3
       166     19.0257    770.6827 307.9103723  +6.3528054     1203.413     1865.359     1860.109     78.16829     155.9639     312.3318      1.742     5.73      849.665     55.05355     169.8535        12     1.219     0.759  43.80   0
       167    811.1942    768.7617 307.5814550  +6.3801745     1125.545     1687.695     1804.105     77.42025     155.9639     312.0832      1.507     3.72     852.1063     55.05355     201.6799        10     1.236     0.591  57.32   0
       168    155.3266    766.7418 307.8539030  +6.3590196     3050.721      4728.38     5109.312     78.41605     156.2124     312.3007      1.692     3.78     851.0314     55.05355     459.0081        23     1.354     1.004  43.83   0
       169    139.5781    757.4341 307.8607564  +6.3623318     1969.476     3072.495     3830.356     77.79517     156.0261     312.0832      1.721     3.96     850.3648     55.05355     309.0994        21     1.421     0.895  56.13   3
       170    147.2075    766.4231 307.8572854  +6.3588780     11422.05      17731.9     19364.41     77.79517     156.0261     312.1454      1.689     3.87     850.8213     55.05355      1578.76        41     1.525     1.106  50.80   3
       171    139.5459    763.8701 307.8605530  +6.3596741     2881.118     4675.061     5105.105     78.16829     156.1503     312.2697      1.763     4.09     850.6069     55.05355      400.323        25     1.512     0.953  46.49   3
       172    934.9982    763.0519 307.5302280  +6.3866660     6080.111     9939.331     10349.87     77.67039     155.8395     311.9278      1.718     4.02     849.6885     55.05355     818.9142        35     1.541     1.072  51.34   0
       173    984.1240    763.0098 307.5098264  +6.3883226     1489.153     2441.527     2952.222     77.91974     155.7772     312.1454      1.683     4.32     849.1659     55.05355     217.8944        17     1.318     0.865  53.35   0
       174    960.6877    795.1166 307.5184879  +6.3742874     1905.486     2971.416     2875.073     78.04411     156.3986     312.3628      1.633     3.90     849.8448     55.05355     229.3696        20     1.325     0.918  58.20   0
       175    690.5518    760.6450 307.6318309  +6.3794909     1661.728     2620.031     2952.549     78.29227     156.0882     312.3007      1.762     4.49     852.5535     55.05355     254.3278        17     1.344     0.859  60.78   0
       176    577.3414    760.0161 307.6788692  +6.3759607     2385.102     3607.554     3501.387     77.67039     156.1503     312.0832      1.626     3.99     852.1847     55.05355     369.8359        20     1.378     0.867  52.56   0
       177    425.4359    759.2040 307.7419831  +6.3712040      1124.08     1730.928     1594.308     77.42025     156.0882     312.1454      1.611     4.63     852.3296     55.05355     158.1232        15     1.491     0.703  64.22   0
       178    929.1526    755.0959 307.5329215  +6.3897550      3046.03     4819.839     4795.894     78.16829     156.0882      312.487      1.646     4.48     849.6315     55.05355      363.664        24     1.473     0.964  66.94   0
       179    709.1569    757.8838 307.6241964  +6.3812532     512.1317     795.0594      415.442     78.29227     156.2124     312.2697      1.554     4.70     852.6508     55.05355     74.15906         6     1.125     0.556  66.67   0
       180    989.3519    754.3856 307.5079431  +6.3920569     1835.099     2878.448      2747.69     77.67039     156.1503     312.0522      1.692     4.57     849.0029     55.05355     228.2061        20     1.440     0.884  61.61   0
       181    958.7362    754.5462 307.5206531  +6.3909692     2957.398     4738.282     4837.732     78.29227     156.1503     312.3007      1.705     4.40     849.3233     55.05355     353.5892        23     1.572     0.854  51.45   0
       182    681.7297    754.3391 307.6357060  +6.3817987     1478.545     2232.903     2046.532     78.41605     156.2124     312.3628      1.651     5.46     852.1296     55.05355     189.5632        16     1.425     0.813  56.60   0
       183    828.8779    752.3974 307.5746579  +6.3875203     1089.793     1633.952     1551.157     77.67039      155.715     312.1143      1.652     5.37     851.5331     55.05355     158.6151        12     1.396     0.583  65.26   0
       184    253.9699    749.3646 307.8135226  +6.3695086     1884.177     3073.196     3738.476     77.91974     155.9639     312.1765      1.873     5.72     852.1657     55.05355     249.5054        19     1.400     1.090  81.22   0
       185    903.9547    750.0977 307.5435538  +6.3909770     722.7668     1332.891     1689.339     78.29227     156.0882      312.518      1.789     6.04     850.1874     55.05355     106.0286        11     1.593     0.644  73.32   0
       186    690.9567    746.2707 307.6321440  +6.3854379     665.6375     1134.056     708.4759     78.16829     156.2124     312.3628      1.570     4.20     851.9247     55.05355     108.6932         7     1.159     0.434  56.99   0
       187    946.9377    744.7263 307.5258813  +6.3946290     989.0639     1467.878     1295.824     78.53963     156.2124     312.3318      1.636     5.19     849.3043     55.05355     152.8827        10     1.335     0.569  54.87   0
       188    920.6606    743.3868 307.5368396  +6.3943049     1150.778      1629.55     1760.824     77.79517     156.0882     312.0211      1.587     4.70     849.6399     55.05355     168.5521        11     1.243     0.665  67.36   0
       189    274.3535    744.5704 307.8052187  +6.3721724     705.8351     1061.914     901.1192     77.79517     156.3366     312.2386      1.414     5.00     852.0325     55.05355     128.0199         9     1.133     0.624  32.49   0
       190    169.4025    744.4730 307.8488070  +6.3686848     749.1849     1248.495     1096.582     77.79517     155.7772     312.1765      1.729     4.39      850.295     55.05355     112.7844         8     1.018     0.574  42.34   0
       191    973.4790    742.3181 307.5149384  +6.3965087     2547.886      3808.94     4060.835     78.41605     156.4606      312.518      1.612     4.12      849.011     55.05355     305.6696        18     1.300     0.838  50.74   0
       192    692.9935    741.3624 307.6314625  +6.3875321     911.7255     1500.407     1858.702     77.42025     155.9639     312.0832      1.668     5.40     851.7578     55.05355     140.3519        12     1.428     0.662  65.48   0
       193   1015.1841    735.4999 307.4978446  +6.4007143     1667.371      2592.74     2372.898     78.29227     155.9639     312.1143      1.688     4.57     848.5353     55.05355     211.6384        17     1.305     0.896  50.14  16
       194    484.2865    736.9200 307.7182902  +6.3823759     569.1887     856.4841     1011.676     78.04411     156.5226     312.4559      2.176     3.89     851.5754     55.05355     88.46338         5     1.329     0.326  40.52   0
       195    413.9023    736.9289 307.7475209  +6.3800117     633.2852     892.5434     891.2905     78.16829     156.3366     312.3318      1.305     3.53     851.6011     55.05355     134.2118         5     0.998     0.360  56.15   0
       196    816.5812    734.0541 307.5803784  +6.3946812     1175.468     1655.498     1836.164     77.79517     156.2124     312.1454      1.467     3.77     851.2155     55.05355     189.8115        12     1.123     0.705  47.84   0
       197    641.2749    735.0385 307.6531539  +6.3884118     679.2169     831.3927     813.7592     78.16829     156.2745     312.3939      1.409     4.98     851.1483     55.05355     100.8214         8     1.213     0.578  45.42   0
       198    903.0078    731.2838 307.5445757  +6.3987115     1549.811     2287.474     2478.306     77.91974     155.9017     312.1765      1.636     4.19     849.8402     55.05355     231.9513        16     1.250     0.943  34.11   0
       199    877.4989    726.7662 307.5553212  +6.3997246     1040.345     1601.625     1497.241     78.29227     156.0882      312.487      1.483     5.29     850.3142     55.05355     145.5898        11     1.123     0.703  45.17   0
       200    859.9738    722.7268 307.5627350  +6.4008067     1537.753     2136.866      1848.76     77.91974     156.0882     312.2386      1.528     4.14     850.5352     55.05355     233.3953        17     1.315     0.894  64.33   0
       201     58.8303    721.7154 307.8954926  +6.3743577     2348.478     3906.391     3956.594     78.29227     156.0261     312.2075      1.705     4.32     849.2133     55.05355     364.1177        21     1.482     0.861  47.03   0
       202    123.0529    720.7909 307.8688528  +6.3769009     861.7623     1649.941     1528.823     77.67039     156.0882     312.0522      2.092     6.87     849.1439     55.05355     118.9747        14     1.639     0.807  68.93   0
       203    714.1366    713.3304 307.6236198  +6.3998106     496.7097     871.3845     121.0265     78.29227     156.2124     312.3939      1.629     3.42     851.5574     55.05355     85.76154         5     0.798     0.425  17.42   0
       204    671.6359    710.3860 307.6413700  +6.3996040     6395.322     9716.418     10707.17     77.79517     156.0261     312.1143      1.657     3.83     850.8308     55.05355     960.1772        33     1.520     1.002  48.84   0
       205    540.6187    710.3601 307.6957855  +6.3952274     649.3541     977.5157     629.4215     77.91974     156.0261     312.0832      1.609     6.34     850.8589     55.05355     90.50403        11     1.515     0.745  66.08   0
       206    618.3981    709.4462 307.6635126  +6.3982099     1556.816     2343.898     2854.843     77.67039     155.9017     311.9589      1.636     4.79     850.8636     55.05355      219.652        17     1.455     0.779  52.62   0
       207    529.1035    709.4158 307.7005997  +6.3952313     838.7953     1041.693     1342.272     78.16829     155.9639     312.1454      1.606     5.22     850.8844     55.05355     121.1797         9     1.183     0.651  62.03   0
       208   1008.6873    705.7023 307.5015376  +6.4127977     2351.533     3827.787     3968.679     78.29227     156.6465     312.3628      1.691     4.06     848.3433     55.05355     329.9019        25     1.526     0.964  45.86   0
       209    134.6309    706.1299 307.8645383  +6.3833420     3653.248      5958.54      5797.67     78.16829     156.2124     312.3007      1.719     4.12     848.7389     55.05355     500.1854        29     1.460     1.053  58.24   0
       210    645.3938    705.9597 307.6524174  +6.4005528     2115.115     3307.997     3771.099     77.54543     155.9017     312.0211      1.680     4.27     850.8069     55.05355     258.9547        21     1.398     0.935  44.54   0
       211    321.0738    706.3790 307.7870995  +6.3895060     706.3814      914.383     1028.389     77.91974     156.0882     312.2697      1.393     4.82     850.0939     55.05355     99.51483         9     1.156     0.570  63.94   0
       212    788.4754    702.5005 307.5931070  +6.4067667     20288.77        30659     32059.78     77.79517     156.3366     312.2386      1.659     3.88        851.2     55.05355     3014.944        49     1.588     1.050  50.41   0
       213    918.4846    702.1939 307.5391196  +6.4112361     3540.095     5438.637     5695.032     77.79517     155.9017     312.1454      1.650     3.88     849.0938     55.05355     462.5483        24     1.412     0.925  45.81   0
       214    487.4721    703.0469 307.7181037  +6.3964648     1250.984     1576.921     1936.672     78.29227     156.2745     312.3318      1.461     3.51     850.9083     55.05355     250.9921        14     1.235     0.737  44.86   0
       215    470.4791    703.7898 307.7251363  +6.3955884     437.3391      672.567     428.2597     77.91974     155.9639     312.1765      1.641     5.51     850.9214     55.05355     75.22662         6     1.288     0.666  51.82   0
       216    515.8126    702.2680 307.7063594  +6.3977363     968.0259     1703.325     1886.952     77.79517     156.0882     312.2386      1.924     4.24     850.8121     55.05355     161.2154        11     1.236     0.661  46.62   0
       217    257.1606    706.6087 307.8136354  +6.3872642     578.5925     961.5091     715.8271     77.67039     156.0261     312.0832      1.321     4.10     850.0669     55.05355     104.0522         6     0.769     0.626  46.87   0
       218    289.8971    702.1808 307.8001885  +6.3901918     705.5646     856.0541     543.1249     78.16829     156.0882     312.0832      1.402     4.99     849.8782     55.05355     105.1768         8     1.088     0.648  48.99   0
       219    558.8605    701.0263 307.6885222  +6.3996914     488.6378     497.1914     545.0624     77.91974     156.2124     312.2075      1.258     4.37     850.7324     55.05355     77.52911         5     1.071     0.507  52.88   0
       220    668.9921    695.2335 307.6429756  +6.4057702     6998.537     10588.09     11752.46     77.79517     156.0261     312.1454      1.599     3.78     850.6677     55.05355     986.8524        28     1.489     0.900  60.31   0
       221    261.9704    696.0875 307.8119917  +6.3917687     6308.853     9544.685     10149.82     78.41605     155.9639     312.2386      1.618     3.75     849.4611     55.05355     792.7996        31     1.493     0.964  56.69   0
       222    651.5768    696.5172 307.6501657  +6.4046575     907.6423     1648.503     2562.796     78.16829     155.9639     312.2697      2.199     4.87      850.699     55.05355     134.7694         9     1.172     0.572  48.27   0
       223    364.5432    695.1172 307.7694245  +6.3956140     687.3942     979.7606     986.2314     78.29227     156.2124     312.4249      1.762     5.16     849.7061     55.05355     93.54156         8     1.406     0.536  58.24   0
       224    928.8348    687.8961 307.5352984  +6.4174836     1132.723     1586.722     1238.631     78.41605     156.0882      312.487      1.468     5.27     848.7268     55.05355     174.7418        10     1.273     0.617  53.50   0
       225    740.7632    683.6678 307.6135538  +6.4129454      3582.45     5704.245     6006.505     78.16829     156.2124     312.4249      1.667     3.81     851.1132     55.05355     498.4122        26     1.512     0.898  62.69   0
       226    695.9521    684.1277 307.6321501  +6.4112566     1033.096     1498.943     715.7836     78.29227     156.2745     312.3628      1.440     5.30     850.7545     55.05355     143.2131        12     1.416     0.589  49.70   0
       227   1007.0403    680.2542 307.5030711  +6.4232475     8524.974     13317.92     14087.82     78.16829     156.2124     312.3318      1.672     4.07     848.1339     55.05355     1111.951        33     1.548     1.019  53.76   0
       228      6.3569    682.1550 307.9186178  +6.3889196     613.1624     816.3955     928.9582     78.29227     156.2124     299.5237      1.382     4.49     848.8646     55.05355     94.78998         7     1.282     0.446  43.53  16
       229    945.5176    680.7063 307.5286094  +6.4210083     2405.544     3534.448     3741.091     78.04411     156.4606     312.4559      1.596     4.07     848.5288     55.05355      325.202        21     1.407     0.875  45.99   0
       230     26.3541    679.9926 307.9103859  +6.3904857     1815.538     2956.337     3042.061     77.79517     156.0261       311.99      1.752     3.80     848.5832     55.05355     264.6199        19     1.305     0.904  50.93   0
       231    559.8110    678.4005 307.6888862  +6.4090627     552.6238     859.3081     1067.703     77.91974     155.9017     312.1454      1.550     3.61     850.4235     55.05355     81.06738         5     0.979     0.382  84.63   0
       232    442.9953    678.4600 307.7374011  +6.4051222     641.0181     769.1245     912.3606     77.67039     156.0882     312.1143      1.369     4.32     850.2909     55.05355     113.4388         7     1.101     0.539  60.18   0
       233     84.3848    675.0990 307.8864506  +6.3944596      25474.3     39079.34     41115.65     78.29227     155.9639     312.0522      1.650     3.90     847.6902     55.05355     3367.886        57     1.603     1.129  51.28   0
       234    545.6983    676.0483 307.6948265  +6.4095608     1944.171     2853.413     2712.462     78.29227     156.1503      312.518      1.575     4.66     850.3779     55.05355      286.704        15     1.311     0.733  53.48   0
       235    514.4866    673.3848 307.7078790  +6.4096142     1490.562     2250.546     2158.221     77.91974     155.9639     312.2386      1.638     5.18     850.3352     55.05355     230.1478        14     1.440     0.656  57.81   0
       236    935.7222    672.5899 307.5329490  +6.4240317     900.8882     1665.316     1787.842     77.91974     155.9017     312.2075      1.806     6.79     848.4919     55.05355     158.7892        15     1.963     0.659  45.68   0
       237    554.6932    669.7064 307.6913032  +6.4124799     1054.389     1401.142     1730.659     78.29227     156.7084     312.3007      1.458     4.70      850.232     55.05355     144.5527        11     1.160     0.773  50.22   0
       238    730.2914    667.2590 307.6184524  +6.4193684     3584.282     5034.041     5066.207     78.16829     156.1503     312.4559      1.546     3.95     850.5862     55.05355     517.7393        24     1.441     0.950  54.57   0
       239    752.4208    665.6368 307.6093154  +6.4207781     4143.278     5993.196     5466.208     77.91974     155.9639     312.0832      1.606     3.81     850.5883     55.05355     607.8202        23     1.381     0.874  56.69   0
       240    583.8705    663.4474 307.6793947  +6.4160410     3372.424      4896.09      5586.01     78.29227     156.1503     312.3318      1.589     3.72     850.0477     55.05355     428.8719        23     1.388     0.936  58.13   0
       241    419.8319    664.1781 307.7475010  +6.4102403     1295.319     1843.795     1783.404     77.79517     156.0261     312.1454      1.431     5.06     849.7292     55.05355     179.2028        10     1.130     0.642  50.71   0
       242    327.9897    662.4591 307.7857033  +6.4078672     1438.855     2287.725     2472.606     77.67039     156.0882     312.0522      1.745     4.92     848.0799     55.05355      182.218        18     1.367     0.985  67.95   0
       243    244.4692    662.9273 307.8203754  +6.4048681     1824.296      2870.83     2973.636     78.41605     156.3366     312.3318      1.703     3.64      847.795     55.05355     288.9054        19     1.336     0.880  50.70   0
       244   1023.8079    661.0539 307.4967475  +6.4317324     1801.091     2290.743     2270.132     65.91729     121.7368     232.4277      1.139     3.01     847.3474     55.05355     487.3138         9     1.197     0.394  89.43  24
       245    990.6997    660.5656 307.5105155  +6.4308297     7900.091     12176.74     12664.58     78.29227     156.0882      312.487      1.679     3.74     847.6066     55.05355      1047.34        37     1.549     1.047  45.76   0
       246    710.2216    659.3000 307.6270547  +6.4219825     1115.013     1732.381      1981.32     78.29227     155.9639     312.1143      1.670     5.91     850.2406     55.05355     157.0416        13     1.237     0.795  44.32   0
       247    102.2879    657.7814 307.8795987  +6.4022103     893.0141     1431.888     1729.508     78.04411     155.9639     312.2386      1.865     4.80     847.1057     55.05355     152.9764         9     1.425     0.458  33.26   0
       248    435.9701    655.0659 307.7411043  +6.4145430     2854.234     4496.561      4933.93     78.04411     156.2124     312.2696      1.697     4.13     849.4234     55.05355     357.7078        22     1.467     0.845  52.58   0
       249    149.1428    654.0144 307.8602661  +6.4053417     24037.69     37077.29     38719.85     77.67039     156.0882       311.99      1.627     3.86     847.2763     55.05355     3113.338        53     1.577     1.104  53.40   0
       250    817.2012    654.3751 307.5827857  +6.4275923     1187.342     1699.347      1366.73     77.91974     155.9017     312.1143      1.446     3.76     849.9125     55.05355      201.319        13     1.233     0.670  61.78   0
       251    652.4431    653.6801 307.6512410  +6.4223688     474.0746     558.2538     90.38548     78.29227     156.2124     312.3007      1.467     4.86     849.9083     55.05355     88.01117         5     1.300     0.515  44.57   0
       252    368.3744    648.6826 307.7693933  +6.4149097     814.7414     1147.776     1433.586     78.16829     155.9639     312.3318      1.607     5.00      848.005     55.05355     121.9078        10     0.934     0.843  52.31   0
       253    610.6065    648.3174 307.6687973  +6.4231818     572.7952      709.376     593.3077     77.91974     155.9017     312.1765      1.191     3.86     849.6774     55.05355     114.6746         6     0.882     0.483  49.24   0
       254    985.6288    643.6246 307.5131874  +6.4376536     6743.192     11032.33     12740.67     77.79517     156.0882     312.1765      1.807     4.04     846.8651     55.05355     932.1727        38     1.737     0.975  51.21   0
       255     29.9761    642.7770 307.9101362  +6.4059689     1302.785     1988.792      1613.39     77.79517     156.0882     312.3007      1.542     3.87     847.6019     55.05355     210.2743        15     1.171     0.865  55.77   0
       256    579.1431    638.8510 307.6821828  +6.4260355     48668.44     73039.43     76435.38     78.29227     156.2124     312.3318      1.610     3.85     849.1909     55.05355     6384.251        71     1.619     1.112  54.70   0
       257    449.7025    642.5460 307.7358210  +6.4201716     430.0313     490.4753     335.9371     78.16829     156.2124      312.549      1.219     5.34     848.9753     55.05355     78.05267         5     1.035     0.777  -3.30   0
       258    943.2114    639.5189 307.5309431  +6.4379329     628.4807     884.4824     590.1419     77.91974     155.9639     312.1765      1.725     5.26     847.1669     55.05355     75.74896         8     1.541     0.507  55.43   0
       259    222.3973    639.9376 307.8303158  +6.4136157     612.1121     1019.392     1203.061     77.67039     156.0882     312.0832      1.743     5.19     846.8439     55.05355     107.9972         7     1.458     0.523  58.89   0
       260    804.4549    638.9235 307.5885968  +6.4335445     538.3792     777.3932     323.9127     78.29227     156.2124     312.3318      1.660     4.55     849.6805     55.05355     89.94373         7     1.687     0.349  46.83   0
       261    538.1500    638.7947 307.6992110  +6.4246853      682.552     1224.355     1203.624     77.67039     156.0261     311.9589      2.173     6.01      848.943     55.05355     101.8401         9     1.145     0.887   7.12   0
       262    186.7098    635.5120 307.8452866  +6.4142425     2699.339      4092.21     4258.862     78.04411     156.7084     312.4249      1.691     4.00     846.7351     55.05355     364.2366        20     1.358     0.847  55.93   0
       263    509.4133    635.6909 307.7112508  +6.4250034     756.3823     1103.943     1097.436     78.04411     155.9639     312.1143      1.628     4.72     848.7901     55.05355     111.2813         8     1.182     0.536  23.07   0
       264     79.2722    629.7846 307.8901007  +6.4129917     1368.668     2321.872     2404.891     77.79517     156.0882     312.2386      1.707     5.40     846.6198     55.05355     174.3909        15     1.536     0.693  51.89   0
       265    476.3991    622.6647 307.7254001  +6.4292734     63567.68     95896.88       101187     77.54543     155.9017     312.0832      1.646     3.95     848.1992     55.05355     9340.371        80     1.647     1.132  54.53   0
       266     19.6269    624.0468 307.9150658  +6.4133515      1758.63     2711.532     2973.142     77.91974     156.2745     312.2386      1.623     3.66     847.2227     55.05355     241.3928        16     1.182     0.881  66.46   0
       267    662.4961    619.5257 307.6482097  +6.4368036     776.7313     1163.807     823.3563     78.04411     156.3366     312.3318      1.756     4.85      849.019     55.05355      114.171         6     0.988     0.676  57.51   0
       268    150.6922    617.7145 307.8608448  +6.4203773     1842.535     2739.794     2461.591     78.04411     156.6465     312.4249      1.552     4.08     846.1539     55.05355     303.0057        15     1.229     0.803  58.55   0
       269    946.0460    614.9985 307.5305848  +6.4481492     729.8286     1054.087     542.3759     77.67039     155.9017     311.9278      1.455     4.94     846.1483     55.05355     87.49731         9     1.167     0.592  64.17   0
       270    429.8798    615.2991 307.7449690  +6.4307535     855.0281     1434.021     1418.002     78.16829     156.5845     312.3628      1.775     5.09     847.7956     55.05355     131.9163        10     1.276     0.574  63.60   0
       271    622.3271    614.3439 307.6650677  +6.4375978     848.0516      1352.74     1490.946     78.16829     156.1503     312.2697      1.644     5.60     848.7038     55.05355     140.0562         9     1.297     0.681  10.95   0
       272    321.8102    612.0215 307.7899652  +6.4284789     2050.273     3086.748      3072.49     77.91974     155.9639     312.1765      1.589     3.79     847.1027     55.05355     331.7149        19     1.382     0.826  53.84   0
       273     28.9976    611.7717 307.9115878  +6.4187338     483.3045     951.8222     1777.856     77.79517     155.9639     312.1454      2.173     4.92     846.7871     55.05355     80.75787         5     1.154     0.593  78.33   0
       274    474.0616    610.4902 307.7267796  +6.4342204     806.5987     1317.592     1766.503     78.29227     156.3366     312.3939      2.055     5.49     847.6467     55.05355     114.5216         9     1.372     0.620  54.98   0
       275    748.4857    606.1799 307.6129399  +6.4451894     5469.709     8183.325     8045.728     77.91974     155.9639     312.2697      1.586     3.99      848.675     55.05355     778.3586        27     1.484     0.889  53.93   0
       276    801.9954    601.4734 307.5908712  +6.4489210     14030.32     21059.31     21310.47     77.91974     155.7772     312.2075      1.616     3.99     848.4454     55.05355     1839.923        42     1.538     1.016  54.71   0
       277   1019.1478    601.6613 307.5006656  +6.4560935     931.1123     1211.896     966.8387     78.29227     156.1503     295.0213      1.453     4.13     844.5816     55.05355     142.1287        10     1.115     0.668  47.97  16
       278    544.3641    601.4962 307.6978810  +6.4402896     1339.981     1972.294     2285.429     78.29227     156.0882      312.487      1.856     4.95     847.4089     55.05355     158.6254        15     1.187     0.893  36.32   0
       279    625.8492    599.4819 307.6641029  +6.4438505     3018.008     4435.244     4295.024     78.29227     156.2124     312.3628      1.572     4.06     848.1453     55.05355     402.9067        25     1.395     0.969  50.03   0
       280     47.3055    600.7026 307.9043572  +6.4239193     656.1002     983.8021     1364.441     78.29227     156.7702     312.1765      1.277     3.36     846.4659     55.05355     117.7419         5     1.084     0.303  35.72   0
       281    943.1033    595.8267 307.5324476  +6.4559649     1084.745     1904.343     2592.027     78.41605     155.9639     312.2697      1.951     5.18     845.5921     55.05355     157.8171        12     1.248     0.792  53.74   0
       282    238.4121    593.0975 307.8252402  +6.4334882     1308.865      1938.63     1908.867     78.04411     155.9639     312.1143      1.576     5.01     845.7834     55.05355     197.2775        14     1.487     0.595  58.66   0
       283    384.6242    593.1790 307.7645088  +6.4383655     902.7924     1307.206     1416.854     77.91974     156.0261     312.3318      1.544     5.61     846.5339     55.05355     129.3091        12     1.311     0.727  64.35   0
       284    202.1975    594.2487 307.8402429  +6.4317955     541.4188     675.6954     1293.813     77.67039     155.8395     311.9278      1.320     3.85     845.6204     55.05355     85.42157         5     0.979     0.434  46.05   0
       285    878.1031    584.6835 307.5598195  +6.4583945     2897.391     4211.718     4746.536     78.29227     156.5845     312.3939      1.541     3.89     847.0176     55.05355     413.6082        19     1.350     0.813  58.67   0
       286    173.4339    584.4395 307.8525197  +6.4348771     896.5225     1424.429     2162.573     78.04411     156.0882     312.1454      1.848     5.46     845.6683     55.05355     127.3257        11     1.309     0.799  59.52   0
       287    836.7084    582.0826 307.5771010  +6.4580853     2468.735     3727.548     4186.582     78.04411     156.5226     312.3939      1.610     3.92     847.4575     55.05355     343.7927        21     1.304     1.039  55.46   0
       288    264.7749    577.1378 307.8148274  +6.4409619      7679.05     11736.28     11896.19     77.91974     156.1503     312.2697      1.604     3.73      845.838     55.05355     1026.431        34     1.461     1.061  55.12   0
       289    807.5914    577.9457 307.5893339  +6.4588200      2378.89     3604.791     4367.557     77.67039     156.1503     312.0522      1.691     3.87     847.4769     55.05355     350.3191        18     1.311     0.824  55.24   0
       290    750.1285    578.3701 307.6131883  +6.4567237     610.6962     957.5955     1301.003     78.16829     156.2124     312.3007      2.131     4.59     847.7452     55.05355     94.76837         5     1.172     0.511  54.80   0
       291    817.3788    573.3129 307.5854234  +6.4610594     160289.8     237428.4     249917.5     78.29227     155.9639     312.2075      1.641     3.92     847.2126     55.05355     23680.36       119     1.700     1.185  55.25   0
       292    198.9536    571.6369 307.8423512  +6.4410198     59678.18     90912.59     96534.32     78.04411     156.2124     312.2386      1.652     3.73     845.3606     55.05355     7964.046        83     1.634     1.225  52.72   0
       293    122.9706    567.8530 307.8740377  +6.4400256     6170.338     9554.747     9960.095     78.04411     156.3366     312.2697      1.643     3.87     845.6968     55.05355       777.46        31     1.416     1.067  53.24   0
       294    988.6608    565.3629 307.5145413  +6.4700602     1244.028      1822.19     1679.859     78.29227     156.2745     312.3318      1.634     5.81     844.1976     55.05355     210.4028        13     1.405     0.705  47.73   0
       295   1008.9564    563.6102 307.5061693  +6.4714607     758.0096     1105.848     836.9849     77.79517     156.0261     312.0522      1.444     2.68     843.9531     55.05355     149.6765         8     0.811     0.677 -82.84   0
       296    237.8764    563.4344 307.8264607  +6.4457142     767.8584     1148.587     1511.342     78.16829     156.2124     312.3007      1.668     4.54     845.1146     55.05355     113.3125         7     1.085     0.541  64.87   0
       297    853.9022    560.5563 307.5706788  +6.4675455     4542.645     6447.248     6614.576     78.29227     156.1503      312.549      1.542     3.66      846.447     55.05355     654.2379        24     1.376     0.887  51.44   0
       298    372.3616    558.7164 307.7707600  +6.4521792      17213.3     25870.79     26855.88     78.29227     156.1503     312.2697      1.649     3.88     845.3475     55.05355     2502.816        44     1.558     1.041  54.67   0
       299    174.1071    557.9093 307.8531333  +6.4458505     1944.673     2987.918     3208.365     78.29227     156.7084     312.3628      1.678     4.15      845.464     55.05355     241.0502        21     1.426     0.922  59.40   0
       300    462.3240    558.6483 307.7333951  +6.4552259     658.7567     759.6424     394.1725     78.16829     156.2745     312.3318      1.164     4.49     845.8281     55.05355     113.4092         7     1.035     0.555  26.58   0
       301    807.8348    553.9982 307.5900339  +6.4687132     5615.029     8587.646     9262.765     77.42025     156.0261     312.1454      1.594     3.96     846.4995     55.05355     746.1246        29     1.459     0.958  52.86   0
       302    538.7243    553.6314 307.7018291  +6.4598581     6556.437     9583.739     9542.019     78.16829     156.2745     312.3007      1.570     3.70     845.5663     55.05355     967.3434        30     1.409     0.988  52.78   0
       303    249.3574    555.3699 307.8219633  +6.4494288     848.9917     1386.172     1301.789     77.91974     156.1503     312.1765      1.867     4.94     845.0115     55.05355      119.962        10     1.300     0.531  42.94   0
       304    179.1534    554.6016 307.8511486  +6.4473856     771.2058     1084.682     1945.971     77.67039     155.9017     311.9278      1.729     5.22     845.3829     55.05355      135.892        10     1.072     0.855  28.52   0
       305    111.6033    554.8035 307.8791987  +6.4450295      891.849     1381.279     1443.735     77.67039     155.7772     312.1454      1.597     3.67     845.6559     55.05355     113.8448        10     1.059     0.636  50.69   0
       306    397.0604    550.3146 307.7607833  +6.4564762      1303.51     2123.572      2192.46     78.41605     156.2745     312.4249      1.710     4.42     845.1714     55.05355     180.7004        16     1.336     0.881  44.86   0
       307    185.8510    546.8933 307.8486263  +6.4507926     6708.042     10397.19     11279.45     78.16829     156.0261      312.518      1.655     4.06     845.2222     55.05355     948.1105        35     1.588     1.035  46.18   0
       308    583.2938    546.6166 307.6835513  +6.4642470     2169.255     3948.631     4327.522     78.04411     156.0261     312.1765      1.978     4.27     845.6405     55.05355     314.6521        26     1.332     1.233 -10.22   0
       309     57.3177    545.4881 307.9020598  +6.4470470     5021.435      7802.38     8317.388     78.04411     156.3986     312.3939      1.714     4.04     846.1906     55.05355     674.0685        29     1.490     0.967  58.47   0
       310    824.3156    546.2250 307.5834481  +6.4724727     1459.633     2016.645     1952.154     78.29227     155.9639     312.2075      1.575     4.04     846.0443     55.05355     214.1992        15     1.148     0.950  75.18   0
       311    280.9804    543.2710 307.8092354  +6.4554856     86305.03       132706       139865     77.91974     156.0882     312.2697      1.641     3.82     844.7295     55.05355        11321        88     1.652     1.191  53.00   0
       312    570.2075    541.1220 307.6891713  +6.4660767     834.5859     1307.022     1892.344     77.91974      155.715     312.1143      1.802     5.98     845.2894     55.05355     123.5701        11     1.421     0.709  73.44   0
       313    264.8475    538.2939 307.8161038  +6.4569979     1584.923     2492.052     2487.278     78.16829     156.1503     312.4559      1.584     3.68     844.4015     55.05355     275.1276        15     1.299     0.703  59.84   0
       314    980.4932    537.1610 307.5188759  +6.4814290     1571.613     2529.139      2374.68     78.41605     156.1503     312.4249      1.692     4.19     843.6129     55.05355     220.6469        15     1.426     0.711  52.78   0
       315    507.7422    534.1332 307.7153525  +6.4668681     40801.88     65555.92     70574.47     78.41605     156.1503     312.3318      1.728     3.97     844.9297     55.05355      5453.47        79     1.757     1.260  43.68   0
       316    804.1075    535.7139 307.5921939  +6.4761361     16281.09     24224.45     24920.54     78.16829     156.6465     312.4249      1.595     3.99     845.9848     55.05355     2243.932        43     1.519     1.020  53.81   0
       317    658.0808    532.4168 307.6529621  +6.4726127     999.0585     1454.713     1635.533     77.91974     155.9017     312.1765      1.645     4.59     845.5157     55.05355     146.0386        11     1.094     0.718  49.80   0
       318    220.3063    530.4460 307.8348686  +6.4587401     1855.963     2869.901     2900.042     78.16829     156.1503     312.4559      1.692     4.48     843.9438     55.05355     236.0249        18     1.427     0.854  75.46   0
       319    730.0245    528.2021 307.6232187  +6.4767598     1360.492     2063.638     1674.007     77.91974     155.9017     312.1454      1.692     6.02     846.1909     55.05355     189.0475        18     1.557     0.864  61.40   0
       320    678.0000    529.1660 307.6447968  +6.4746213     1473.045      2038.62     2646.811     77.29488     155.9639     312.0522      1.517     4.61      845.581     55.05355     215.2659        14     1.386     0.705  60.71   0
       321    667.7454    529.1776 307.6490561  +6.4742733     2926.003      4470.36     4680.136     77.79517     156.2124     312.1454      1.603     4.01     845.4922     55.05355     410.0103        21     1.412     0.860  60.53   0
       322    267.9105    530.8896 307.8150806  +6.4601571     635.7883     876.1993     1656.613     78.29227     156.7084     312.4249      1.613     3.80      844.015     55.05355     96.93524         5     0.998     0.415  45.58   0
       323     55.5301    530.3033 307.9033142  +6.4532545     1207.088     1707.661     1711.756     78.16829     156.3986     312.3318      1.559     3.77     845.8365     55.05355     169.4296        11     1.174     0.639  62.33   0
       324     86.4806    526.6455 307.8905821  +6.4558065     678.0291     1320.851      894.694     78.29227     156.2124     312.3318      1.868     4.74     845.3015     55.05355     87.65247         8     1.211     0.526  52.87   0
       325    405.3848    524.6708 307.7581870  +6.4673407      1871.14      2657.95     2409.349     77.79517     156.1503     312.2386      1.529     4.06     844.0311     55.05355     265.7391        15     1.224     0.784  56.28   0
       326    152.0605    521.6399 307.8635117  +6.4600797     25523.07     39195.14      41087.2     78.29227     156.2124     312.3939      1.643     3.74     844.6781     55.05355     3332.322        58     1.606     1.115  56.98   0
       327    336.9258    523.0031 307.7866791  +6.4657309     3976.169     5939.904     6110.083     77.79517      155.715     312.2075      1.600     4.00     843.7759     55.05355     529.6449        25     1.446     0.912  54.40   0
       328    516.8578    522.3570 307.7119612  +6.4720346     2003.907     2963.822     2998.688     78.16829     156.1503     312.3628      1.574     4.01     844.4685     55.05355      277.407        16     1.246     0.847  58.14   0
       329    880.1418    521.5819 307.5610823  +6.4845100     1559.785      2474.79     2448.891     77.91974     156.0882     312.0832      1.626     3.82     844.8509     55.05355     245.2559        13     1.205     0.722  55.12   0
       330    117.1229    519.8258 307.8780844  +6.4596528     2673.351     3971.268     3980.661     78.04411     156.2124     312.3007      1.528     3.89      844.814     55.05355     365.9066        22     1.479     0.865  54.74   0
       331    977.6974    516.2889 307.5207344  +6.4899515     5037.973     7704.285     7902.363     78.29227     156.6465     312.3318      1.640     3.94     843.1079     55.05355     710.4402        28     1.518     0.923  50.43   0
       332    354.0964    518.1218 307.7797109  +6.4683223     1038.453     1527.369     1609.385     78.04411     156.4606     312.3939      1.568     4.23     843.5989     55.05355     144.4904        12     1.198     0.726  44.20   0
       333    550.7888    508.7734 307.6983225  +6.4787788     1533.488      2391.17     2375.392     77.91974     156.0261     312.2075      1.629     4.81     844.0381     55.05355     193.3667        16     1.336     0.843  49.59   0
       334     16.3344    505.9868 307.9204140  +6.4619712      24640.2     38146.14     40570.12     77.79517     156.0261     312.2386      1.653     3.93      845.938     55.05355     3278.143        56     1.619     1.100  54.32   0
       335    449.0811    502.7876 307.7407713  +6.4778396     42193.55     63730.26     67103.94     77.91974     155.9017     312.1765      1.611     3.78     843.3481     55.05355     5461.777        65     1.591     1.116  52.93   0
       336      1.5070    500.9790 307.9267415  +6.4635386     25252.62     33559.54     36864.57     70.05443     126.5034     237.6682      1.305     3.21     846.0808     55.05355     7002.651        55     1.840     0.897 -88.87  24
       337    657.1240    502.4567 307.6543634  +6.4849476     12451.25     18405.71      19001.6     78.29227     156.1503     312.2697      1.596     3.80     844.7192     55.05355     1736.931        38     1.482     1.012  51.16   0
       338    296.8327    502.9470 307.8040070  +6.4726628     1033.645     1488.319     1757.344     78.16829     156.2124     312.2386      1.569     4.13     842.5128     55.05355     151.0087        13     1.271     0.747  58.43   0
       339    991.1051    500.9511 307.5156770  +6.4967300      1029.94     1905.152     2360.312     78.16829     156.0882      312.487      2.228     5.28     842.4687     55.05355     160.3867        13     1.426     0.800  64.32   0
       340    214.2400    500.3504 307.8384012  +6.4709586     18709.12     30033.88     31733.44     78.29227     156.2124     312.2697      1.734     3.96      842.491     55.05355     2668.043        50     1.669     1.111  50.91   0
       341    919.8378    500.5594 307.5452952  +6.4945133     599.5079     1083.908     893.7557     78.04411     156.2124     312.2075      1.644     5.04     843.8476     55.05355     87.10712         7     1.420     0.506  71.57   0
       342    179.9559    501.3255 307.8526089  +6.4694032     1581.207     2473.549     2070.918     78.16829     156.2745     312.3628      1.634     4.81     843.3443     55.05355     210.6035        15     1.296     0.795  45.61   0
       343   1023.2842    501.6471 307.5022862  +6.4975161     489.2664     646.8418     784.9531     72.63731      129.833     241.1521      1.051     3.51     841.8583     55.05355     102.2949         5     0.775     0.457 -12.78  24
       344    831.3152    500.4496 307.5820716  +6.4916020     867.6542     1310.235     1378.506     78.29227     156.2124     312.4249      1.504     4.77     844.9636     55.05355     136.6066         9     1.258     0.512  50.54   0
       345    578.9143    499.3125 307.6869567  +6.4836265     2832.668     4453.213     4752.738     78.04411     156.3986     312.4249      1.628     4.21     843.8292     55.05355     353.6913        26     1.433     1.031  56.36   0
       346    952.7869    496.4132 307.5317463  +6.4973247     4751.967     7096.055     7533.189     78.16829     155.9017     312.2697      1.625     4.00      843.144     55.05355     633.6151        25     1.425     0.893  55.88   0
       347    625.8284    494.7857 307.6676206  +6.4870663       6653.5     9855.822     9926.997     77.91974     156.0261     312.2386      1.552     3.72     844.0635     55.05355     933.8275        30     1.440     1.014  47.61   0
       348    113.5144    495.1825 307.8804134  +6.4697033      1129.56     1785.817     2093.388     77.91974     155.9639     312.2697      1.881     5.72     844.0512     55.05355     146.5015        14     1.346     0.777  67.09   0
       349    225.7536    494.7249 307.8338081  +6.4736678     515.2818     706.6882     1382.359     78.16829     156.2745     312.3318      1.811     3.87     841.9581     55.05355     83.74799         5     0.926     0.465  45.61   0
       350    975.4880    488.6545 307.5225752  +6.5012849     3413.937     4993.473     4915.287     78.29227     156.0882      312.487      1.567     3.74     842.5005     55.05355     531.3644        23     1.419     0.881  46.06   0
       351    538.1550    486.0906 307.7043314  +6.4877184     7246.105     10858.72     11302.85     78.29227     156.1503     312.4559      1.573     3.87     843.2247     55.05355     964.1957        31     1.446     0.959  51.99   0
       352    384.0949    486.1897 307.7683232  +6.4825101     2544.472     3673.148     3686.908     77.91974     155.8395     312.1143      1.531     3.89     842.0987     55.05355     345.2184        21     1.376     0.854  59.77   0
       353    413.7816    486.9619 307.7559658  +6.4831877     674.2985     1079.335     1478.269     77.91974     156.0882     312.0832      2.386     4.79     842.1553     55.05355     115.5607         7     1.131     0.574  23.56   0
       354    547.6539    482.9705 307.7004902  +6.4893246     792.2418     1107.403     1099.966     78.04411     156.2745     312.2697      1.778     5.16     843.1559     55.05355     143.4735         9     1.085     0.771  48.24   0
       355    894.6763    481.8093 307.5563742  +6.5014130     3279.958     4901.463     5494.555     77.91974     155.7772     312.1454      1.592     3.70     843.8422     55.05355     468.4678        24     1.362     0.914  57.48   0
       356    941.3121    475.4862 307.5372124  +6.5055800     1249.516     1731.668      1230.66     78.04411     156.4606     312.4559      1.547     4.71     842.9924     55.05355     174.1653        15     1.298     0.875  56.07   0
       357    901.9968    476.1772 307.5535214  +6.5039823         2209     3226.975      3424.45     77.91974     155.9017     312.1765      1.515     4.19     843.5886     55.05355     285.2057        17     1.368     0.764  53.33   0
       358    120.6311    475.1364 307.8781327  +6.4782171      682.299     1075.995     1217.146     78.04411     156.2745     312.3007      1.739     4.95     843.3505     55.05355     111.0153         7     0.909     0.761  27.34   0
       359    725.9053    472.2587 307.6268031  +6.4997144     3063.203     4596.818       4442.3     78.16829     156.2124     312.4559      1.593     3.95     844.4796     55.05355      404.121        21     1.441     0.840  50.84   0
       360    396.7495    470.4347 307.7635960  +6.4894381     3780.897     5643.582      5986.52     78.16829     156.2124     312.2386      1.623     4.03     841.3266     55.05355     510.5403        26     1.428     0.959  53.20   0
       361     87.6087    470.9840 307.8919892  +6.4788195     1861.544     2839.707     3231.753     78.04411     155.9639     312.1765      1.625     3.98     843.7027     55.05355     245.5985        17     1.254     0.819  55.94   0
       362    437.3257    470.7962 307.7467287  +6.4906505     999.2342     1475.119     1569.968     77.79517      155.715     312.2386      1.654     3.98     841.6991     55.05355       139.31        11     1.067     0.669  42.35   0
       363    624.5883    467.0181 307.6690665  +6.4984867      10328.2     15218.52     16144.45     77.91974     155.9017     312.2386      1.575     3.78     842.9273     55.05355     1468.189        34     1.480     0.975  50.21   0
       364    787.3234    463.6263 307.6015783  +6.5053317     16551.05     24319.71     25489.62     78.04411     156.1503     312.3007      1.599     3.96      844.283     55.05355     2462.558        44     1.535     1.010  50.49   2
       365    791.4183    458.7802 307.6000394  +6.5074690     1525.531     2256.358     2416.583     78.04411     156.1503     312.2697      1.546     4.72     844.0965     55.05355     208.9005        17     1.435     0.789  53.57   2
       366    306.9594    463.9590 307.8011116  +6.4890961     2698.554     3944.595     3781.219     78.04411     156.2124     312.2075      1.528     3.74     840.5655     55.05355     339.4849        23     1.392     0.935  60.44   0
       367    430.6136    462.8983 307.7497822  +6.4936853     545.7362     713.0986     1136.594     78.16829     155.9639     312.0832      1.394     4.91     841.2433     55.05355     94.50513         6     1.288     0.530  64.17   0
       368    389.9850    460.5204 307.7667390  +6.4933034     1573.473     2402.245      2878.21     77.91974     155.9639     312.1454      1.730     5.69     840.8699     55.05355     219.2958        14     1.523     0.673  51.86   0
       369    815.9730    460.6266 307.5897771  +6.5075275      1164.76     1674.667     1497.787     77.79517     156.0261     312.1765      1.515     4.95     844.0041     55.05355     175.7183        11     1.294     0.606  46.72   0
       370    972.4082    458.2161 307.5248714  +6.5137467     1799.969     2577.376     2265.709     77.91974     155.9639     312.1765      1.498     4.62     841.8409     55.05355     269.7531        14     1.340     0.715  61.76   0
       371    378.5219    456.4826 307.7716364  +6.4945853     796.1157     1031.844     1933.391     78.41605     156.4606     312.4249      1.564     4.60     840.5778     55.05355     116.1952         7     0.901     0.666  69.13   0
       372    124.6643    455.5090 307.8771186  +6.4864543     4530.707     7024.687     7410.172     78.29227     156.3986     312.3628      1.661     4.05     842.7532     55.05355     607.6773        31     1.554     1.039  41.34   0
       373    762.7567    454.6070 307.6120855  +6.5082333     2229.228     3219.477     3708.193     77.79517     155.9639     312.0522      1.598     4.22     843.9473     55.05355     369.8358        17     1.298     0.786  50.67   0
       374    282.3500    452.8458 307.8117079  +6.4928565      1375.97     2022.508     2440.902     78.29227     156.0882     312.3628      1.615     3.97     840.0516     55.05355     215.8979        15     1.253     0.801  55.81   0
       375    360.6167    450.1982 307.7792854  +6.4965782      3334.28     5109.113     4987.069     77.91974     155.7772     312.1143      1.643     3.86     840.1783     55.05355      405.988        24     1.401     0.945  46.23   0
       376    288.5799    450.5710 307.8091966  +6.4940048     511.0081     716.8331     930.7073     77.79517     156.0261     312.2075      1.645     3.94     839.8423     55.05355      72.8526         5     1.075     0.414  15.86   0
       377    716.5975    447.9612 307.6314834  +6.5094326     1535.405     2251.481     2505.415     77.42025     155.9639     312.0832      1.559     4.70     843.3796     55.05355      203.871        16     1.408     0.749  49.53   0
       378    990.0965    446.6986 307.5179079  +6.5190911      666.211     1201.948     1220.756     78.29227     156.7084     312.1765      1.903     6.29     841.2427     55.05355       94.745        11     1.396     0.797  35.92   0
       379    248.5249    446.2600 307.8259801  +6.4944381     834.2498     1229.415     1249.553     78.53963     156.2124     312.3007      1.844     5.95     840.4669     55.05355     99.02618        12     1.116     0.893  42.28   0
       380    460.3817    441.6051 307.7381315  +6.5034733     434.9536     597.0784     84.96056     77.91974     155.8395     312.1454      1.347     4.64     840.6253     55.05355     65.98291         5     1.362     0.449 -44.59   0
       381    557.9799    440.4049 307.6976287  +6.5072408     969.2707     1518.416     1530.278     77.91974     155.9017     312.1454      1.784     4.38     841.4947     55.05355     142.2474        11     1.195     0.601  62.70   0
       382    480.4525    439.2981 307.7298714  +6.5050987     1333.955     2074.594     2560.272     78.16829     156.2124      312.518      1.930     5.13     840.7152     55.05355     194.2854        14     1.426     0.719  53.00   0
       383     52.7878    439.2186 307.9075237  +6.4907585      327.861     471.4183     819.4442     78.04411     155.9017     312.2386      1.601     3.81     842.9469     55.05355     67.02356         5     1.333     0.313 -58.32   0
       384    842.5594    438.1667 307.5794840  +6.5176870     1479.298     2153.055      2420.85     78.04411     156.1503     312.1765      1.577     4.65     842.9005     55.05355     198.7551        14     1.288     0.754  45.03   0
       385    828.3289    437.0970 307.5854315  +6.5176531     1941.906     2623.418     2281.544     78.16829     156.3366     312.3628      1.423     3.78     843.0122     55.05355     291.0004        16     1.295     0.729  57.63   0
       386    725.7618    435.2824 307.6281009  +6.5149728     15277.01      22354.4     23723.67     78.29227     156.2745     312.3007      1.585     3.99     842.9965     55.05355     2196.373        41     1.504     0.991  52.65   0
       387    646.8400    431.2773 307.6610208  +6.5139848     2576.172     3831.761     4105.106     78.16829     156.2124     312.3628      1.588     3.74     841.5396     55.05355     375.6832        21     1.357     0.871  49.98   0
       388    627.9928    436.7910 307.6686655  +6.5110778     674.3311     943.5922     1074.773     77.67039     156.0261     312.1765      1.453     3.27      841.624     55.05355     109.2412         5     0.798     0.487  62.60   0
       389    619.1877    426.4132 307.6726712  +6.5150667     12778.01        25826     30310.57     78.16829     155.9017     312.2697      2.250     7.25     841.0482     55.05355     2007.323        61     2.462     1.069  38.16   0
       390    641.0469    429.2257 307.6634962  +6.5146377     527.7416     893.4346     873.3121     77.91974     156.2745     312.2075      1.715     3.90     841.3857     55.05355     89.91376         5     0.839     0.520 -49.81   0
       391    950.9506    425.1464 307.5348904  +6.5266813     3861.777     5601.232     5664.838     78.41605     156.2124     312.3628      1.532     3.99     841.3709     55.05355     530.9506        23     1.386     0.871  52.68   0
       392    390.1829    421.1309 307.7679803  +6.5095690     28887.06     44148.09     46893.37     77.79517     156.0882     312.2386      1.617     3.74     838.8972     55.05355     3984.511        58     1.581     1.118  51.61   0
       393    905.5334    419.7137 307.5539398  +6.5274076     1335.418     2687.239      3503.82     78.29227     156.4606     312.3628      2.457     8.18     841.7291     55.05355     244.0424        26     2.691     0.753  50.52   0
       394    136.2268    420.3927 307.8734987  +6.5013382     2271.405     3583.361     4224.148     77.79517     156.0261     312.1454      1.664     3.91     841.5663     55.05355     312.6326        23     1.396     0.976  55.12   0
       395    919.9495    415.6461 307.5480868  +6.5295680     5248.645     7561.852     7701.076     78.41605     156.0882     312.4249      1.550     3.98     841.4644     55.05355     757.3256        25     1.462     0.841  51.74   0
       396     69.4160    416.1916 307.9013929  +6.5008231     1408.291     2376.268     2803.994     77.91974     155.9639     312.1765      1.857     4.11     842.0175     55.05355      200.182        16     1.349     0.770  62.83   0
       397    601.3624    416.8162 307.6803979  +6.5184311     679.9303     870.0986     660.5162     77.91974     156.0261     312.0832      1.353     3.79     840.5859     55.05355     122.4667         6     1.061     0.389  73.40   0
       398    975.9186    413.4154 307.5249097  +6.5323569     718.5676      961.957     1246.024     77.91974     155.9639     312.2075      1.620     4.57     840.6528     55.05355     115.3591         8     1.198     0.495  58.78   0
       399    247.7086    411.6745 307.8274829  +6.5086864     13809.43     21143.49     22375.93     78.29227     156.3986     312.3628      1.675     3.89     839.7246     55.05355     1875.393        42     1.529     1.066  54.27   0
       400     83.1314    405.7691 307.8960469  +6.5055870     818.6816     1159.104     1808.592     78.16829     156.2124     312.3007      1.661     5.53     841.8627     55.05355     108.0469         8     1.111     0.777  81.99   0
       401    742.6487    405.3363 307.6220885  +6.5278988     769.6947     1119.501     878.9398     78.16829     156.0882     312.3939      1.481     4.52     842.1671     55.05355     119.4301         8     1.066     0.545  69.64   0
       402    710.6665    404.8995 307.6353895  +6.5270092     838.8489     1277.991     1559.152     78.29227     156.3366     312.3007      1.641     4.56     841.5081     55.05355     128.5269         8     1.209     0.488  65.89   0
       403   1019.9579    404.7066 307.5069048  +6.5374209     525.9098     669.7823     645.1746     78.41605     156.1503     286.6171      1.459     4.21     839.8441     55.05355     108.9156         7     1.190     0.425  54.13  16
       404    971.4532    403.9482 307.5270810  +6.5361158     1107.344     1630.137      1953.19     78.41605     156.0882     312.3628      1.754     4.78     840.3206     55.05355     132.0396        12     1.159     0.740  51.06   0
       405    360.5508    401.4175 307.7809523  +6.5167113     1220.856     1880.181     2060.958     77.79517     156.2745     312.1143      1.615     3.52     837.8652     55.05355     194.9625        11     1.192     0.602  48.16   0
       406    193.4216    401.4018 307.8503797  +6.5111012     845.5208     1370.498     965.6279     77.91974     155.9017     312.0522      1.687     3.34     840.4683     55.05355     136.9099        10     1.003     0.748  51.49   0
       407    147.9192    400.3472 307.8693170  +6.5100058     5004.221     7440.395     7470.851     78.29227     156.2124     312.3628      1.575     3.72     841.0228     55.05355     649.1501        26     1.393     0.941  55.34   0
       408    252.5693    399.0934 307.8258872  +6.5140429     1371.983     2118.346      1651.29     78.41605     156.0261     312.3007      1.643     4.26     839.1078     55.05355     198.0449        15     1.298     0.744  49.42   0
       409    444.8723    398.9803 307.7460057  +6.5205474     636.0459     1086.885     540.4708     77.91974     156.0882     312.2697      1.681     3.11     838.5687     55.05355      111.208         6     0.890     0.464  57.88   0
       410    170.0375    396.1194 307.8602714  +6.5124951     2504.555     4068.032     4638.729     78.16829     156.2745     312.3007      1.775     4.35     840.6403     55.05355     345.2217        24     1.469     0.981  74.87   0
       411    834.2327    396.9370 307.5843224  +6.5344278     819.9427     1216.245     1110.598     78.04411     156.2745     312.3007      1.475     3.85      841.705     55.05355      152.842         9     1.037     0.747  48.43   0
       412    565.6727    395.3808 307.6959432  +6.5260835     1014.408     1299.872     1202.319     77.91974     156.1503     312.2697      1.423     4.43     839.3538     55.05355     147.1284        12     1.208     0.667  45.31   0
       413    982.1953    390.3505 307.5230726  +6.5420872     987.9822     1800.116     1674.809     77.67039     156.0261       311.99      1.862     5.22     839.6255     55.05355     148.6613        13     1.250     0.988  59.75   0
       414    393.5074    390.9494 307.7676134  +6.5221387     2089.816     3144.641     2969.354     78.16829     156.0882      312.518      1.618     3.60     837.7237     55.05355     325.7983        19     1.286     0.878  45.17   0
       415    281.0268    391.0877 307.8143350  +6.5183038      762.384     1133.647      1419.94     78.41605     155.9639     312.2386      1.672     2.77     838.0446     55.05355     127.8141         7     0.862     0.518  46.16   0
       416     11.8774    391.0861 307.9261404  +6.5092475     704.8535     968.5696     1485.195     78.29227     156.5226     312.4249      1.545     4.81     841.7482     55.05355     108.0007         7     0.990     0.663  86.48   0
       417    327.4250    388.3984 307.7951509  +6.5209727     631.8067      890.214     1259.585     77.91974     155.9017     312.1143      1.483     4.83     837.5441     55.05355     103.5494         7     0.899     0.734  68.87   0
       418    447.2627    384.5507 307.7454973  +6.5265838     7428.473     11163.75     11558.18     78.29227     156.1503     312.3939      1.652     3.92     838.0599     55.05355     1029.237        34     1.464     1.040  54.86   0
       419     43.7109    385.2231 307.9131146  +6.5127400     3246.579       5516.3     5837.329     78.29227     156.0261     312.2075      1.785     4.20      841.618     55.05355     409.5347        28     1.489     1.133  68.12   0
       420    780.0121    383.3185 307.6073035  +6.5382368     2011.282     3117.887     3423.687     77.91974     155.9017     312.1765      1.629     3.62     841.6542     55.05355     270.9658        20     1.349     0.884  59.45   0
       421    787.9531    381.8680 307.6040531  +6.5391011     13034.89     19222.38     20139.57     78.29227     156.1503     312.3318      1.566     3.75     841.6625     55.05355     1795.233        37     1.482     1.001  52.09   0
       422    351.2387    380.3091 307.7855303  +6.5251116     1163.876     1891.693     2204.544     78.41605     156.1503     312.3628      1.601     4.08     837.1595     55.05355     183.1385        13     1.307     0.686  44.50   0
       423    195.7899    372.6664 307.8503634  +6.5230419     831.6866     1111.592     1075.003     77.79517     156.0882     312.2075      1.553     5.56      839.535     55.05355     118.3694         9     1.126     0.774  51.87   0
       424    913.1891    371.4447 307.5523729  +6.5475879     748.1298     1135.745     1350.125     77.79517     156.0882     312.0522      1.597     4.73      839.417     55.05355     112.7798         8     1.157     0.878  89.97   0
       425      2.0859    370.4784 307.9309029  +6.5174236     890.2227     1715.271     2709.896     76.28444      134.961     247.1113      3.163     6.79     841.5486     55.05355     132.0574        14     1.775     0.728 -68.15  24
       426    467.6801    368.6543 307.7375492  +6.5338303     2277.496     3292.979     3019.824     78.29227     156.2124     312.3939      1.569     3.88     837.8349     55.05355     310.4033        19     1.397     0.795  58.97   0
       427    924.1333    368.1425 307.5479365  +6.5493165     712.1534      1014.41     1238.834     78.41605     156.1503     312.3318      1.404     4.42     839.0008     55.05355     126.6638         8     1.226     0.454  45.33   0
       428    853.2742    364.8199 307.5774861  +6.5483214     32732.48      51082.6     53492.55     77.91974     156.1503     312.2697      1.665     3.95      840.563     55.05355     4330.821        62     1.652     1.136  58.00   0
       429    495.4223    368.0507 307.7260445  +6.5350099     3246.096     4752.185     4252.904     77.79517     156.2745     312.2075      1.519     3.50     837.9525     55.05355     420.4714        19     1.252     0.849  56.33   0
       430    998.5362    364.8898 307.5171342  +6.5531422     532.2424     967.7073     761.0135     78.16829     156.3986     312.3628      1.667     4.89     838.5471     55.05355     77.93323         7     1.003     0.674  68.46   0
       431    345.4279    360.3048 307.7886168  +6.5331736     977.8191     1310.165     1109.514     78.41605     155.9639     312.2697      1.504     4.51     836.6062     55.05355     160.1536         8     0.960     0.670  55.24   0
       432    625.0508    357.1064 307.6725591  +6.5438713     2643.525     4012.802     3993.075     78.16829     156.0882      312.518      1.649     4.10     837.9639     55.05355     366.5258        23     1.678     0.804  45.67   0
       433     33.2807    357.2553 307.9183905  +6.5239326     1023.712     1547.209     1524.881     78.29227     156.2124     312.3628      1.615     4.94     841.2974     55.05355     140.4054        13     1.304     0.764  59.06   0
       434    709.7476    350.7706 307.6375845  +6.5493218     81120.28     119365.2     125078.2     78.04411     156.3366     312.2386      1.568     3.71     839.5463     55.05355     12308.15        87     1.619     1.127  54.82   0
       435    156.5821    354.9746 307.8672466  +6.5290255     639.1563     679.0231     360.5776     77.91974     156.0261     312.2697      1.258     2.95     840.1283     55.05355     97.50201         6     0.810     0.707 -88.87   0
       436    867.8661    352.3120 307.5718422  +6.5539719     1222.061      1811.03     1966.645     78.29227     156.3986     312.3318      1.692     4.79     839.8784     55.05355     157.2989        13     1.275     0.682  41.14   0
       437     88.9607    350.3922 307.8954919  +6.5286408      1336.76     2197.743     1989.079     77.67039     155.9639     312.0211      1.565     5.12     840.9335     55.05355     168.0593        16     1.343     0.814  43.49   0
       438    951.3229    348.0908 307.5373106  +6.5585011     785.2402     1317.099      940.954     78.04411     156.4606     312.3318      1.553     5.15     837.9517     55.05355     139.8373         8     1.224     0.613  57.00   0
       439    572.1915    347.5392 307.6948399  +6.5460498     2876.502     4054.934     4069.145     77.67039     156.0261     312.1143      1.494     3.84     836.7978     55.05355     459.5038        19     1.394     0.790  60.31   0
       440    109.4669    346.2728 307.8871122  +6.5310315     6293.297     9502.604     10056.65     78.41605     156.3366     312.3007      1.679     3.96     840.5966     55.05355     845.1339        29     1.478     0.968  54.27   0
       441    770.4504    345.8836 307.6125291  +6.5533696     535.7044     660.6691     1153.902     78.29227     156.2124     312.4249      1.560     5.08     840.3665     55.05355     91.89429         7     1.196     0.610  52.02   0
       442    555.4804    343.6853 307.7019117  +6.5470806     7250.481     10722.36     11014.99     78.04411     156.5226     312.4249      1.593     3.93     836.3293     55.05355      1074.46        31     1.437     0.966  52.68   0
       443    418.3580    338.8527 307.7590402  +6.5444768     26117.46     39723.55     41706.01     78.29227     156.2745     312.3628      1.637     3.85     835.6568     55.05355     3593.742        57     1.583     1.116  54.36   0
       444    284.4003    341.2044 307.8146116  +6.5390075      2665.34      3970.14     4147.719     77.67039     155.7772     312.0832      1.652     3.71      836.854     55.05355     349.8194        18     1.312     0.818  60.03   0
       445    525.8886    337.4988 307.7144131  +6.5486424     1273.459     1885.388      1906.98     78.29227     156.6465     312.3318      1.605     5.65     835.9487     55.05355     169.6383        13     1.408     0.638  47.99   0
       446    684.9640    337.5020 307.6483254  +6.5539695     584.7135     828.0814     826.8937     78.29227     156.0882      312.487      1.651     4.10     838.0334     55.05355     94.29846         5     1.106     0.433  63.50   0
       447    597.2166    338.3880 307.6847503  +6.5506656     635.9651     844.3458     812.3705     78.04411     155.9017     312.2386      1.523     4.80     836.6149     55.05355     105.4589         7     1.020     0.641  26.03   0
       448    398.4868    337.0205 307.7673570  +6.5445661     1121.159     1706.099     2611.059     78.04411     155.9639     312.2075      1.822     5.57     835.5873     55.05355     140.8633        12     1.319     0.662  58.62   1
       449    497.7446    334.1635 307.7262173  +6.5490755     1240.231     1814.697     1414.958     78.16829     156.2124     312.3628      1.590     4.24     836.0115     55.05355     169.6243        14     1.322     0.757  53.18   0
       450    813.0396    331.2703 307.5953243  +6.5608255     868.1885      1419.29      1250.41     78.16829     156.2124     312.3939      1.619     4.84     839.4993     55.05355     126.2155         9     1.032     0.642  54.92   0
       451    507.4956    329.2853 307.7223300  +6.5514160      8816.44     13026.75     13605.47     78.29227     156.5845     312.4249      1.626     3.75     835.5893     55.05355     1287.416        33     1.506     0.954  55.78   0
       452    395.2106    331.3829 307.7689075  +6.5467832     806.5865     1259.556     2008.534     78.04411     155.9017     312.2075      2.061     4.62     835.3502     55.05355     118.0704        10     1.097     0.654  44.19   0
       453    776.5422    328.0457 307.6105954  +6.5609364     3198.972     4641.547     5054.798     78.29227     156.2124     312.4249      1.548     3.80     839.2917     55.05355     468.4522        22     1.356     0.916  44.40   0
       454    931.7209    327.8249 307.5461318  +6.5662122     791.8077     1145.159     1288.841     78.04411     156.0882     312.3318      1.531     4.43     837.3938     55.05355     144.0706         7     1.025     0.546  28.48   0
       455    724.7220    328.0468 307.6321244  +6.5592027      730.251     850.5577     659.1832     78.16829     156.2745     312.3318      1.320     3.69      838.664     55.05355     119.1219         8     0.962     0.587  33.28   0
       456    333.7835    325.9033 307.7946109  +6.5469824      1071.38     1637.582     1344.555     78.16829     156.0261     312.1765      1.629     4.95     835.5433     55.05355      150.605        12     1.211     0.718  59.53   0
       457    169.5966    319.9024 307.8630214  +6.5439399     1110.327     1732.986     1828.024     78.04411     155.9017     312.0211      1.698     4.62     838.7557     55.05355     167.2555        14     1.213     0.925  45.41   0
       458    269.4023    319.4791 307.8215733  +6.5474709     703.2891     1032.674     500.5449     77.67039      155.715     312.1143      1.525     4.34     836.5906     55.05355     120.0277         7     1.071     0.501  44.01   0
       459    397.3620    313.4402 307.7686167  +6.5542617     7551.401     11571.49     12091.96     78.04411     156.2124     312.2075      1.671     4.12     834.6257     55.05355     1049.564        36     1.532     1.013  55.93   0
       460    253.0736    313.9633 307.8285424  +6.5491988     2194.212     3300.314      3647.95     78.16829     156.2745     312.3628      1.569     3.36     836.8239     55.05355      344.236        19     1.233     0.913  49.81   0
       461    750.8511    313.1194 307.6217688  +6.5662385     1067.594     1514.731     1266.688     78.29227     156.2745     312.3318      1.456     4.98     838.1855     55.05355     175.9312        10     1.217     0.576  57.97   0
       462    765.2382    309.3305 307.6159184  +6.5682837     55124.51     80707.82     84779.38     78.16829     156.2124     312.4559      1.591     3.75     838.0262     55.05355     8326.303        68     1.586     1.076  53.25   0
       463    436.7872    308.6857 307.7523974  +6.5575473     2469.653      3596.57     3831.564     77.91974     156.0882     312.1765      1.581     3.78      834.413     55.05355     327.5084        18     1.331     0.846  52.97   0
       464    999.8832    306.3624 307.5185296  +6.5773463      1656.69      2463.91     2245.468     78.29227     156.1503     312.2697      1.552     4.44     836.7802     55.05355      282.084        17     1.395     0.740  50.96   0
       465    940.9257    305.3790 307.5430577  +6.5757848     2272.532     3440.814     3427.885     77.91974     156.0882     312.2697      1.638     3.82     836.7523     55.05355     363.4448        23     1.652     0.835  55.42   0
       466    583.0008    306.1171 307.6917387  +6.5635100     1078.044     1764.889      1779.18     77.54543      155.715     312.0211      1.630     4.79     834.6526     55.05355     174.0049        12     1.430     0.610  42.16   0
       467    473.6534    305.0021 307.7372050  +6.5603046     1207.041     1757.582     2692.583     77.67039     155.9639     311.9278      1.789     4.49     834.0681     55.05355     161.0046        12     1.089     0.784  61.49   0
       468    303.0754    303.4862 307.8081221  +6.5552039     640.7623     703.7404     299.5741     78.41605     156.5226     312.3939      1.373     4.96     835.4187     55.05355     98.31653         7     1.087     0.640  44.04   0
       469    844.7247    299.0559 307.5832381  +6.5751819     1118.717     1847.706     1364.974     78.16829     156.1503     312.2697      1.619     4.52        837.3     55.05355     176.0843        12     1.445     0.663  58.66   0
       470    423.4388    304.4451 307.7580854  +6.5588498     1856.681     2964.483     3350.367     78.04411     156.2124     312.2386      1.750     4.24     834.2234     55.05355     264.9152        19     1.387     0.877  61.66   0
       471    199.8520    295.7495 307.8512657  +6.5549272     2380.695      3478.92     3053.776     78.41605     156.0882     312.3628      1.577     3.86     837.5775     55.05355     286.7564        23     1.423     0.935  52.48   0
       472    453.9074    295.8550 307.7457157  +6.5634179     1186.784     1615.311     1500.782     78.16829     156.1503      312.487      1.452     5.24     833.6133     55.05355     158.0139        11     1.240     0.626  63.60   0
       473    763.6626    293.8884 307.6170900  +6.5746052     6257.414      9279.77     10059.06     78.29227     156.3986     312.3628      1.569     3.65      837.087     55.05355     940.7523        32     1.508     0.979  45.14   0
       474    234.9858    293.5350 307.8367443  +6.5570228     765.0225     1256.593     1165.344     77.79517     156.0882     312.2697      1.869     5.41     836.9061     55.05355     135.8657        10     1.394     0.592  70.20   0
       475     96.0508    292.9981 307.8944811  +6.5525696     1103.982     1566.256     2025.227     77.67039     155.8395     311.9278      1.420     4.97     839.1888     55.05355     137.6243        14     1.290     0.807  54.52   0
       476    780.1108    291.7999 307.6103262  +6.5760173      2692.75     4124.883     4506.692     77.54543      155.715       311.99      1.621     3.83     837.0535     55.05355     366.9048        21     1.347     0.923  50.90   0
       477    354.1156    292.8005 307.7872771  +6.5613291     599.9821     871.9578     855.4111     77.54543      155.715     312.0211      1.597     4.53     833.8478     55.05355     90.59955         6     0.958     0.608  62.04   0
       478    482.4636    290.8369 307.7340204  +6.5664471      573.188     683.4479      927.007     78.16829     156.2124     312.3318      1.559     5.00     833.0142     55.05355      87.2511         8     1.534     0.462  59.75   0
       479    369.4399    286.6725 307.7811166  +6.5643731     1817.226     3600.607     4015.945     78.16829     156.2124     312.3939      2.135     5.70     833.6579     55.05355     219.6202        26     1.570     1.123  17.19   0
       480     83.1753    287.0237 307.9000313  +6.5546020      1291.63     2204.717     2395.925     77.79517     156.0261     312.2697      1.726     5.35     839.1456     55.05355     179.1254        15     1.340     0.833  53.22   0
       481   1018.2999    282.7445 307.5116667  +6.5877098     5876.131     8763.228     9024.436     78.04411     156.2124     302.7445      1.599     3.99      835.975     55.05355     837.9957        26     1.439     0.906  50.64  16
       482    496.3298    282.5670 307.7285373  +6.5703257     2046.185     2974.555     2755.804     78.16829     156.2124     312.3628      1.575     4.11     832.7137     55.05355      267.219        18     1.366     0.810  54.76   0
       483    258.9045    278.1630 307.8273247  +6.5641719     5864.135     8961.382     9588.566     78.41605     156.0882     312.4559      1.616     3.76     835.9714     55.05355     790.9742        30     1.439     1.011  54.06   0
       484    823.7844    277.1968 307.5926697  +6.5835052     597.4819     926.3569     1133.853     77.91974     155.8395     312.1765      1.656     4.63     836.4155     55.05355     104.0743         6     1.009     0.603  61.98   0
       485    778.3033    271.7204 307.6117494  +6.5842453     871.4815     1122.128      1115.14     78.04411     156.4606     312.4249      1.560     4.44     836.2457     55.05355     150.3367         8     1.373     0.408  36.56   0
       486    235.8104    271.1919 307.8371538  +6.5662729     642.5853     878.0021     619.6721     77.79517     156.0261     312.2386      1.549     5.70     836.4633     55.05355     103.9288         9     1.395     0.657  62.81   0
       487    130.0141    271.4405 307.8810980  +6.5626111     604.1641     839.1186     359.1758     77.79517     156.0261     312.0832      1.592     3.79     838.2181     55.05355     117.4348         6     0.961     0.493  78.13   0
       488    393.0063    268.7355 307.7719287  +6.5725682     1644.607     2634.022     2796.616     77.79517     155.9639     312.1143      1.741     4.52     833.3425     55.05355      237.603        18     1.463     0.811  64.63   0
       489    979.9127    267.6183 307.5281213  +6.5926730      1030.71     1500.119     1198.138     78.04411     155.9639     312.1765      1.615     4.50     835.1583     55.05355      145.951        11     1.258     0.650  74.38   0
       490    315.4343    264.8593 307.8042869  +6.5715631     1290.109     1998.334       2058.3     78.16829     156.2124     312.2697      1.724     4.41      834.364     55.05355     190.2606        15     1.341     0.779  44.94   0
       491    162.8283    264.5947 307.8676962  +6.5665412     1759.856     2480.309     2775.971     77.79517     156.0261     312.1454      1.491     4.01        837.6     55.05355     234.4098        14     1.226     0.711  46.62   0
       492    572.4588    260.5829 307.6976460  +6.5819522     2324.477     3263.426       3368.3     77.91974     156.0882     312.0832      1.578     4.13      832.814     55.05355     321.7589        19     1.294     0.896  67.13   0
       493    916.1115    259.5303 307.5549003  +6.5938819     1814.333     2937.674     2522.361     78.29227     156.4606     312.3318      1.681     4.68     834.9215     55.05355     279.3782        19     1.521     0.801  47.35   0
       494    736.0772    258.0146 307.6297525  +6.5884904     5174.479     7618.881     7852.299     77.91974     155.9017     312.1765      1.543     3.84     835.6127     55.05355     707.4291        25     1.407     0.880  53.11   0
       495    974.0645    258.0107 307.5308722  +6.5964437     741.3527     1063.968     1267.743     77.79517     156.0261     312.2386      1.544     4.86     834.6143     55.05355     141.3616         7     1.213     0.571  39.19   0
       496    676.7684    257.8566 307.6543994  +6.5865710     2089.539     3114.676     3168.096     78.16829     156.2124     312.2697      1.575     4.12     834.7783     55.05355     259.8422        19     1.430     0.780  47.23   0
       497    392.0303    252.4293 307.7728822  +6.5792662     712.1761     872.4941     861.1962     77.79517     155.9639     312.0832      1.425     4.68     833.0789     55.05355     103.9612         9     1.107     0.572  60.77   0
       498    932.0341    250.0349 307.5486021  +6.5983331     1048.534     1581.489     1596.425     78.04411     155.9639     312.0832      1.625     5.62     834.1998     55.05355     138.2276        16     1.362     1.005  49.33   0
       499    235.4162    243.4373 307.8382518  +6.5777158     2328.766     3605.529     2662.236     78.04411     156.0261     312.0832      1.659     3.76     835.9636     55.05355     326.1873        20     1.311     0.949  60.88   0
       500    878.2603    242.3124 307.5712029  +6.5997250     1696.571     2700.437     3064.366     78.29227     156.3986     312.4249      1.668     4.47      834.759     55.05355     275.4731        18     1.526     0.812  46.33   0
       501    768.7459    241.6151 307.6167284  +6.5963525     1628.646     2451.868     2142.809     77.67039     156.2124     312.0522      1.609     4.17     835.1588     55.05355     246.9097        16     1.367     0.846  52.01   0
       502    257.2395    236.8872 307.8294056  +6.5811532     578.9858     926.8672      1114.85     78.29227     156.1503     312.3628      1.542     3.31     835.2552     55.05355     112.3488         5     0.942     0.338  45.10   0
       503    469.4956    233.1579 307.7413452  +6.5898204     23350.54     35087.56     36663.23     78.29227     156.1503     312.4559      1.643     3.77     831.5261     55.05355     3200.575        53     1.577     1.079  53.72   0
       504    795.4794    232.2819 307.6059333  +6.6010989     13626.35     20417.51     22538.83     78.41605     156.4606      312.487      1.682     3.90     834.8246     55.05355      2202.38        51     1.612     1.217  43.06   0
       505    330.5580    234.5177 307.7990241  +6.5845952      688.308     892.7399     840.1765     78.29227     156.2124     312.2697      1.563     4.67     833.7289     55.05355      94.0246         8     1.019     0.607  39.89   0
       506    733.8855    227.8129 307.6316748  +6.6008837     837.5475     1306.755     891.2402     77.91974     156.0882     312.1765      1.690     4.65     834.6456     55.05355     154.0897         9     0.981     0.697  17.57   0
       507    474.9537    227.4345 307.7392697  +6.5923660     1395.234     2216.713     2591.331     77.91974     156.1503     312.2386      1.707     4.23      831.265     55.05355     204.2059        15     1.242     0.821  51.28   0
       508    157.6705    226.5388 307.8711210  +6.5820756     2535.027     3960.084     4455.434     78.41605     156.2124     312.3939      1.738     4.25     837.1686     55.05355     330.9885        23     1.488     0.890  56.89   0
       509    132.3386    225.4466 307.8816821  +6.5816739     1193.476     1830.456     2203.152     78.16829     156.0882     312.3939      1.632     4.41     837.5026     55.05355     154.8307        14     1.260     0.832  52.27   0
       510    787.7745    224.3498 307.6094002  +6.6041155     705.8167     1335.969     1728.213     77.91974     156.2745     312.2386      2.043     5.37      834.524     55.05355     92.32373         8     1.016     0.802   0.36   0
       511    183.9327    224.1105 307.8602919  +6.5839616     677.6746     811.8138     762.6266     78.41605     156.3986     312.3007      1.380     4.81     836.6489     55.05355     90.95172         8     1.196     0.547  76.55   0
       512    931.8786    222.4707 307.5495881  +6.6097059     1424.947     1951.622     1970.592     78.53963     156.4606     312.3007      1.497     4.34     832.7923     55.05355     196.5407        12     1.184     0.681  67.61   0
       513    593.6058    218.9315 307.6902572  +6.5998534     4748.349     7282.221     7914.045     77.79517     155.8395     312.1765      1.664     4.01     832.1414     55.05355     737.0141        26     1.470     0.891  55.61   0
       514    556.1958    218.9692 307.7057993  +6.5985843     2280.644      3267.66     2898.248     77.79517     156.0882     312.1143      1.560     3.91     831.6251     55.05355     301.5804        18     1.292     0.847  55.99   0
       515    313.8544    219.4530 307.8064706  +6.5902522     1163.353       1608.3     1588.345     78.53963     156.1503     312.3007      1.574     4.89     833.8177     55.05355     171.6204        10     1.096     0.618  60.15   0
       516     79.2536    219.3667 307.9039416  +6.5823960     368.4402     406.6139     419.3327     78.16829     156.1503     312.2697      1.482     5.47     838.1008     55.05355     80.62579         5     1.220     0.691  76.84   0
       517    398.2052    218.0614 307.7714718  +6.5936595     1317.922     2013.412     1521.177     77.67039     156.0261     312.1143      1.666     4.57      832.431     55.05355     184.7603        14     1.369     0.691  57.37   0
       518    900.6161    215.4996 307.5628109  +6.6115395     11595.25     16930.41     17408.96     78.29227     155.9639     312.1454      1.602     3.81     833.2454     55.05355     1822.625        40     1.522     1.036  55.45   0
       519    954.4299    215.9184 307.5404371  +6.6131633     2646.431     3882.423     4660.793     78.16829     156.0261     312.3318      1.636     3.99      832.661     55.05355     396.8075        18     1.347     0.776  62.35   0
       520    328.1865    215.8675 307.8006367  +6.5922137     875.6765     1402.155     1424.908     77.79517     156.0261     312.2386      1.742     5.59     833.6308     55.05355     120.7973        12     1.337     0.668  64.14   0
       521    220.0962    215.9164 307.8455432  +6.5885603     638.4855     1062.042     658.0795     78.29227     156.5845     312.4249      1.547     5.72     835.9194     55.05355     94.30463        10     1.625     0.567  52.87   0
       522    987.3137    213.3426 307.5268597  +6.6153240     9679.335     14400.92     15113.17     78.29227     156.2124      312.487      1.633     3.94     832.5812     55.05355     1427.397        35     1.545     0.954  54.06   0
       523    575.4243    215.4523 307.6979281  +6.6006803     889.4594     1181.294     1057.621     77.79517     156.2124     312.2386      1.464     4.97     831.8023     55.05355     156.8411        10     1.274     0.626  64.86   0
       524    698.6456    213.2201 307.6468056  +6.6057281     2888.277      4351.28     4132.562     77.91974     156.1503     312.1454      1.571     3.92      833.984     55.05355     467.9396        20     1.450     0.760  50.06   0
       525    272.8794    213.0354 307.8237105  +6.5915241      1120.95     1796.351     1972.683     78.16829     156.2745     312.3318      1.558     4.92     834.5259     55.05355     175.9028        13     1.418     0.798  77.27   0
       526     26.7628    212.0980 307.9259942  +6.5836279     25879.71     39630.66      41840.9     78.29227     156.0882      312.518      1.636     3.72      838.589     55.05355     3341.986        56     1.595     1.120  53.77   0
       527    507.1767    208.1411 307.7265295  +6.6014105     2102.742     3042.864     3121.279     77.91974     156.2124     312.2075      1.539     3.63     831.0945     55.05355     291.7396        20     1.353     0.885  58.98   0
       528    891.4315    203.8719 307.5670160  +6.6160324     2105.198      3024.76      3500.69     78.16829     156.2124     312.3318      1.544     3.38     833.0879     55.05355     337.4895        18     1.307     0.880  71.84   0
       529    839.1544    205.0009 307.5886996  +6.6138198     2112.891     3140.135     3139.368     77.67039     155.9639     311.9278      1.475     3.95     833.6463     55.05355     308.6149        15     1.322     0.734  49.32   0
       530    519.1848    204.1572 307.7216740  +6.6034576      2538.99     3945.739     3882.792     77.79517     155.9639     312.1143      1.618     3.54     831.0898     55.05355     365.3569        22     1.413     0.887  54.48   0
       531    750.7938    201.4687 307.6255318  +6.6123236     41079.94     60084.98     62634.82     77.79517     155.8395     312.1765      1.591     3.93     833.6396     55.05355     6276.445        57     1.577     1.030  55.47   0
       532    353.8683    200.8792 307.7904705  +6.5992630     5805.823     11831.58     12712.33     78.41605     156.3986     312.3318      2.157     6.46     833.2503     55.05355     686.5493        47     1.986     1.231  89.70   0
       533    984.6586    200.2925 307.5283990  +6.6206222     2807.236     3949.623     4608.224     78.16829     156.1503     312.4559      1.584     3.66      832.343     55.05355     456.5222        20     1.380     0.801  53.73   0
       534   1022.7098    198.6085 307.5126446  +6.6225868     1790.461     2447.566      2388.35     77.04351      137.312     249.8825      1.512     3.88     832.3051     55.05355      260.942        17     1.258     0.869  64.50  24
       535    918.6649    198.6072 307.5558764  +6.6191151     7563.455     11157.93     11751.28     77.79517     155.9639     312.1765      1.589     3.80     832.5029     55.05355     1190.211        31     1.454     0.919  51.60   0
       536    462.1002    197.6564 307.7456103  +6.6042263     5083.219     7813.872     7705.115     78.04411     156.2124      312.549      1.619     4.11     831.1163     55.05355     694.2033        29     1.408     1.048  53.14   0
       537    236.3294    194.2052 307.8395298  +6.5980678     771.1264     1014.367     1009.944     77.79517     155.8395     312.2075      1.425     4.68     835.4044     55.05355     110.3997         8     0.927     0.672  69.04   0
       538    119.5639    188.9526 307.8882194  +6.5963071     4999.236     7542.909     7396.054     77.91974     156.2124     312.2697      1.609     3.88      837.135     55.05355     675.4705        26     1.457     0.934  55.43   0
       539    938.8094    187.9964 307.5478609  +6.6241676     983.8224      1331.11      1653.03     77.67039     155.9017     312.1765      1.533     5.12     832.1387     55.05355     139.0854        11     1.012     0.920  88.94   0
       540    289.8969    185.6301 307.8175623  +6.6034081     34687.85     52739.54     55912.58     78.41605     155.9639     312.3628      1.635     3.71     833.9279     55.05355     4617.589        68     1.616     1.178  50.07   0
       541    265.1584    186.6233 307.8278072  +6.6021666      6798.79     10502.51     11024.23     77.91974     156.0261     312.1143      1.656     3.82     834.5859     55.05355     928.5864        34     1.528     1.031  54.12   0
       542    615.8925    187.2241 307.6820608  +6.6136880     653.8228     971.0593     1560.442     78.41605     156.0261     312.1765      1.721     4.12     831.8106     55.05355     123.6765         6     1.138     0.427  61.79   0
       543    718.8682    184.7146 307.6393583  +6.6181713     913.4624     1434.691     1513.468     78.41605     156.4606     312.3628      1.782     5.14     833.0149     55.05355     110.2947        10     1.045     0.716  40.43   0
       544    413.9644    181.1348 307.7661652  +6.6094306     50814.93     77114.12     81021.73     78.16829     156.2124     312.3939      1.606     3.77     831.3494     55.05355     6867.575        74     1.610     1.151  55.05   0
       545    169.9316    182.3158 307.8675168  +6.6007418     3997.422     6259.392     6243.811     78.53963     156.4606     312.3628      1.651     3.78     835.9624     55.05355     499.4738        27     1.535     0.933  56.19   0
       546    431.1476    181.5303 307.7590125  +6.6098441     1568.756     2174.302     2585.133     78.16829     156.0882     312.2697      1.541     3.62     831.1701     55.05355     212.2194        14     1.107     0.815  56.59   0
       547    317.9738    178.8425 307.8061252  +6.6071532      18344.8     28230.55      29718.9     77.91974     156.2124     312.1765      1.624     3.78     833.5848     55.05355     2412.077        51     1.560     1.115  53.42   0
       548    753.2330    177.3669 307.6253256  +6.6223539     34064.63     49928.86     52185.02     77.79517     155.9639     312.0832      1.602     3.93     832.7125     55.05355     5093.062        56     1.571     1.040  55.38   0
       549    701.0399    178.9539 307.6469590  +6.6199526     1117.357     1437.091     1191.885     78.16829     156.2124     312.1765      1.389     4.51     832.7732     55.05355     170.9721        10     1.117     0.635  48.50   0
       550    325.5669    178.3719 307.8029862  +6.6076026     2044.708     3613.193     4290.525     77.79517     155.9639     312.1143      1.975     5.48     833.4939     55.05355     316.4127        22     1.677     1.024 -88.61   0
       551    801.5182    177.6586 307.6052528  +6.6238481     1227.182     1587.793     1851.899     78.29227     156.2745     312.3318      1.442     3.72     832.6734     55.05355     216.1818        15     1.272     0.771  69.33   0
       552     70.0237    174.6295 307.9092847  +6.6005508     9212.146     14315.75     14647.36     77.79517     156.0882     312.1765      1.632     3.59     837.9544     55.05355     1261.117        39     1.568     1.031  54.47   0
       553     41.1143    177.1279 307.9212114  +6.5985456     576.8979     798.9705     792.4982     78.41605     156.4606     312.3628      1.475     4.95     838.4058     55.05355     76.39868         6     1.045     0.664  78.44   0
       554    577.2094    175.5939 307.6985237  +6.6171926     515.0817     804.9182     1092.851     77.67039     156.0261     312.1765      1.852     4.90     831.0377     55.05355     93.61157         6     1.339     0.507  44.56   0
       555    103.9366    172.5708 307.8952643  +6.6025427     1511.291     2260.731     1940.751     78.04411     156.2124     312.2697      1.588     4.37     837.3293     55.05355     197.6627        14     1.138     0.917  77.82   0
       556   1011.6076    171.6264 307.5181591  +6.6333542     1275.696     1629.517     1516.693     77.91974     156.0261     312.1765      1.430     3.63     831.8229     55.05355     190.4059        11     1.009     0.769  57.24   0
       557    979.5593    170.8711 307.5315010  +6.6325967     528.3373     738.7978     306.2916     78.16829     156.2124     312.3939      1.321     4.27     831.8091     55.05355     110.9691         5     1.262     0.469  56.53   0
       558    737.9585    165.1783 307.6320806  +6.6268741     687.2844     153.0793     424.8448     77.91974     156.0261     312.1454      1.518     4.82     832.2789     55.05355      115.799         7     1.263     0.520  56.60   0
       559    586.9180    161.9110 307.6949489  +6.6231659     877.6894     1200.747     1302.593     78.04411     156.3986     312.3939      1.525     5.48      830.871     55.05355     133.2656        11     1.161     0.730  63.72   0
       560      3.5570    159.7708 307.9374008  +6.6044442       942.74     1520.641      1137.37     77.91974     150.7784     268.0831      1.689     5.83     839.0496     55.05355     129.9118        11     1.301     0.736  45.81  16
       561   1012.5929    157.8770 307.5182090  +6.6390626     2114.469     3396.781     4067.592     77.91974      155.715     312.1454      1.811     4.48     831.3991     55.05355     260.5753        20     1.392     0.940  50.06   0
       562    595.8165    155.6540 307.6914614  +6.6260467      1044.74     1593.602      2022.43     77.79517     156.2124     312.0522      1.737     4.98     830.8018     55.05355      146.979        12     1.355     0.648  48.89   0
       563    604.1208    153.7958 307.6880732  +6.6270920     2013.825      2942.22     3517.971     77.91974      155.715     312.0832      1.509     3.91     830.8339     55.05355     322.3524        17     1.370     0.733  58.95   0
       564    288.8012    151.8929 307.8191528  +6.6172968     30764.25     47518.61      50742.8     77.79517     155.8395     312.0522      1.634     3.78     833.9841     55.05355     4010.592        66     1.631     1.154  54.31   0
       565     33.9793    150.5507 307.9250723  +6.6092751     4597.227     7175.572     7692.777     77.79517     156.2745     312.2075      1.687     3.82      838.501     55.05355     663.0762        31     1.578     1.089  74.35   0
       566    348.1247    153.5530 307.7944484  +6.6186048     1009.275     1204.618     1189.116     78.16829     156.2745     312.3318      1.373     4.22     833.2764     55.05355     148.0649        11     1.162     0.636  52.27   0
       567    720.4609    148.5271 307.6399090  +6.6331619     8376.256     12267.96     13100.96     78.41605     156.2124     312.3628      1.632     3.92     831.6003     55.05355      1267.73        33     1.483     0.937  53.97   0
       568    197.9509    149.5728 307.8569782  +6.6151995     954.4676     1519.017     905.2146     77.91974     156.2124     312.2697      1.491     5.50     835.4372     55.05355     132.1736        12     1.249     0.683  45.87   0
       569    274.6057    146.7513 307.8252240  +6.6189419     754.8367     1154.617     1395.478     77.67039     156.0261     312.0211      1.616     4.84     834.3833     55.05355     124.6726        10     1.266     0.639  66.19   0
       570    131.1547    145.5713 307.8848659  +6.6146033       5002.8     7787.065     8036.656     77.91974     156.2745     312.2386      1.657     3.96     836.0917     55.05355     694.8278        29     1.501     0.971  51.96   0
       571    593.3340    143.8186 307.6928899  +6.6308489     741.5245     1288.549     1480.747     77.91974     156.2124     312.2386      1.807     3.28     830.3968     55.05355     141.5013         7     1.031     0.588  48.29   0
       572    470.3173    142.8809 307.7440360  +6.6271117     1501.647     2112.718     1715.645     78.29227     156.4606     312.4249      1.541     4.19      830.281     55.05355     223.7975        16     1.380     0.753  41.81   0
       573    401.7986    141.5932 307.7725491  +6.6253438     3753.832     6431.863     6750.429     77.67039     155.9017     312.1454      1.764     4.44       831.37     55.05355     487.3623        32     1.684     1.062  62.43   0
       574    659.2361    142.7084 307.6655439  +6.6335144     894.8916     1020.685     258.3216     78.41605     156.0882     312.3628      1.404     5.01     831.2719     55.05355     124.5811        11     1.182     0.653  55.55   0
       575    366.2786    140.4904 307.7873448  +6.6246063     3324.907     4950.316     5066.762     78.04411     156.4606     312.3939      1.592     3.81     832.8328     55.05355     530.7115        23     1.450     0.837  50.68   0
       576    578.0161    141.4248 307.6993350  +6.6313237     521.5344     790.3776     1352.931     78.04411     156.0882     312.2697      1.692     4.23     830.1289     55.05355     71.35034         5     0.791     0.645  87.46   0
       577    120.6084    140.2088 307.8894284  +6.6164617     1758.739     2593.421     2692.231     77.67039     156.0261     312.2075      1.536     3.52     836.1742     55.05355     261.5506        18     1.282     0.843  55.58   0
       578    682.3102    138.5743 307.6560948  +6.6359934     781.9195      1113.77     1554.375     78.41605     155.9639     312.1765      1.558     3.68     831.2953     55.05355     133.2677         7     1.131     0.471  51.26   0
       579    756.5208    138.1807 307.6252720  +6.6386390     633.6599     826.0196     418.9292     77.91974     155.9017     312.2697      1.433     3.86     831.0178     55.05355     107.6411         7     1.132     0.770 -12.07   0
       580   1012.9850    134.6573 307.5188218  +6.6486603     1389.676     2134.826     2098.725     77.67039     156.1503     312.0522      1.525     3.57     829.6738     55.05355     215.2722        14     1.212     0.749  57.16   0
       581     58.7456    136.1127 307.9152695  +6.6160690     436.2733     474.9823    -199.8885     78.29227     156.0882      312.487      0.968     3.44     837.7047     55.05355     88.51324         5     1.009     0.338  47.43   0
       582    738.8757    134.9679 307.6327115  +6.6393749     599.6859      933.828     1038.655     78.16829     156.2745     312.3007      1.433     3.79     830.9089     55.05355     104.0082         5     1.017     0.406  29.46   0
       583    679.9891    128.2921 307.6574039  +6.6401599     6403.303     9715.124     10558.69     78.04411     155.9017     312.1454      1.626     3.90     830.8893     55.05355     905.4743        29     1.465     0.938  57.82   0
       584    218.1656    129.4324 307.8492575  +6.6241927     5675.209     8386.731     8261.996     77.91974     155.9639     312.0832      1.585     3.80     835.3553     55.05355     820.8744        25     1.394     0.927  54.57   0
       585    100.9046    129.5679 307.8979738  +6.6201904     2145.151      3356.23      3212.59     78.41605     156.0882     312.3939      1.671     4.27     836.2382     55.05355     273.8229        21     1.450     0.879  50.35   0
       586    827.9886    127.6922 307.5959264  +6.6453580      983.799     1242.788     877.3564     78.04411     155.9017     312.1143      1.414     5.07     830.4099     55.05355      145.125        10     1.358     0.535  55.26   0
       587    632.1450    125.5697 307.6773755  +6.6396816     9569.212     14323.11     15368.76     78.16829     156.2745     312.3007      1.630     3.92     830.3253     55.05355     1332.692        32     1.501     0.928  52.51   0
       588    267.0527    125.9841 307.8290611  +6.6272599     825.5651     1378.895     1419.692     77.67039     156.2745     312.0522      1.501     4.38     834.8123     55.05355      120.852         8     1.329     0.410  61.31   0
       589    570.0514    124.5282 307.7032115  +6.6380312     631.0717     1070.138     1385.252     78.29227     156.2124     312.3628      1.836     4.24     829.5427     55.05355     103.1313         6     0.953     0.537  73.44   0
       590     31.1290    123.9268 307.9271547  +6.6201682     898.6837     1569.982     1198.028     78.53963     156.3366     312.3318      1.767     6.16     838.5906     55.05355     137.5386        12     1.461     0.733 -80.98   0
       591    359.3474    121.2458 307.7908718  +6.6323170     3811.792     6149.068     6405.039     78.29227     156.2124     312.3939      1.787     4.06     833.2852     55.05355     457.2759        34     1.512     1.407 -48.20   0
       592    635.6771    117.0834 307.6761924  +6.6433028     54629.72     81201.32     85352.52     78.41605     156.5226     312.4249      1.601     3.89     830.0781     55.05355      7759.84        70     1.599     1.085  55.90   0
       593    541.1245    120.5559 307.7153644  +6.6387013     1742.733     2636.827      3029.05     78.16829     156.2745     312.3628      1.616     4.67     829.1599     55.05355     239.9251        15     1.364     0.704  67.03   0
       594   1005.5927    120.2414 307.5223752  +6.6543643     829.4007     1264.013     981.5372     77.67039     156.0261     312.0522      1.583     4.98     828.5897     55.05355     122.4748         9     1.120     0.627  46.34   0
       595    314.8031    110.7210 307.8097343  +6.6351649     3689.035     5525.013     5761.998     77.67039      155.715     312.1143      1.614     3.81     834.3618     55.05355     471.1554        25     1.400     0.938  52.43   0
       596     12.3437     93.9117 307.9359726  +6.6319240     735712.9      1552779      1704128     78.29227     156.0882     312.4559      2.175     6.35     839.3141     55.05355     61001.41       476     2.280     1.871  58.13  28
       597    714.6730    105.1058 307.6437689  +6.6508915     925.8323     1314.326     1268.806     78.16829     156.3366     312.3318      1.572     4.73     829.7082     55.05355     141.1879        12     1.292     0.626  57.56   0
       598    686.1299    104.1026 307.6556631  +6.6503502     1405.153     2020.611     1896.668     78.16829     156.3986     312.3318      1.502     4.18     829.9326     55.05355     202.5775        12     1.132     0.695  57.00   0
       599    700.0781    101.0356 307.6499700  +6.6520831      3274.37     4603.263     4552.334     78.16829     156.2745     312.3318      1.497     3.92      829.681     55.05355     454.4277        21     1.359     0.830  56.13   0
       600     71.9493     99.1573 307.9110298  +6.6317673     572.0962     534.5774     130.4876     78.41605     156.2124     312.3318      1.320     3.85     836.4855     55.05355      84.4425         6     0.936     0.454  36.90   0
       601    441.8421     92.0002 307.7575772  +6.6471582     4227.796      6276.76     6009.512     77.54543     155.8395     311.9589      1.531     3.45     829.9382     55.05355     580.3644        23     1.307     0.932  49.44   0
       602    896.3876     88.3104 307.5688219  +6.6638993       2246.7     3266.683     3513.555     78.04411     155.9639     312.1765      1.571     3.86     827.9111     55.05355     364.6487        19     1.396     0.816  56.07   0
       603    914.2135     87.3643 307.5614461  +6.6648852     4013.256     6058.268     6257.291     77.79517     156.0261     312.1143      1.610     4.02      827.499     55.05355     602.0676        24     1.450     0.937  51.77   0
       604    594.3382     87.8841 307.6943493  +6.6539707     695.3362     1069.467     702.8337     78.41605     156.2124     312.3628      1.540     5.36     828.7311     55.05355     114.5471         9     1.311     0.618  54.68   0
       605    606.4618     85.9027 307.6893780  +6.6551948     1791.233      2489.58     2803.167     78.04411     156.2745     312.3939      1.591     3.94     828.7932     55.05355     245.1493        16     1.338     0.748  51.09   0
       606    625.4501     85.7801 307.6814919  +6.6558814     499.9625     737.1531     649.8365     77.79517     156.2745     312.2075      1.530     4.27     828.9587     55.05355     95.03937         5     0.836     0.659  49.42   0
       607    252.2092     85.2279 307.8366007  +6.6435835      817.533     1292.752     1359.179     77.91974     156.0261     312.2075      1.520     4.78     835.2018     55.05355     115.3829         8     1.359     0.477  48.38   0
       608    405.2469     83.8513 307.7730572  +6.6492935      1746.18     2693.258     2898.609     78.41605     156.0882     312.3939      1.594     3.77     831.0552     55.05355     279.5725        13     1.297     0.624  54.62   0
       609    153.1230     80.7821 307.8779216  +6.6420851     3396.349     5000.536     4718.606     77.79517     155.9639     312.3007      1.523     3.55     834.5813     55.05355     467.4908        24     1.473     0.845  52.50   0
       610     35.0099     78.5761 307.9270723  +6.6390177     12866.93     19555.81      21172.5     77.91974     156.0261     312.2075      1.642     3.67     836.9115     55.05355     1660.767        44     1.542     1.077  53.35   0
       611    301.5555     79.2759 307.8162969  +6.6476991     1277.803     2071.397     2496.032     78.16829     156.2745     312.3628      1.848     4.68     834.9053     55.05355     192.5658        12     1.206     0.652  47.44   0
       612    574.0786     78.0541 307.7030977  +6.6573494     659.3257     1070.447     720.8059     78.41605     156.2124     312.3318      1.693     5.49     828.3207     55.05355     96.69714         9     1.130     0.752  53.56   0
       613    561.8781     77.8871 307.7081730  +6.6570094     748.0472     1290.597      1274.35     78.29227     156.5226     312.4559      1.884     5.09     828.2272     55.05355     112.8171         8     1.402     0.523  64.84   0
       614    769.8524     77.4024 307.6217680  +6.6641727     704.4357      1187.81     1684.256     77.67039     155.9639     311.9278      2.044     4.66     828.2633     55.05355      121.714         8     1.147     0.537  53.74   0
       615    836.7959     73.2260 307.5940898  +6.6681348     6314.395     9404.975     9915.241     77.79517     156.0261     312.1765      1.591     3.89     827.7579     55.05355      895.648        28     1.478     0.905  53.06   0
       616    781.8990     73.5518 307.6168910  +6.6661650     3401.813     5050.873     5363.584     78.29227     156.1503      312.518      1.607     3.89     828.0166     55.05355     507.4348        23     1.456     0.855  52.61   0
       617    426.8608     74.0146 307.7644067  +6.6540792     1107.988     1777.998     2006.446     77.79517     156.1503     312.0832      1.691     4.39     830.0226     55.05355      135.079        12     1.100     0.763  51.11   0
       618    903.1030     73.6778 307.5665208  +6.6701636     661.2242     742.5673     393.9091     78.04411     156.3986     312.3939      1.314     4.47     827.1351     55.05355     85.05084         7     1.080     0.526  67.50   0
       619    927.2052     73.1460 307.5565229  +6.6711880      479.233     740.2717      1009.62     77.67039     155.9639     312.0211      1.465     3.68     826.6742     55.05355     105.2795         5     0.912     0.428  43.30   0
       620    768.6085     72.3885 307.6224528  +6.6662007     593.9048     1121.494     1399.694     77.91974     156.0261     312.2697      1.855     4.11     828.0659     55.05355     95.69012         5     0.987     0.488  89.79   0
       621    544.2346     71.6144 307.7157150  +6.6590071     1257.318     1878.321     1780.613     77.91974     155.9639     312.2075      1.550     4.49     828.0137     55.05355     161.0641        11     1.055     0.748  59.70   0
       622     75.2372     70.3955 307.9106337  +6.6437496     3356.976     4903.759      5368.52     77.42025     155.9639     312.1454      1.603     3.90     834.9058     55.05355     483.2768        21     1.384     0.832  53.46   0
       623     60.1264     71.3608 307.9168798  +6.6428422     1046.767     1476.239     1093.436     78.16829     156.2124     312.3939      1.592     5.55     835.4418     55.05355     150.6918        12     1.157     0.750  44.76   0
       624    663.6879     70.6243 307.6661109  +6.6634179     493.0421     731.7629     1140.211     78.29227     156.0261     312.2075      1.632     5.11     828.7329     55.05355     76.65192         6     1.316     0.562  52.39   0
       625    436.4436     69.8164 307.7605659  +6.6561338     971.6716     1795.454      1844.96     77.79517     156.0882     312.1143      1.968     5.18     829.7632     55.05355     149.4343        12     1.529     0.691  56.04   0
       626    599.2368     67.0971 307.6930112  +6.6627151      1291.76     1881.106     1527.237     78.29227     156.0882      312.487      1.614     4.56      828.225     55.05355      180.983        15     1.246     0.858  46.90   0
       627    270.2172     67.1605 307.8297263  +6.6516465     578.8068     840.9363     706.2776     77.91974     156.0882     312.1143      1.592     4.34      835.199     55.05355     83.24927         5     0.756     0.709 -48.16   0
       628     17.7653     65.9277 307.9346642  +6.6436572     2551.364     3811.252     4244.145     78.16829     156.1503     312.3318      1.626     3.70     836.3191     55.05355     330.9268        20     1.328     0.885  49.94   0
       629    776.3787     61.0488 307.6196037  +6.6711413     1958.501     2961.587     3055.468     77.91974     156.2745     312.2075      1.569     4.09     827.5051     55.05355     303.5878        18     1.428     0.761  61.99   0
       630    878.7084     61.2247 307.5770747  +6.6744891     404.2079     679.3776     427.7346     78.41605     156.0261     312.1765      1.281     4.83     826.9024     55.05355     79.92841         5     1.174     0.648 -67.53   0
       631    417.0867     60.9899 307.7689059  +6.6591273     1138.887     1563.268     1358.441     77.91974     155.9017     312.1765      1.420     4.39     830.0349     55.05355     169.1093        11     1.205     0.628  64.99   0
       632     90.0431     61.2930 307.9047888  +6.6480055     790.0305     801.3721     365.0215     78.29227     156.2124     312.4559      1.393     4.98     834.0805     55.05355     126.1487         7     0.993     0.706  56.77   0
       633    113.7282     59.5400 307.8950065  +6.6495267     799.1409     1276.612     1408.675     78.41605     156.2124     312.3939      1.635     4.49      833.876     55.05355     137.1526         8     1.324     0.433  46.52   0
       634    967.3412   1017.2234 307.5083101  +6.2828265     5572.044     10524.83     11171.86     77.91974     156.2124     309.6497      1.990     4.52     853.8276     55.05355     599.5178        43     1.730     1.281  52.70  16
       635    269.5370     48.6773 307.8306311  +6.6592527     1513.267     2357.481     3412.436     78.53964     156.2745     312.3007      1.683     4.97     835.2173     55.05355     210.3708        16     1.229     0.874  45.00   0
       636    645.8561     46.7559 307.6743212  +6.6726730     18962.84     28088.63     29806.96     78.29227     156.2124     312.3318      1.583     3.87     827.7955     55.05355     2701.525        46     1.582     0.982  54.44   0
       637    675.1065     47.5160 307.6621408  +6.6733386     640.0856     780.6548     619.2593     78.04411     156.6465     312.4559      1.494     3.38     827.8901     55.05355     110.5778         5     0.864     0.521  48.80   0
       638    955.4136     45.8605 307.5457131  +6.6833926     610.3165     1007.837     1500.963     77.79517     156.0882     312.0522      1.912     5.25     825.0373     55.05355     83.71912         7     1.386     0.562  56.39   0
       639    545.6146     42.8052 307.7161087  +6.6709450     5468.764     8112.603     8534.488     77.91974     155.9017     312.1765      1.588     3.81     827.5517     55.05355     819.5839        26     1.441     0.890  55.17   0
       640    263.9557     43.0431 307.8331399  +6.6613907     2136.443     3357.759      4305.73     78.16829     156.2124     312.2075      1.820     4.15     835.2248     55.05355     293.3687        19     1.382     0.909  49.42   1
       641     12.8563     40.7902 307.9375522  +6.6538672     1219.547      1940.28     2012.741     77.67039     156.1503     312.0211      1.692     5.88     833.9586     55.05355     169.8224        17     1.510     0.820  51.11   0
       642    632.2602     37.3244 307.6802873  +6.6761107     3106.019      5610.46     6764.936     78.53963     156.2124     312.3007      2.029     7.04      827.442     55.05355     429.3187        33     2.149     0.887  63.84   0
       643    517.6795     40.5702 307.7277919  +6.6709309      519.124     919.7999     586.9545     78.16829     156.2124     312.3007      1.428     3.74     827.9218     55.05355     96.40625         5     1.350     0.297  59.65   0
       644    451.1754     38.3941 307.7555002  +6.6695982     23074.72      34815.6     36330.45     77.79517     155.9639     312.1765      1.633     3.81      829.013     55.05355     3160.388        48     1.538     1.070  52.25   0
       645    271.7314     38.8077 307.8300515  +6.6634003     9329.866      14286.7     15499.02     77.79517     155.9017     312.2386      1.640     3.69     835.2272     55.05355     1278.662        41     1.525     1.075  48.75   0
       646    929.0056     38.4476 307.5569352  +6.6855708     2006.553     2799.967     2602.807     77.67039     156.0261     312.0211      1.546     3.80     825.2525     55.05355     267.8826        18     1.281     0.851  64.04   0
       647    331.6175     38.9917 307.8051608  +6.6653370     1081.764     1697.947     1671.418     77.91974     155.9639     312.1765      1.786     4.16     834.4463     55.05355     144.7545        14     1.258     0.747  62.32   0
       648     37.0624     38.4494 307.9275733  +6.6556493     2544.166      3632.57     3656.576     78.29227     156.1503     312.3939      1.547     3.56     833.5094     55.05355     346.7951        21     1.241     0.966  43.67   0
       649    563.5430     37.5191 307.7088361  +6.6737279     647.2324     725.4573     398.7045     78.41605     156.2124     312.3318      1.472     3.78      827.468     55.05355     84.83905         6     0.998     0.412  72.04   0
       650    536.0523     38.1328 307.7202391  +6.6725530     692.4877     936.6509     808.1303     78.16829     156.1503     312.2697      1.514     3.89     827.6094     55.05355     114.4455         5     0.859     0.505  61.26   0
       651    259.6430     35.3566 307.8351907  +6.6644184     3074.954     4677.385     5344.077     78.04411     156.2124     312.2075      1.668     3.64     835.2321     55.05355     404.3325        25     1.451     1.002  52.40   0
       652    312.4651     33.4622 307.8133053  +6.6669759     1005.409     1574.417     1824.375     78.29227     156.2124     312.3628      1.850     5.35     834.8241     55.05355      127.978        12     1.217     0.703  43.79   0
       653    701.1580     28.0581 307.6519673  +6.6822423     1841.816     2841.256     2871.512     78.16829     156.2124     312.3939      1.605     4.08     827.1325     55.05355     251.3198        19     1.359     0.947  60.96   0
       654    949.6230     28.8851 307.5486870  +6.6902063     996.2754     1561.743     1668.484     78.29227     155.9639     312.2075      1.648     4.04     824.3865     55.05355      140.653        10     1.017     0.710  49.05   0
       655    432.1436     54.5112 307.7628670  +6.6623069     2742.246     3951.718     3539.443     78.29227     156.0882     312.4559      1.547     4.47      829.628     55.05355     337.7412        19     1.358     0.831  51.28   0
       656    212.0798     23.6498 307.8553488  +6.6676508     737.4717     1117.244     375.1353     78.29227     156.2745     312.3318      1.590     3.48     834.7123     55.05355     156.8885         5     1.009     0.347  47.58   0
       657    266.9466     23.0909 307.8325688  +6.6697267      986.783     1234.147      1784.01     78.16829     156.0261     312.4559      1.422     4.77     835.2432     55.05355      123.661         9     0.846     0.763  55.50   0
       658    251.7997   1016.8464 307.8054304  +6.2590272     1294.074     1912.422     2038.358     77.54543     155.9017     311.0248      1.641     4.60     856.8632     55.05355     181.5613        14     1.243     0.790  54.95  16
       659      2.2446     20.9398 307.9426315  +6.6617028     1147.446     1770.787     1657.276     77.16929     137.0292     249.6106      1.693     5.97     831.8769     55.05355     137.6686        14     1.277     0.855  62.45  24
       660    450.3864   1016.2969 307.7229940  +6.2659191      984.114     1361.191     1271.925     78.16829     155.9639     312.1143      1.467     4.29     859.3837     55.05355     144.3353        11     1.152     0.766  22.12  16
       661    742.6670   1014.5604 307.6016911  +6.2764222       1026.6     1658.164     1617.337     78.16829     156.1503     312.4249      1.781     6.65     857.9157     55.05355      119.852        15     1.471     0.844  67.66  16
       662    727.0084   1015.0647 307.6081761  +6.2756904     2462.539     4168.714     5045.396     77.79517     155.9639     312.2075      1.857     3.81     858.1527     55.05355     367.3187        23     1.393     0.969  45.14  16
       663    373.7040   1012.4991 307.7549610  +6.2649146     1748.178     2770.543     2978.978     78.29227     156.7084     312.1765      1.679     4.68     859.2211     55.05355     212.9824        20     1.483     0.882  64.77   0
       664     90.2256     17.4061 307.9061929  +6.6661261     408.2923     415.9968     425.0071     77.79517     156.0261     312.1454      1.061     3.45     832.3588     55.05355     68.21405         5     0.761     0.453  18.04   0
       665    721.1292   1017.4290 307.6105382  +6.2745179     1101.662     1634.255     2704.902     78.16829     156.2124     308.5829      1.900     5.72     858.2401     55.05355     133.8336        11     0.999     0.921  52.91  16
       666    760.5779   1002.3708 307.5946616  +6.2820526     7196.641     12146.54     13133.88     77.67039     155.9639     312.2075      1.806     4.19     857.0062     55.05355     866.1052        38     1.615     1.134  58.74   0
       667    556.0121   1002.7509 307.6795905  +6.2750504     3949.064     6560.879     7432.912     77.67039     156.1503     312.0211      1.824     4.12     859.1075     55.05355     479.2195        32     1.574     1.066  60.88   3
       668    553.2303    995.0825 307.6810026  +6.2781226     7888.326     12818.26     13908.08     78.16829     156.0261     312.3007      1.744     4.09     858.9628     55.05355     996.1651        43     1.686     1.107  50.76   3
       669    526.4578   1003.8752 307.6918244  +6.2735962     1097.032     1600.324     1624.153     78.41605     156.2124     312.3007      1.547     4.13     859.2128     55.05355     139.2886        11     1.041     0.711  21.55   0
       670    306.3388   1001.4689 307.7833022  +6.2672064     14416.85      23302.6     26258.36     78.41605     156.2124     312.3628      1.846     3.96     857.1864     55.05355     1798.502        59     1.636     1.539 -39.65   0
       671    821.9240   1001.7698 307.5692087  +6.2843508     1111.714     1980.905      1839.69     78.16829     156.2745     312.3318      1.901     6.43     855.6832     55.05355     150.6549        15     1.528     0.760  30.58   0
       672    430.2771   1001.9849 307.7318239  +6.2711524     1014.209     1523.166     1013.433     77.91974     155.9017     312.1765      1.499     5.57     858.9727     55.05355     143.1379        12     1.225     0.744  50.96   0
       673      2.8365   1002.1646 307.9092930  +6.2567133     649.7575     924.2763     1208.931     78.04411     143.8658     257.9798      1.566     5.62     853.0004     55.05355      91.9726         7     1.227     0.725  44.90  24
       674    277.4831    999.2440 307.7953581  +6.2671557     750.9781     1350.895     2068.174     78.29227     156.2124     312.3007      2.305     6.26     856.5826     55.05355     97.74036        10     1.556     0.708  51.39   0
       675    921.9056    995.8427 307.5278905  +6.2901361     7576.162     13347.03     14550.15     78.29227     156.1503     312.4559      1.910     4.41      854.468     55.05355      854.443        45     1.758     1.193  56.16   0
       676    410.1062    996.4637 307.7403846  +6.2727549      488.332     632.3066     473.1994     78.16829     156.2745     312.3939      1.698     4.22     858.7641     55.05355      77.7832         5     1.553     0.327  27.60   0
       677    895.4980    991.9148 307.5389873  +6.2908759      10915.7     19591.78     21382.85     78.29227     156.6465     312.3939      1.949     4.24     854.7123     55.05355     1262.536        59     1.814     1.357  53.37   0
       678   1017.2594    991.3181 307.4884465  +6.2951848     4060.928     7460.552     7809.869     78.41605     156.2745     309.6183      1.970     4.65     852.1041     55.05355     421.5818        38     1.686     1.288  63.01  16
