#   1 NUMBER                 Running object number                                     
#   2 X_IMAGE                Object position along x                                    [pixel]
#   3 Y_IMAGE                Object position along y                                    [pixel]
#   4 ALPHA_J2000            Right ascension of barycenter (J2000)                      [deg]
#   5 DELTA_J2000            Declination of barycenter (J2000)                          [deg]
#   6 FLUX_APER              Flux vector within fixed circular aperture(s)              [count]
#   9 FLUXERR_APER           RMS error vector for aperture flux(es)                     [count]
#  12 FLUX_RADIUS            Fraction-of-light radii                                    [pixel]
#  13 FWHM_IMAGE             FWHM assuming a gaussian core                              [pixel]
#  14 BACKGROUND             Background at centroid position                            [count]
#  15 THRESHOLD              Detection threshold above background                       [count]
#  16 FLUX_MAX               Peak flux above background                                 [count]
#  17 ISOAREA_IMAGE          Isophotal area above Analysis threshold                    [pixel**2]
#  18 A_IMAGE                Profile RMS along major axis                               [pixel]
#  19 B_IMAGE                Profile RMS along minor axis                               [pixel]
#  20 THETA_IMAGE            Position angle (CCW/x)                                     [deg]
#  21 FLAGS                  Extraction flags                                          
         1    176.8207     24.4464 307.8649217  +6.6680430     10382.63     16564.33     16841.16     77.78447     155.9413     311.6345      1.706     4.12     825.8137     54.95797     1337.929        38     1.598     1.009  53.60   0
         2    521.1292     22.5837 307.7219266  +6.6803761     2873.735      4646.72     4678.164     77.66011     155.8793     311.6655      1.701     4.25     811.3983     54.95797     395.7365        26     1.571     0.903  52.56   0
         3    987.2423     18.5415 307.5283842  +6.6976343     2050.303      3497.71     4103.558     78.03259     155.9413     311.8515      1.881     4.75     805.1057     54.95797     281.8722        21     1.684     0.834  56.35   0
         4    706.6021     14.9860 307.6451165  +6.6897252     7341.698     11335.61     12103.95     77.78446      155.631     311.6035      1.644     4.54     811.2343     54.95797     1071.652        33     1.614     0.893  56.82   0
         5    626.8624     14.1464 307.6782778  +6.6874025     3561.089     5690.276     5704.397     78.15634     155.8793     311.7585      1.690     4.30     811.5208     54.95797     558.7347        25     1.503     0.879  55.38   0
         6    328.8284     13.4578 307.8021358  +6.6776903     908.3272     1462.206     1510.693     77.78447     156.0032     311.6965      1.700     3.68     823.4524     54.95797     140.5056         9     1.021     0.689  46.36   0
         7    382.2674     12.1704 307.7799755  +6.6800165     759.2202     1092.328     1030.664     77.90862     155.9413     311.7585      1.706     4.48     819.5855     54.95797     111.7769         9     1.026     0.633  57.49   0
         8     27.9632     10.0033 307.9272578  +6.6689937     8090.651     13124.21     13941.27     77.28584     155.8172     311.5724      1.686     4.17     826.6268     54.95797     1047.432        36     1.635     0.988  54.90  16
         9    426.9895     10.3914 307.7614534  +6.6822522     6015.794     9534.882     9967.097     77.66011     155.7552     311.7275      1.690     4.16     815.6765     54.95797     747.7294        30     1.595     0.925  52.04  16
        10    673.5629      9.1254 307.6590422  +6.6910392     799.6035     1043.804     827.2438     78.03259     156.0032     311.7895      1.502     4.69     811.4869     54.95797     117.8535         9     1.102     0.604  56.57   0
        11    502.3364      7.4924 307.7302441  +6.6859767     813.4612     1449.916     1917.161     78.15635     156.1271     307.7018      2.058     6.20     810.6598     54.95797     137.9288        13     1.629     0.664  47.64  16
        12    323.5476      5.3093 307.8046053  +6.6808771     12811.72     20313.31     21752.94     78.03259     155.7552     288.9431      1.733     4.12     823.7158     54.95797     1631.789        42     1.620     1.054  54.61  24
        13     97.2057      5.6847 307.8986354  +6.6731091      2532.06     4126.181       4521.8     77.66011      155.631     292.4012      1.710     4.40     825.8148     54.95797     301.1429        23     1.587     0.865  53.90  16
        14    418.6346      5.7201 307.7650826  +6.6839004     701.0195     1133.883     1433.521     78.03259     156.0032     293.0945      1.579     5.70     816.4131     54.95797      98.0036        11     1.434     0.638  49.88  16
        15     88.3517      4.3846 307.9023581  +6.6733477     1511.016     2508.067     2837.878     77.53555     155.6931     278.0678      1.749     4.78     825.7927     54.95797     203.8408        15     1.347     0.726  61.75  16
        16    389.6850      3.3217 307.7771923  +6.6839189     2342.693     3556.097     3405.879     78.15635     148.9026     264.6031      1.630     4.43     818.9042     54.95797     314.7004        22     1.535     0.860  52.84  24
        17    791.6716      3.4114 307.6101577  +6.6973495     749.0214     1181.004     1107.013     77.66011     149.2268     265.7694      1.750     3.90     809.3107     54.95797     100.2842         6     0.841     0.533  41.86  16
        18    457.8186      2.8447 307.7488985  +6.6864025     541.3143     835.7683     603.2881     77.78446     143.7506     257.6445      1.498     3.70     812.5806     54.95797      92.6264         5     0.972     0.404  44.37  16
        19    651.2964      1.2662 307.6685590  +6.6935387     2006.077     2402.185     2435.859     66.96759     122.8701     233.6018      0.987     2.26     811.2612     54.95797     555.7238        10     1.072     0.441  -1.72  24
        20   1004.6842    995.0947 307.4883863  +6.2950022     4125.945     7457.403     8145.834     78.03259     156.3127     311.9135      1.943     4.57     837.1238     54.95797      488.307        38     1.767     1.202  45.23   0
        21    954.6741   1020.8029 307.5082888  +6.2827196     5841.789     10441.39     11104.23     77.66011     154.5717     275.9394      1.902     4.53      841.606     54.95797     705.0303        41     1.731     1.144  52.28  24
        22    595.8458    995.9791 307.6581045  +6.2809788     1283.659     2200.013     2163.281     77.78446     155.9413     311.6345      1.787     5.55     846.4411     54.95797     177.5768        15     1.383     0.758  52.39   0
        23    526.9244    994.5106 307.6867689  +6.2792772     3798.385     6618.019     7363.229     78.15634     156.2508     311.8825      1.909     4.56     848.5807     54.95797     467.6336        26     1.595     0.959  54.51   2
        24    636.5405    994.0601 307.6412731  +6.2831331      1486.85     2279.703     2688.808     78.15634     155.9413     311.8205      1.773     3.58     845.8916     54.95797     208.8516        15     1.233     0.776  55.71   0
        25     61.6774    993.1354 307.8799712  +6.2642252     893.0442     1394.118     1554.256     78.40328     155.9413     311.7895      1.545     4.60     845.5277     54.95797     136.5313        10     1.057     0.700  36.88   0
        26    480.2831    990.9394 307.7062539  +6.2791890     1871.182     3051.337     3009.396     78.27991     156.0032     311.8205      1.758     4.93     848.4311     54.95797     237.0994        21     1.518     0.996  53.52   0
        27    914.6813    983.1451 307.5261565  +6.2969341     38327.52     67355.88     72586.37     78.15635     155.9413     311.8205      1.875     4.53     842.0884     54.95797     4654.499        76     1.869     1.241  53.79   0
        28    319.5559    984.3043 307.7732078  +6.2765379     501.1214     978.8583     710.1336     78.15635     155.8793     311.9135      1.678     3.48     847.9088     54.95797     85.51392         5     1.045     0.335  68.25   0
        29    221.9137    981.3108 307.8138471  +6.2744949     1615.084     2546.378     1977.603     77.90862     156.3745     311.9135      1.661     4.91     847.1502     54.95797     213.1591        21     1.601     0.873  55.95   0
        30    620.5582    979.2357 307.6484074  +6.2887191     912.7728     1140.463     685.2551     77.90862     155.9413     311.6345      1.506     5.25     845.7702     54.95797     143.3245        11     1.311     0.627  43.77   0
        31    109.4513    980.0365 307.8605805  +6.2712406     509.2916      805.446     1136.159     78.03259     155.9413     311.7585      1.501     4.76     845.6219     54.95797     71.34784         7     1.011     0.635  32.66   0
        32    812.7144    976.8132 307.5687060  +6.2961441      2103.13     3361.681     3478.229     77.78446     155.8172     311.6655      1.676     4.82     843.2922     54.95797     267.7155        18     1.377     0.831  49.28   0
        33    760.7205    974.8268 307.5903607  +6.2952271     6008.596     10298.86     11574.84     78.03259     155.8172     311.7895      1.854     4.55     843.6815     54.95797     750.7531        39     1.638     1.216  57.30   0
        34    547.4943    974.0162 307.6789186  +6.2884280     923.5577       1362.5     1314.138     77.90862     155.7552     311.6345      1.668     5.62     847.6645     54.95797     153.7421        12     1.319     0.675  48.06   0
        35    230.1534    973.8943 307.8106767  +6.2778338     1299.031     2089.332      1405.24     78.03259     155.8793     311.9135      1.728     6.21     847.0689     54.95797     202.0967        15     1.504     0.721  56.77   0
        36    194.4844    973.2009 307.8255088  +6.2769216     690.6128     1168.701     822.2211      77.4108     155.5068     311.5104      1.577     4.57     846.7084     54.95797     108.3926         8     1.285     0.461  46.55   0
        37     55.0930    971.8039 307.8834262  +6.2728108     2528.442      4325.72     4636.053     77.78446      155.631     311.5104      1.772     4.35     845.0502     54.95797     354.6205        26     1.576     0.981  54.86   0
        38    949.0135    969.9186 307.5123451  +6.3035408     5858.781     10512.29     10680.31     77.78446     155.6931     311.6035      1.891     4.70     840.2003     54.95797     700.6178        37     1.747     1.078  55.40   0
        39    630.9103    964.3311 307.6446106  +6.2952195     751.5311     1175.475     1586.911     78.27991     156.1271     311.7895      1.899     5.97     845.5287     54.95797     123.6289        12     1.465     0.781  57.75   0
        40    922.8372    961.6518 307.5234910  +6.3060808     808.9371     2039.584     2576.125     78.03259     155.9413     311.7895      2.505     4.84     840.9737     54.95797     232.8202        23     1.776     0.871  40.58   0
        41    992.5424    956.1710 307.4947322  +6.3106689     553.0748     1067.985     1392.817     77.78447     156.0032     311.6965      2.611     4.99     837.8497     54.95797     81.09631         6     1.016     0.695  68.49   2
        42    255.7278    957.6242 307.8006082  +6.2854105     4059.832      6929.57     7792.969     77.78447     155.8172     311.7585      1.880     4.64     847.0347     54.95797     554.0265        33     1.715     1.003  53.55   0
        43    782.6702    957.8624 307.5818169  +6.3029651     1228.909     2127.044     2336.021     78.15635     155.9413     311.8515      1.762     6.04     843.4637     54.95797     159.4575        16     1.691     0.651  36.67   0
        44    643.5283    957.3584 307.6396062  +6.2985206     4242.695     6911.693      6550.17     78.03259     155.9413     311.8515      1.712     4.35     845.2396     54.95797     574.0714        28     1.594     0.922  50.58   0
        45    465.5226    955.8555 307.7135641  +6.2931799     1086.022     1586.948     1715.338     78.15635     155.9413     311.7895      1.683     5.57     847.2749     54.95797     133.7081        14     1.346     0.761  66.38   0
        46     24.3211    954.9096 307.8967731  +6.2787503     2032.457      3292.71     3564.673     77.90862      156.189     311.8515      1.777     4.42     844.3066     54.95797     279.2549        20     1.470     0.852  55.64   0
        47    875.4492    954.3565 307.5434119  +6.3075113     882.3369     1155.251     1104.515     78.15635     155.8793     311.7585      1.573     5.68     842.1952     54.95797     141.8524        11     1.459     0.720  78.14   0
        48    946.8173    951.1228 307.5138872  +6.3112282     636.6786     1178.704     1400.786     77.66011     155.6931     311.6965      2.288     5.61     839.5438     54.95797     105.1755         7     1.175     0.755  40.09   0
        49    568.3798    950.1620 307.6710500  +6.2989765     1544.358     2626.596     2898.263     77.78446     155.6931     311.5104      1.760     5.31     846.3925     54.95797     215.0664        21     1.651     0.841  45.15   0
        50    291.4340    950.7401 307.7860160  +6.2894518     819.2638     1355.317     1799.814     78.03259     156.0032     311.7275      1.679     4.99     847.3444     54.95797     112.2216         9     1.121     0.628  46.22   0
        51    999.4151    949.2079 307.4921119  +6.3137731     716.8475     1406.559     1239.528     77.78447     155.6931     311.6345      1.842     5.38      837.611     54.95797     100.0942         8     1.218     0.781  34.16   0
        52    607.4335    946.3883 307.6549618  +6.3018421     1160.671      1999.34     2450.989     77.66011     155.6931     311.6345      1.913     4.29     845.7911     54.95797     175.4171        12     1.204     0.749  50.96   0
        53     56.8987    946.7751 307.8835232  +6.2832053     851.3901     1536.831     1724.965     78.27991     155.6931     311.6345      2.136     4.87     844.5128     54.95797     128.7555        10     1.154     0.722  33.46   0
        54    287.2423    943.9450 307.7879857  +6.2921166      1264.34     2497.218     3407.168     78.03259     155.9413     311.8205      2.233     5.84     847.1956     54.95797     164.1458        16     1.607     0.839  54.01   0
        55    554.7262    941.9552 307.6769952  +6.3019078     616.9719     930.8031     1227.596     78.03259     156.0032     311.8205      1.730     4.95     846.3082     54.95797     100.3369         8     1.580     0.439  43.87   0
        56    754.1728    940.0269 307.5942485  +6.3093769     763.7897     1506.134     1678.624     77.66011     155.7552     311.6345      2.026     6.52     843.5188     54.95797     102.6642        14     1.744     0.684  57.71   0
        57    891.7052    936.7681 307.5372522  +6.3153162     6488.536     10917.22     11624.15     78.27991     155.7552     311.8515      1.816     4.48     841.2188     54.95797     788.4877        37     1.671     1.063  53.44   0
        58    101.5823    936.4236 307.8653220  +6.2889825     366.9739     660.8914     522.8693     77.78447     155.7552     311.6655      1.515     5.34     845.0145     54.95797     88.77924         7     1.966     0.410  49.25   0
        59    427.6519    933.9957 307.7300245  +6.3009359     1981.071      3210.84     3385.288     77.53555     155.7552     311.4173      1.800     5.49     846.7034     54.95797     267.9586        18     1.479     0.794  60.76   0
        60    329.2231    932.2697 307.7709497  +6.2983465     8912.502     14646.76     15859.27     77.78447     155.8172     311.7585      1.770     4.46     847.0193     54.95797     1230.549        40     1.677     1.026  54.50   0
        61    249.2733    931.1713 307.8041811  +6.2961155     6612.265     10859.67     11270.24     78.03259     155.9413     311.7585      1.751     4.64     846.3687     54.95797     848.0148        35     1.658     0.990  55.57   0
        62    577.3685    925.8209 307.6681371  +6.3093277     958.7592     1613.859     1591.919     77.66011     155.7552     311.6655      1.785     5.10     845.7453     54.95797      169.375        13     1.462     0.661  43.66   0
        63    762.1920    924.8243 307.5914295  +6.3159219     613.3704     1247.895     1358.047     77.78446     155.7552     311.6345      2.258     5.38     843.3385     54.95797     98.08765         8     1.421     0.575  54.48   0
        64    907.7046    922.0942 307.5311012  +6.3219090     942.0266     1781.568     2077.383     78.15635     156.5598     311.7275      1.950     6.77     840.0229     54.95797     117.3382        16     1.579     0.814  57.65   0
        65    864.1570    921.1350 307.5492154  +6.3208513      705.782     1158.606     1242.992     78.15634     155.8793     311.7895      1.699     4.69     842.2469     54.95797     119.5242         6     1.071     0.583  69.92   0
        66    405.7193    919.7103 307.7396124  +6.3060986     602.5222     869.2969       406.11     77.90862     156.1271     311.8825      1.475     4.94     846.5426     54.95797     88.57697         6     0.900     0.767 -17.18   0
        67    974.8476    917.9075 307.5033621  +6.3258777     670.1577      968.077     1168.311     78.03259     155.8793     311.9135      1.436     4.94     837.6531     54.95797     117.2847         8     1.473     0.469  57.32   0
        68    743.7227    914.8433 307.5994336  +6.3194257     1594.465     2591.301     3439.284     78.03259     155.9413     311.8205      1.741     5.32     843.3212     54.95797     232.3095        19     1.613     0.801  56.49   0
        69    836.5146    915.2399 307.5608910  +6.3223623     599.7699     665.7714     453.0105     78.15635     155.8793     311.7585      1.484     3.43     842.3604     54.95797     102.7372         5     1.084     0.314  67.97   0
        70    567.6168    915.2130 307.6725431  +6.3133811     741.0654     1080.897     530.3353     77.90862      155.631     311.7275      1.405     4.16     845.6157     54.95797     121.8983         8     1.046     0.595  29.57   0
        71    975.1766    910.2930 307.5034807  +6.3290327     1350.669     2369.384     2957.324     78.15635     155.7552     311.6345      2.004     5.20     837.3215     54.95797     159.1799        19     1.498     0.850  49.19   0
        72    619.3581    911.1868 307.6511950  +6.3167756     572.6843     692.2705     408.8807     77.53555     155.7552     311.5414      1.340     4.96     844.9041     54.95797     88.03125         7     1.242     0.560  51.50   0
        73    607.9141    911.4780 307.6559369  +6.3162723      814.336     1298.294     1123.443     78.15634     156.2508     311.8825      1.779     4.93     845.1509     54.95797     144.7973         9     1.278     0.538  47.85   0
        74    528.6722    910.3361 307.6888775  +6.3140903     966.8971     1828.519     1849.073     78.15635     155.9413     311.8205      1.992     5.64     845.8872     54.95797     123.0383        14     1.420     0.819  55.18   0
        75    662.4443    908.2723 307.6334029  +6.3194207     2519.141     4350.635     5128.371     78.03259     156.0032     311.8205      1.912     6.62     843.8275     54.95797      436.355        23     1.649     0.798  54.20   0
        76     59.0089    904.4391 307.8840793  +6.3007556     2776.139     4771.171     5070.263     77.53555     155.7552     311.5104      1.854     4.83     843.8358     54.95797     355.6278        28     1.701     0.992  63.48   0
        77    823.2337    904.3083 307.5667726  +6.3264324     769.8542     1067.877     1054.966     78.27991     155.8172     311.8205      1.458     4.50     842.1666     54.95797     141.2047         8     1.178     0.489  44.29   0
        78    202.4162    903.0703 307.8245847  +6.3061435     2119.762     3470.497     3994.575     77.66011     155.8793     311.6965      1.750     4.53      845.565     54.95797       283.91        17     1.413     0.745  56.55   0
        79     76.3431    903.4540 307.8769158  +6.3017456     1885.156     2924.082     3022.118     78.27991     155.9413     311.7895      1.601     4.37     844.1534     54.95797     248.7224        16     1.303     0.789  53.91   0
        80    940.1373    903.3866 307.5182617  +6.3307155     771.1543     1142.425     1018.952     77.66011     155.7552     311.6345      1.556     5.31     838.2835     54.95797     114.4387        10     1.367     0.582  26.40   0
        81    341.1921    899.1990 307.7670959  +6.3124025     781.1481     1185.719     1322.142     77.53555      155.631     311.6035      1.763     5.18     846.4646     54.95797     111.8835        10     1.526     0.496  57.11   0
        82    236.2285    900.1380 307.8106451  +6.3084903     862.1407     1381.882     946.9608     77.78446     155.9413     311.7585      1.655     4.66     845.8771     54.95797     135.4512         8     1.153     0.586  49.28   0
        83    656.9766    897.3707 307.6360398  +6.3237390      6536.17     10893.43     11168.39     77.66011     155.8172     311.6345      1.757     4.47     843.7134     54.95797     898.4193        37     1.593     1.095  49.37   0
        84    794.3375    897.8130 307.5789892  +6.3281489     721.8945     1015.579     897.6334     77.66011     155.7552     311.5724      1.531     5.41      842.335     54.95797     132.4612        11     1.497     0.552  60.40   0
        85    894.8529    893.7753 307.5373877  +6.3331728     2641.346     4473.881     4768.377     77.66011     155.9413     311.6965      1.818     4.56     840.0456     54.95797     340.0214        26     1.634     0.927  54.10   0
        86     16.9761    895.3022 307.9018397  +6.3031132     1113.053     1748.243      1950.04     78.27991     155.6931     311.6345      1.704     5.98     842.9024     54.95797     136.8688        15     1.412     0.743  36.49   0
        87     30.0164    893.7166 307.8964793  +6.3042068     993.6554     1666.125     1475.016     77.78446      155.631     311.6965      1.713     5.58     843.1428     54.95797     129.0051        13     1.361     0.798  45.93   0
        88    339.9341    890.4822 307.7679123  +6.3159593     15782.21     25334.08     26798.87     78.40328      156.189     311.8515      1.742     4.34     846.3196     54.95797     2033.147        44     1.651     1.050  54.09   0
        89    210.9715    890.1146 307.8214703  +6.3117801     1120.972      1890.57      1530.03     78.27991      155.631     311.6345      1.702     6.80     845.5162     54.95797     149.5964        15     1.707     0.759  60.34   0
        90     74.5139    891.2368 307.8780885  +6.3067283     1323.759     2036.793     2301.347     78.15635     155.8793     311.7895      1.671     4.69     843.9821     54.95797       175.16        17     1.313     0.884  53.54   0
        91    390.8635    889.5630 307.7467971  +6.3180476      676.037     1195.328     1147.342     78.15635     155.9413     311.7895      1.989     5.08     846.1318     54.95797     99.87152         8     0.988     0.738 -83.17   0
        92    417.7074    881.0943 307.7359367  +6.3224446     980.2227     1523.372     1349.682     78.15635     156.4363     311.7895      1.674     5.48     845.9267     54.95797     132.3445        11     1.419     0.596  59.44   0
        93    103.0588    881.0001 307.8665831  +6.3119150      1603.03     2639.297     2769.815      77.4108     155.5689     311.4483      1.698     4.88      844.358     54.95797     200.1624        17     1.349     0.843  58.53   0
        94    671.3935    877.4737 307.6307227  +6.3324366     831.7651     1571.925     1766.618     77.78447     155.5068     311.6655      2.185     5.06     843.0818     54.95797     107.5291         8     1.405     0.515  71.38   0
        95    885.0297    875.3959 307.5420834  +6.3404337     1913.196     3039.396     3581.726     77.66011     155.7552     311.6035      1.794     4.88       839.98     54.95797     272.0444        19     1.599     0.777  55.02   0
        96    497.5236    877.4346 307.7029190  +6.3266313     581.1711     1041.193     1929.993     78.03259     156.0032     311.7585      1.938     5.02     845.7753     54.95797     95.77588         9     0.957     0.790  68.43   0
        97    855.8074    874.8594 307.5542356  +6.3396796     1843.867     3110.209      2642.49     77.53555     155.8172     311.5414      1.669     4.18     840.8453     54.95797     262.4199        19     1.439     0.807  45.18   0
        98    819.2414    874.2798 307.5694386  +6.3386977     2930.556     4675.883     4734.541     78.15635     155.9413     311.7585      1.683     4.54     841.2487     54.95797     371.8381        26     1.590     0.948  53.21   0
        99     86.7003    874.5606 307.8735928  +6.3140234     2293.321     3630.156     4203.499     78.15635     155.8172     312.0064      1.776     4.35     844.0151     54.95797     282.9747        24     1.508     0.926  53.44   0
       100    555.0929    865.7264 307.6794092  +6.3333941     316213.4       510660     540254.8     78.03259     156.0652     311.8205      1.719     4.45     845.2763     54.95797     41627.13       189     1.866     1.288  54.37   0
       101    449.5952    873.0336 307.7229681  +6.3268420     592.0794     1000.117     1351.386      77.4108     155.8172     311.5724      1.661     3.27     845.7985     54.95797     126.5132         6     0.989     0.641  30.55   0
       102    334.6249    872.5205 307.7707228  +6.3231971     622.0532     753.6472     857.4042     77.90862     155.7552     311.7895      1.540     3.43     846.0805     54.95797     103.4658         5     1.057     0.321  68.92   0
       103    399.2809    868.1886 307.7440228  +6.3271551     7172.155     11690.66     12634.24     77.78446     155.6931     311.6345      1.738     4.46     845.7657     54.95797     939.9471        38     1.655     1.072  54.98   0
       104    642.9468    868.6263 307.6428322  +6.3351378     1190.402     1933.102     1630.505     77.90862     156.0652     311.6965      1.686     4.89      843.319     54.95797     160.1065        17     1.428     0.831  45.81   0
       105    342.5263    866.6828 307.7676390  +6.3258726     12281.23     19833.02     21185.05     78.40329     156.2508     311.8515      1.778     4.60     845.9083     54.95797     1637.507        43     1.643     1.058  53.26   0
       106    660.8773    862.9731 307.6355769  +6.3380719     3525.113     5680.962     5786.959     78.03259     155.9413     311.7585      1.675     4.21      842.989     54.95797     505.3365        27     1.679     0.863  53.34   0
       107    893.4050    861.9398 307.5390571  +6.3462692     4865.328     8324.748     9505.167     77.66011     155.8172     311.5724      1.862     4.41     839.3578     54.95797      646.282        33     1.647     1.052  53.52   0
       108    732.7325    859.5289 307.6058559  +6.3418972     729.8004     1196.095     1182.092     78.15635     156.0652     311.7585      1.891     5.14     842.6814     54.95797     135.3195         7     1.459     0.512  61.57   0
       109    635.7396    856.9382 307.6462180  +6.3397226     3224.788     5183.083     5567.225     78.15635     155.9413     311.8205      1.700     4.65     843.2393     54.95797     472.2971        22     1.474     0.841  59.35   0
       110    824.2243    856.0453 307.5679818  +6.3463930     1675.006     2525.632     2543.786     77.66011     155.9413     311.6655      1.626     5.46     840.7502     54.95797     227.0629        18     1.517     0.786  50.84   0
       111    626.3237    855.9919 307.6501596  +6.3397981     907.1377     1510.653     2054.486     77.78446     155.4446     311.5724      1.924     5.57     843.3394     54.95797     163.9906        13     1.458     0.600  58.21   0
       112    178.1696    856.3277 307.8362312  +6.3246275     565.4498     651.8278     867.6808     78.03259     155.9413     311.7585      1.399     4.46     844.9202     54.95797     84.94092         5     0.970     0.737 -81.23   0
       113    950.2273    854.5428 307.5157100  +6.3512196     699.7136     1380.068     1631.714     77.78447     156.0032     311.6965      2.228     5.74     836.7385     54.95797     93.64697         9     1.215     0.765  46.76   0
       114    628.5569    851.4227 307.6493860  +6.3417595     2113.222      3270.97     3579.659     77.66011     155.8172     311.6035      1.770     4.64     843.2567     54.95797     287.2142        21     1.567     0.829  44.53   1
       115    912.6896    849.8362 307.5314554  +6.3519104     2820.158     5658.441     5715.413     78.27991     155.8793     311.7895      1.979     7.62     838.3382     54.95797      933.053        24     1.772     0.917  41.10   0
       116    322.0696    850.1623 307.7766903  +6.3320070     907.0468     1627.071     1424.202     78.03259     155.9413     311.8825      1.706     5.64     845.9182     54.95797     140.6083        11     1.408     0.639  47.05   0
       117    370.4109    845.6002 307.7567719  +6.3355130     2567.903     4121.124      4506.79     77.78447      155.631     311.6035      1.700     4.68     845.5778     54.95797     352.5987        21     1.549     0.799  50.34   0
       118    506.6468    835.3534 307.7005483  +6.3443118     2900.843      4551.69     4557.884     78.15635     155.8172     311.7895      1.705     4.32     844.3141     54.95797     414.4208        23     1.541     0.867  53.46   0
       119    851.4496    834.2495 307.5574084  +6.3563017     1139.662     1700.053     1440.828     78.15635     155.8172     311.7275      1.506     5.37      839.888     54.95797     157.2348        12     1.378     0.728  68.94   0
       120    553.5217    831.4824 307.6812145  +6.3474804      5815.82     9099.655     9546.448     78.27991      156.189     311.9135      1.719     4.50     843.9245     54.95797     748.7896        32     1.609     0.943  53.51   0
       121    889.2653    829.7880 307.5418550  +6.3594064     1217.838     2059.892     2252.053     77.66011     155.7552     311.6655      1.705     5.56     838.6681     54.95797     178.4361        16     1.450     0.776  66.28   0
       122    560.5832    830.8677 307.6783030  +6.3479708     1132.416     1917.953     1853.114     77.66011     155.8793     311.6965      1.836     5.18     843.8306     54.95797     168.9739        16     1.449     0.811  50.24   0
       123    471.3178    830.3257 307.7153875  +6.3452036     1492.652     2567.719     2147.562     78.40329     156.2508     311.8515      1.790     4.37     844.2986     54.95797     236.7681        17     1.461     0.794  52.40   0
       124    265.1737    831.2352 307.8009535  +6.3379111     606.2419     1082.113     901.1217     77.53555     155.6931     311.5414      1.962     4.91     845.5655     54.95797     125.0386         7     1.390     0.602  62.14   0
       125    112.8700    829.4827 307.8642516  +6.3335153     1257.842     1909.929     2099.938     78.40328      156.189     311.8205      1.679     5.70     843.4314     54.95797     179.2763        14     1.345     0.721  49.35   0
       126    524.1954    825.3664 307.6935979  +6.3490233     18728.34     30113.98     31990.37      77.4108     155.8172     311.5724      1.711     4.39     843.8286     54.95797     2621.765        48     1.690     1.024  53.61   0
       127    688.4349    828.2213 307.6253026  +6.3533425     576.9772     968.4388     740.3245     77.66011     155.7552     311.5414      1.586     2.85     842.4764     54.95797     103.6582         5     0.710     0.473  73.82   0
       128    364.8390    826.7914 307.7597200  +6.3430918     745.0287     1266.073     1376.313     77.53555     155.7552     311.5104      1.667     5.54     845.4422     54.95797     115.7081        12     1.517     0.571  45.98   0
       129    937.7975    823.7646 307.5219038  +6.3635132     3489.492     5911.778     6550.975     77.28584     155.7552     311.6035      1.843     4.38     836.6653     54.95797     442.9077        28     1.578     0.987  56.82   0
       130    170.6167    824.9540 307.8404275  +6.3373270     588.7848     702.1152     192.1347     77.66011     155.8172     311.5724      1.439     3.41     844.4835     54.95797     101.9123         5     0.761     0.443  71.13   0
       131     57.4094    821.2692 307.8875572  +6.3350404     469.2656     722.2383     859.8001     77.66011     155.7552     311.6345      1.339     3.33     842.6302     54.95797      99.7218         5     0.751     0.428  66.89   0
       132    692.3506    818.3967 307.6240069  +6.3575300     557.5718     910.9448     958.5068     77.53555     155.6931     311.3863      1.989     5.48     842.2786     54.95797     91.47913         7     1.431     0.593  32.32   0
       133     34.2755    815.5693 307.8973554  +6.3366149     1528.909     2490.468     2556.817     78.03259     156.0032     311.7895      1.752     4.31     842.4482     54.95797     227.9935        18     1.466     0.781  50.61   0
       134    316.7497    813.8654 307.7801242  +6.3468147     3133.899     4886.157     4681.864     78.03259     155.8793     311.7895      1.617     4.17     845.5325     54.95797     432.6273        22     1.482     0.871  51.35   0
       135    782.3503    809.9772 307.5869172  +6.3640153     52093.06     84096.35      88156.7     77.78446     156.0032     311.6965      1.707     4.53     840.6334     54.95797     7158.177        66     1.726     1.077  54.43   0
       136     16.6976    812.1476 307.9047698  +6.3374359     2027.041       3094.5     3304.115     78.03259     155.9413     312.0374      1.658     4.27     842.3582     54.95797     266.1971        19     1.501     0.786  54.64   0
       137    720.2744    811.0598 307.6126582  +6.3614932     571.3126     1018.745     1645.543     78.40328     155.9413     311.7585      2.132     3.86     841.4109     54.95797      101.553         5     0.847     0.505  32.77   0
       138    425.7317    808.7224 307.7350447  +6.3525949     855.2511     1515.824     1377.674     78.27991     156.0652     311.7895      1.942     4.24     844.4911     54.95797     133.8287        11     1.184     0.948  34.86   0
       139    239.4797    807.8013 307.8124136  +6.3467234     5129.688     8779.031     10709.38      77.4108     155.3824     311.5724      1.970     4.10     844.9786     54.95797     732.5184        38     1.681     1.083  55.28   0
       140    907.5884    805.1811 307.5350719  +6.3701781     7976.476     13123.93     14169.05     77.78447     155.6931     311.6965      1.759     4.27     837.3239     54.95797     1032.261        38     1.677     1.032  55.37   3
       141    904.4880    796.5633 307.5366485  +6.3736329      6410.04     10437.28     11118.09     78.15635     155.8172     311.7895      1.791     4.46     837.2654     54.95797     850.4277        37     1.730     1.017  53.70   2
       142    710.4982    804.4446 307.6169402  +6.3638976     20904.76     34039.96     37993.43     78.15635     155.8793     312.0064      1.807     4.31     841.5404     54.95797     2870.152        55     1.906     1.045  59.47   3
       143    704.2775    801.0262 307.6196383  +6.3651010     83206.54     134263.9     142436.7     78.03259     155.8793     311.7585      1.722     4.52     841.6749     54.95797     11219.96        79     1.779     1.097  56.49   3
       144    349.1889    801.9020 307.7670581  +6.3528431     19420.66     31593.65     33790.73     77.90862     155.5689     311.6345      1.733     4.63     845.3862     54.95797     2637.908        54     1.708     1.085  51.80   0
       145    411.0496    799.7090 307.7414451  +6.3558240     20905.97     33772.33     35463.79     78.15635     155.7552     311.9445      1.718     4.39     844.5717     54.95797     2750.118        54     1.689     1.090  54.51   0
       146    398.2871    802.1048 307.7466638  +6.3544067     1262.661     1902.635     1717.567     78.15635     156.3127     311.8515      1.539     5.40     844.8138     54.95797     170.6512        13     1.320     0.705  56.47   0
       147    948.1831    798.9975 307.5184217  +6.3740859     1830.969     3468.447     3738.071     77.78446     155.5068     311.6035      1.967     5.68     835.7125     54.95797     232.8919        26     1.671     1.139  72.84   0
       148    638.2141    801.4991 307.6470555  +6.3626957     677.2953     1180.289     1433.708     78.03259     155.6931     311.5414      1.521     4.57     842.7453     54.95797     162.8699         8     1.342     0.528  40.56   0
       149    239.2142    786.3325 307.8132490  +6.3555785     752600.8      1780196      1989181     77.66011     155.8172     311.6965      2.338     6.34     844.0545     54.95797      62687.9       619     2.552     2.093  62.97   4
       150    877.2189    797.3304 307.5479467  +6.3724059     699.4325     1194.979     1112.842     77.78447     155.8172     311.7275      1.785     6.02     838.2245     54.95797     106.4683        11     1.655     0.616  33.81   0
       151    645.0833    795.6805 307.6443988  +6.3653280     5971.893      9602.46     9861.884     78.03259      156.189     311.8515      1.692     4.58     842.4437     54.95797     807.9708        30     1.568     0.928  53.94   0
       152    433.7892    793.6332 307.7322075  +6.3590952      1451.37     2482.663     2411.712     77.66011     155.6931     311.6345      1.801     5.54     843.7111     54.95797     228.8088        17     1.640     0.689  55.73   0
       153    158.7204    792.4359 307.8464662  +6.3503530     813.2891     1124.543     846.0909     78.03259     156.0032     311.7895      1.520     5.08     843.7307     54.95797     105.8541         9     1.034     0.705  32.64   0
       154    680.1956    785.7480 307.6301522  +6.3706038     2300.558     3650.875     3926.024     77.53555     155.7552     311.4173      1.721     4.23     841.6178     54.95797     322.1754        23     1.473     0.905  55.43   0
       155    124.3342    786.4324 307.8609472  +6.3516753     969.5129     1572.497      1573.68     78.03259     156.0032     311.7585      1.703     5.81     842.7028     54.95797     128.3773        12     1.222     0.778  57.33   0
       156    597.9863    787.3410 307.6642367  +6.3671949     850.9824     1312.786       1642.8     77.53555     155.8793     311.5104      1.949     4.51     841.9894     54.95797     137.3564         7     1.123     0.516  35.89   0
       157    148.9759    786.3810 307.8507170  +6.3525252     852.8392     1037.577     1368.095     77.90862     155.7552     311.7275      1.345     4.92     843.2939     54.95797     111.6412        10     1.091     0.627  61.71   0
       158    414.0100    782.4149 307.7407990  +6.3630638     51568.74     82628.16     87117.52     77.90862     155.6931     311.7275      1.736     4.34     843.4569     54.95797     6964.101        74     1.721     1.149  51.68   0
       159    956.8486    784.0305 307.5153252  +6.3805549     663.2737      1175.32     1227.844     77.78446     156.0032     311.6965      1.872     5.90     835.1202     54.95797      109.811         9     1.347     0.764  46.25   0
       160    531.7831    781.4212 307.6919271  +6.3674219      6765.45     10935.01     11175.16     77.90862     155.6931     311.6965      1.742     4.46     841.7065     54.95797     901.9367        35     1.646     0.984  49.38   0
       161    448.5087    779.8450 307.7265601  +6.3652818     4225.146     7006.217     7522.959     78.15635     155.8793     311.9135      1.793     4.58     842.5687     54.95797     609.7341        33     1.687     1.043  57.02   2
       162    444.9400    773.2595 307.7282640  +6.3678811     2181.437     3388.633     3287.313     78.15635     155.9413     311.8205      1.642     3.95     842.2744     54.95797     289.9943        20     1.389     0.905  55.81   3
       163    776.9316    778.0493 307.5902401  +6.3770170     10949.49     17728.05     18833.17     78.03259     155.8793     311.7895      1.707     4.33     839.5295     54.95797     1577.562        41     1.662     1.007  51.57   0
       164      6.4049    774.2206 307.9103273  +6.3527482     1014.644     1711.578     1072.919     77.78447     155.6931     299.3914      1.795     5.19     841.8546     54.95797     116.5774        14     1.153     0.931  56.17  16
       165    798.7877    772.1526 307.5813620  +6.3801821     1276.874     1925.217     1828.354     77.53555     155.8172     311.4794      1.573     4.64     839.0126     54.95797     213.4728        15     1.559     0.628  48.87   0
       166    142.7823    770.2416 307.8538345  +6.3589805     2941.295     4992.867     5603.052     77.66011     155.7552     311.5724      1.826     4.15     842.6833     54.95797     369.1333        29     1.602     0.968  55.07   2
       167    134.6822    769.9603 307.8572074  +6.3588242     11018.65     17986.15      19628.5     78.15634     156.0032     311.7275      1.754     4.16     842.5271     54.95797     1509.835        45     1.661     1.103  46.67   3
       168    126.8543    767.4498 307.8605426  +6.3595975     2733.977     4644.948     5403.559     78.15635     155.9413     311.8205      1.956     4.82     842.2952     54.95797     391.9895        25     1.644     0.865  54.35   3
       169    126.9103    760.7957 307.8607444  +6.3623467     1693.202     2729.919     3251.147     77.66011      155.631     311.5104      1.763     5.56     842.1442     54.95797     236.4468        19     1.670     0.683  56.30   3
       170    922.5062    766.6434 307.5301699  +6.3865881     6130.562     9864.533     10774.92     78.15635     155.9413     311.9135      1.780     4.48     836.0169     54.95797     802.7411        34     1.691     0.987  50.22   0
       171    971.5603    766.5410 307.5098023  +6.3882670      1587.16         2348     3151.444     78.15635     156.0032     311.8825      1.595     4.40     834.2705     54.95797     227.6521        16     1.337     0.770  54.84   0
       172    677.8183    764.3197 307.6318601  +6.3793719     1578.529     2891.332     3448.699     77.78446      155.631     311.6965      1.998     5.13     840.3962     54.95797     206.0516        19     1.526     0.936  52.72   0
       173    564.6801    763.3534 307.6788749  +6.3759838     2051.234     3171.718     3292.109     78.15635     155.9413     311.7895      1.741     4.86     840.6997     54.95797     291.1554        18     1.484     0.819  60.23   0
       174    412.5001    762.6719 307.7420917  +6.3711647     1040.303     1778.467     1596.072     77.90862     156.0652     311.8205      1.846     5.75     842.3281     54.95797     154.0524        13     1.634     0.570  66.15   0
       175    696.5617    761.7018 307.6241646  +6.3810797     474.7614     809.4139     580.3624     78.15635     155.8172     312.0064      1.651     4.36     840.0273     54.95797     77.58557         7     1.258     0.431  49.65   0
       176    946.1299    758.3004 307.5206394  +6.3908212     2735.372     4814.509     4948.444     78.03259     156.0652     311.8205      1.834     4.69     835.0745     54.95797     393.7642        27     1.560     1.033  63.06   0
       177    916.5834    758.5901 307.5328997  +6.3897156     2858.421     4673.611     4985.036     77.90862     155.6931     311.6655      1.755     4.39     836.0079     54.95797      381.585        24     1.628     0.816  51.94   0
       178    669.0482    757.9231 307.6357172  +6.3817195     1394.901     2142.171     2488.418     78.03259     156.0032     311.7585      1.714     4.91     840.1214     54.95797     194.1413        16     1.311     0.856  64.21   0
       179    976.9670    757.6959 307.5078536  +6.3920995     1722.556      2702.58       2820.2     78.27991     155.8172     311.9135      1.707     4.33     833.9286     54.95797     235.2528        18     1.422     0.776  52.46   0
       180    815.7642    755.9979 307.5748548  +6.3874195     935.9791     1468.196     1339.345     77.28584     155.7552     311.6035      1.637     5.05     837.9536     54.95797     132.1854        13     1.367     0.672  55.60   0
       181    891.5350    753.6685 307.5434670  +6.3909117     662.9894     903.8165     847.3128     78.15635     156.0032     311.8205      1.600     4.91     836.4647     54.95797     107.2679         7     1.392     0.490  57.63   0
       182    241.5751    752.7249 307.8134038  +6.3695337     1637.042      2851.54     3347.262     77.78447     155.7552     311.7585      1.835     4.45      842.253     54.95797     241.4356        16     1.348     0.754  49.30   0
       183    678.4382    749.7601 307.6320924  +6.3854041     745.5855     1220.504     1587.676     77.90862     155.9413     311.6655      1.397     4.65     839.5863     54.95797      128.454         9     1.470     0.419  50.86   0
       184    934.2432    748.0756 307.5259187  +6.3946463     979.7706     1408.816     1757.717     78.03259     156.0032     311.8205      1.668     4.94     835.3448     54.95797     143.1713        12     1.291     0.670  64.64   0
       185    908.2709    747.3767 307.5367280  +6.3940682     982.8124     1802.593     1694.329     77.78447     155.8172     311.7585      1.885     6.18     835.9396     54.95797     157.4985        12     1.576     0.682  67.44   0
       186    261.8062    748.4170 307.8051484  +6.3719920     589.6876     1121.139     1354.417     77.78447     155.6931     311.6345      1.891     4.62     842.3552     54.95797     106.9272         6     1.778     0.340  43.17   0
       187    961.1169    746.0192 307.5148274  +6.3963920     2309.674     3825.275     4213.646     77.78446      155.631     311.7585      1.662     4.68     834.3111     54.95797     324.9717        21     1.589     0.777  55.17   0
       188    156.7924    747.1649 307.8487971  +6.3689795     733.4251     1106.039     1163.104     77.66011     155.7552     311.5724      1.569     4.39     842.2006     54.95797     132.6823         9     1.040     0.712  18.40   0
       189    680.6282    745.1541 307.6313378  +6.3873792     851.4436     1509.061     1989.566     77.66011     156.0032     311.6965      2.137     5.52      839.283     54.95797     101.6036        11     1.363     0.630  59.26   0
       190   1002.7073    739.1649 307.4977853  +6.4006093     1600.191     2500.363     2200.814     78.27991     155.8172     311.8515      1.693     4.66     832.6339     54.95797     206.7573        18     1.470     0.791  52.27   0
       191    400.9516    739.9304 307.7476541  +6.3801669     612.5103     917.7205     1236.938     78.15635     155.8793     311.8205      1.604     4.91     841.0013     54.95797     100.3237         8     1.218     0.561  59.39   0
       192    804.0297    737.9313 307.5803347  +6.3944870     1176.896     1819.973     2040.551     77.90862     155.9413     311.7275      1.590     5.35     837.2771     54.95797     151.4691        15     1.470     0.767  63.31   0
       193    890.3627    735.0733 307.5445779  +6.3985504     1366.632     2280.729     2776.829     78.03259     155.9413     311.8515      1.705     5.14     835.9641     54.95797     194.6023        17     1.593     0.704  46.91   0
       194    864.6711    730.1268 307.5554133  +6.3997350     916.1271     1210.912     1622.307     78.40328     156.0652     311.8205      1.475     5.12     836.3254     54.95797     158.3934        10     1.117     0.662  53.10   0
       195    650.4866    729.8796 307.6443687  +6.3926774          643     929.5049     1241.354     77.90862     156.2508     311.9135      1.742     5.57     838.7484     54.95797     91.02307         7     1.131     0.773 -58.21   0
       196    847.3811    726.6581 307.5627101  +6.4005899     1458.625     2358.889     2269.128     77.78447     155.8172     311.6035      1.828     5.30       836.47     54.95797     203.0389        16     1.458     0.709  55.08   0
       197     46.2840    725.3337 307.8954231  +6.3742749     2330.727     3624.155     3767.419     78.27991      156.189     311.8515      1.645     4.04       840.95     54.95797     296.7935        23     1.558     0.857  48.59   0
       198    110.3137    724.1043 307.8688768  +6.3769373     1011.927     1820.329      1502.79     78.15635     156.3127     311.8515      2.029     6.69     841.0522     54.95797     124.6711        16     1.883     0.666  66.39   0
       199    659.1193    713.9939 307.6413181  +6.3995253     5860.833     9468.296      10232.4     77.78446     155.5068     311.5414      1.704     4.57     838.2086     54.95797     843.8571        28     1.574     0.924  55.58   0
       200    527.5343    713.8264 307.6959683  +6.3951886     590.9857     934.1788     520.9858     77.78447     155.8793     311.6965      1.478     3.48     839.0046     54.95797     118.5016         5     1.427     0.245  71.99   0
       201    605.9550    713.0156 307.6634292  +6.3981499      1322.73     2269.538     2387.271     77.66011     155.7552     311.5414      1.950     5.62     838.5193     54.95797     184.6936        14     1.471     0.742  45.70   0
       202    516.4045    713.6024 307.7005977  +6.3949082     681.6089     957.8463     1144.129     77.53555     155.5068     311.5724      1.629     5.17     839.0744     54.95797      108.617         9     1.220     0.619  52.03   0
       203    632.8026    709.4612 307.6523995  +6.4005161     2133.205     3424.339     3774.972     77.53555     155.7552     311.5104      1.737     4.61     838.2289     54.95797     293.4421        24     1.619     0.943  57.80   0
       204    122.0470    709.7859 307.8644889  +6.3832438     3483.903     5717.367     5909.403     77.53555     155.7552     311.5724      1.689     4.27      840.824     54.95797      485.762        26     1.629     0.872  56.18   0
       205    996.1141    709.1439 307.5015299  +6.4127851      2420.06     3897.573     4217.085     78.15634     155.9413     311.9445      1.718     5.42     832.7266     54.95797     327.0311        20     1.619     0.771  51.61   0
       206    308.4292    709.5175 307.7871013  +6.3896187      710.693     820.6503     1049.026     78.03259     155.7552     311.7585      1.364     3.65     840.5226     54.95797     126.5624         7     1.148     0.510  50.94   0
       207    243.8397    709.2938 307.8139304  +6.3875415     616.8694     924.7978     883.4769     78.27991     155.8793     311.8825      1.619     4.81     840.3008     54.95797     89.44678         8     1.114     0.589  56.58   0
       208    775.9304    706.1216 307.5930727  +6.4066821     19325.09     30630.86     32248.51     78.40328      156.189     311.7585      1.677     4.36     836.7643     54.95797     2793.985        51     1.693     1.032  52.56   0
       209    905.9871    705.8711 307.5390693  +6.4111295     3439.345     5572.541     6008.453     77.66011     155.6931     311.6345      1.690     4.50     834.8091     54.95797     478.8807        23     1.461     0.899  51.63   0
       210    504.6231    706.6893 307.7057232  +6.3973677     616.8598     988.2636     1151.513     78.15635     155.7552     311.6655      1.712     4.50     839.0076     54.95797     96.44031         7     1.256     0.458 -48.00   2
       211    502.6579    704.6783 307.7066070  +6.3981322     579.7895     986.2834     793.1913     78.15635     155.8793     311.7585      2.016     3.33     838.9826     54.95797      105.405         5     0.718     0.617  54.36   3
       212    475.1230    706.1121 307.7179933  +6.3966173     1372.677     2062.489     1578.318     78.15634     156.2508     311.8515      1.590     4.50      839.189     54.95797     208.5914        15     1.412     0.695  54.56   0
       213    320.6441    705.7831 307.7821550  +6.3915706     666.1617      1149.79     1488.933     77.78447     155.8172     311.5724      2.203     5.81     840.1704     54.95797     88.55847        12     1.311     0.726  70.09   0
       214    277.7904    705.7498 307.7999517  +6.3901453     640.0508      976.659     433.1236     77.66011     155.8172     311.4794      1.463     3.94     840.4352     54.95797     103.2537         6     0.787     0.566  56.35   0
       215    249.4252    699.6166 307.8119379  +6.3917247     6086.553     9668.616     10233.07     77.90862     155.8172     311.7275      1.725     4.27     839.9704     54.95797     776.4889        30     1.544     0.965  54.41   0
       216    656.4910    698.8677 307.6429185  +6.4056828     6814.862     10670.71     11464.59     78.27991     156.0652     311.7895      1.695     5.05     837.7716     54.95797     951.5228        29     1.576     0.884  53.18   0
       217    638.8034    699.9570 307.6502272  +6.4046412      750.787     1357.383     2098.704     77.53555     155.5689     311.4794      1.982     4.93     837.9227     54.95797     108.4124         8     1.178     0.584  44.89   0
       218    351.9626    698.8854 307.7693822  +6.3954699     785.6078     1036.661     1318.771     78.15635     155.9413     311.7895      1.563     5.42     839.5659     54.95797      129.223        11     1.433     0.579  42.24   0
       219    916.3571    691.4357 307.5352470  +6.4174359     1230.665     1874.607     1662.663     77.90862     155.9413     311.6035      1.480     5.30     834.0452     54.95797     190.3203        13     1.501     0.703  66.63   0
       220    728.1405    687.2590 307.6135534  +6.4128727     3551.738     5880.409     6008.346     78.15635     155.9413     311.8205      1.730     4.66     836.6563     54.95797     421.3004        27     1.621     0.883  57.56   0
       221    683.3857    687.6285 307.6321274  +6.4112232     1008.724     1699.846     2155.386     77.78447     155.7552     311.6965      1.809     4.81      837.196     54.95797      163.163        12     1.438     0.591  57.34   0
       222    994.5452    683.9203 307.5030273  +6.4231475     8353.292     13584.57     14411.49     78.27991     155.9413     311.8205      1.749     4.49     832.6206     54.95797     1122.275        34     1.658     0.972  53.21   0
       223    932.9084    684.3173 307.5286121  +6.4209274     2281.686     3727.937     4185.949     77.90862     156.2508     311.8515      1.674     4.60     833.3307     54.95797     320.5944        19     1.586     0.697  53.57   0
       224     13.3901    683.4608 307.9104995  +6.3904555     1831.779      3027.71     3498.048     77.53555     155.8172     311.5414      1.849     5.92     840.0475     54.95797     251.2119        22     1.759     0.884  36.29   0
       225    430.6323    681.6838 307.7372928  +6.4052116     556.1785     905.2401     847.2045     78.15635     155.7552     311.7275      1.722     4.35     838.8392     54.95797     84.92279         7     1.156     0.467  27.37   0
       226     71.8392    678.6288 307.8863918  +6.3944183     24422.36     39582.38     41994.95     77.66011     155.6931     311.6655      1.741     4.21     839.9615     54.95797      3228.36        59     1.685     1.133  52.51   0
       227    533.1390    679.6218 307.6947929  +6.4094991     1925.575     3156.374     3396.814     77.78446     155.8793     311.6965      1.718     4.12     838.2997     54.95797     254.0258        21     1.422     0.873  50.00   0
       228    501.5816    676.6867 307.7079972  +6.4096535     1279.482     2148.675     2716.137     77.90862     155.6931     311.6655      1.995     6.40     838.4691     54.95797     162.9151        16     1.503     0.765  50.70   0
       229    923.2031    676.1802 307.5329158  +6.4239633     951.2785     1322.091     1764.697     77.78446     155.5689     311.5724      1.610     5.60     833.2969     54.95797     143.2755        11     1.304     0.677  51.03   0
       230    542.2874    673.3323 307.6912055  +6.4124024     981.6553     1622.855     1934.886     78.27991      156.189     311.8205      2.331     5.89     838.0925     54.95797     161.9453        11     1.550     0.654  47.93   0
       231    739.8613    669.1466 307.6092947  +6.4207431     3911.562     6569.814     6948.309     78.15634     155.8793     311.7585      1.755     4.36     835.8218     54.95797      577.449        28     1.579     0.963  52.48   0
       232    571.3107    667.0999 307.6793623  +6.4159479     3147.521     5036.375     4995.253     78.15635     156.3745     311.7585      1.695     4.34     837.6526     54.95797     404.7035        23     1.514     0.870  54.96   0
       233    407.6237    667.5795 307.7473235  +6.4102633     1281.627     2103.816     2621.922     77.90862     155.7552     311.7275      1.766     5.29     838.4401     54.95797     183.2017        15     1.367     0.843  59.23   0
       234   1012.8403    665.3783 307.4960508  +6.4314136     4556.454     7427.741      7532.77     77.78446     155.7552     311.6035      1.757     4.55      832.033     54.95797     608.9972        29     1.622     0.933  55.19   0
       235    315.4053    666.0664 307.7856712  +6.4077930     1311.017     2169.943     2165.321     77.66011      155.631     311.6035      1.747     6.37     838.4387     54.95797      166.808        16     1.488     0.875  59.57   0
       236    231.7196    666.4896 307.8204095  +6.4048072     1746.421     2707.084     2609.355     77.90862     156.1271     311.8825      1.652     3.91      838.895     54.95797     261.0966        16     1.279     0.848  45.55   0
       237    978.1180    664.2124 307.5105105  +6.4307370     7675.333     12552.07     13080.06     77.78446      155.631     311.6345      1.711     4.26     832.3238     54.95797     1094.988        38     1.657     1.009  56.21   0
       238    717.9291    670.9323 307.6183431  +6.4192724     3246.292     5266.482     5426.942     78.15635     156.0652     311.7585      1.669     5.02      836.155     54.95797      507.327        21     1.497     0.767  50.85   0
       239    698.0990    662.4529 307.6268637  +6.4221102     986.2576     1606.698     1810.357     78.03259     155.9413     312.0064      1.706     4.50     836.2316     54.95797     150.6403        10     1.204     0.667  51.54   0
       240     89.6400    660.9401 307.8795983  +6.4023205     834.3062     1054.459      631.354     78.15634     155.9413     311.8825      1.455     5.98     839.6748     54.95797     102.2021        11     1.266     0.795  57.43   0
       241    423.2812    658.3432 307.7411326  +6.4146020     2787.037     4458.832     5062.515     78.27991     155.9413     311.7895      1.746     4.45     838.2189     54.95797     368.8461        28     1.776     0.976  44.76   0
       242    136.6101    657.5324 307.8602085  +6.4053078     23004.76     36703.19     38542.84     77.66011     155.7552     311.6655      1.740     4.27      839.649     54.95797     2998.084        53     1.681     1.085  57.10   0
       243    804.7561    658.1526 307.5827130  +6.4274515     1193.885     1717.254      2347.45     78.15635     155.8793     311.7275      1.611     5.34     835.0228     54.95797     169.6354        11     1.270     0.634  52.03   0
       244    356.1671    652.5258 307.7692005  +6.4147520     797.1515     1560.814      1610.27     78.03259     155.8793     311.7585      1.905     5.86     837.7977     54.95797     97.71515        10     1.254     0.770  24.82   0
       245    973.0577    647.2603 307.5131807  +6.4375677     6602.847     11351.33     12142.83     78.27991     155.8793     311.8205      1.842     4.72     831.7571     54.95797     871.5377        44     1.878     1.043  51.78   0
       246    566.6202    642.4655 307.6821397  +6.4259621     46398.11      73099.2     76830.06     77.78447     155.9413     311.6655      1.725     4.39     837.1658     54.95797     5992.353        70     1.708     1.097  52.82   0
       247    931.0855    644.4870 307.5307055  +6.4373124     713.1326     1021.005     989.3362     77.90862     156.1271     311.8515      1.343     3.29     832.4024     54.95797     140.7317         5     1.223     0.257  56.22   0
       248    210.2029    644.0214 307.8301040  +6.4133607     591.4798     1036.716     908.6995     77.78446      155.631     311.5414      1.722     4.91     838.8337     54.95797     98.28467         7     1.402     0.488  59.00   0
       249   1023.7906    641.7988 307.4922934  +6.4415146     448.2712     938.3497      1130.91     65.94957     121.7639     232.3572      2.581     4.58     830.6189     54.95797     109.8584         8     1.615     0.368 -83.69  24
       250    791.4420    642.4357 307.5887706  +6.4334960     531.4326     730.7876     374.9984     77.90862     155.9413     311.6345      1.400     3.96     834.7712     54.95797     103.8976         5     1.134     0.396  54.53   0
       251    525.9567    642.4739 307.6990270  +6.4245963     863.5466      1116.76     1023.885     78.03259     156.0032     311.8205      1.474     5.17     837.6672     54.95797     138.4718         9     1.198     0.631  45.88   0
       252    174.2615    638.9620 307.8452007  +6.4142413     2702.377     4458.677     4734.482     78.15635     156.0032     311.7895      1.745     4.53     839.0511     54.95797     345.6596        25     1.556     0.933  55.55   0
       253     17.8655    646.3593 307.9098972  +6.4059243     1062.328     1729.925     1865.455     78.15635     155.8793     311.8825      1.773     6.08     839.4933     54.95797     151.5573        13     1.370     0.759  56.42   0
       254    496.1189    639.0236 307.7115349  +6.4250210     613.2328     847.4668     697.4837     77.78446      155.631     311.6965      1.542     4.73     837.7206     54.95797     117.1252         7     1.160     0.547  42.33   0
       255     66.6764    633.1801 307.8900737  +6.4130090     1471.438     2369.116     2422.025     77.78446      155.631     311.7275      1.741     4.66     839.3141     54.95797     200.3254        18     1.366     0.869  53.60   0
       256    463.8855    626.2263 307.7253528  +6.4292242     59026.53     94083.64        99020     78.27991     155.6931     311.6655      1.715     4.33     837.4766     54.95797     8148.083        78     1.715     1.143  54.77   0
       257      7.5378    628.0649 307.9148054  +6.4131297     1681.848     2736.279     3386.026     78.15634     155.9413     307.9216      1.797     4.86     839.2708     54.95797     215.5197        18     1.468     0.797  56.67  16
       258    649.5246    623.3976 307.6483508  +6.4366106      859.382     1403.943     1270.596     77.66011     155.4446     311.6655      1.870     4.79     835.6455     54.95797     128.4367         9     1.318     0.493  42.74   0
       259    138.3413    621.2702 307.8607159  +6.4203377     1613.139     2458.949     1981.859     78.27991     155.9413     311.7585      1.563     4.11      838.848     54.95797     228.5445        14     1.335     0.685  47.05   0
       260    933.9069    618.4749 307.5304066  +6.4481469     475.7799      828.778     354.1663     78.03259     156.0652     311.7585      1.732     6.11     831.8197     54.95797     88.72137         6     1.166     0.899  17.90   0
       261    416.9220    618.5726 307.7451148  +6.4308093     837.3545     1072.584      1191.11     78.03259     155.8793     311.7895      1.405     4.46     837.3171     54.95797     137.6715        10     1.183     0.623  32.91   0
       262    609.9280    617.7026 307.6649874  +6.4376366     880.7325     1422.147     1195.887     78.03259     156.0652     311.7585      1.553     5.36     835.5543     54.95797      134.785        13     1.221     0.864  40.22   0
       263    309.5405    615.5950 307.7898106  +6.4284347     2147.831     3444.936     3840.445     77.66011     155.8172     311.5724      1.774     4.30     837.6775     54.95797     297.8138        22     1.449     0.979  53.92   0
       264    492.1237    616.9724 307.7139372  +6.4339917     401.3283     954.2491     1232.791     78.03259     155.9413     311.7585      1.936     3.92     837.2588     54.95797     74.36383         5     1.271     0.346  25.11   0
       265     10.2464    617.0371 307.9140540  +6.4177739     625.9366     989.4423     1620.886     77.90862     155.8793     311.6965      1.568     4.24     839.1325     54.95797     87.38977         7     0.777     0.660  78.25   0
       266    461.3739    613.6864 307.7268186  +6.4343176     944.4496     1729.896     2215.043     78.27991     155.7552     311.6655      2.142     5.29     837.2007     54.95797     124.0327        10     1.415     0.559  55.68   0
       267     16.5300    614.2638 307.9115384  +6.4191306     493.1194     769.7406     1486.202     78.15635     155.9413     311.7895      1.594     3.88     839.0917     54.95797     123.2859         5     1.133     0.404  73.92   0
       268    735.9465    609.8088 307.6129154  +6.4451123     4893.464     7768.017     8118.073     77.53555     155.8172     311.5104      1.634     4.39     834.6914     54.95797     710.9296        28     1.556     0.884  58.66   0
       269    789.4681    605.0253 307.5908474  +6.4488765     13260.66     20816.22     21629.71     77.78446     155.8172     311.6965      1.660     4.57     833.9846     54.95797     1922.795        40     1.631     0.965  52.27   0
       270   1006.4752    605.4882 307.5007023  +6.4559298     909.0677     1444.634     1640.583     78.15635     156.2508     311.8825      2.214     5.71     829.1816     54.95797     129.5808        12     1.683     0.546  42.96   0
       271    531.9309    604.8149 307.6978146  +6.4403454     1137.062      2126.58     2393.741     77.66011     155.8793     311.6965      2.001     7.03     836.9526     54.95797     140.0594        15     1.556     0.889  45.39   0
       272    613.4340    603.0651 307.6640241  +6.4437977     2865.721     4519.376     4683.545     78.03259     155.9413     311.7895      1.697     4.64     835.0394     54.95797     371.6312        23     1.484     0.903  49.00   0
       273    930.7958    599.4222 307.5323380  +6.4559098     978.6692     1802.802     2050.213     77.78447     155.6931     311.5724      2.029     6.36     831.4065     54.95797      136.371        13     1.395     0.815  49.29   0
       274    371.9604    596.5020 307.7645320  +6.4384133     1027.579     1342.839     1278.022     78.15634     155.8172     312.0064      1.434     3.48     836.0739     54.95797     167.1561        10     1.043     0.754  59.04   0
       275    225.8103    596.6743 307.8252225  +6.4334338     1220.698      2208.56     2192.927     77.78446     155.5689     311.6655      1.869     4.31     837.7219     54.95797     157.5255        13     1.252     0.716  41.26   0
       276    189.3167    596.9146 307.8403699  +6.4321078     590.7101     987.6919     1295.215     77.90862     156.1271     311.8825      1.386     4.37     838.0325     54.95797     99.61359         7     0.917     0.592  58.79   0
       277    865.5390    588.2836 307.5598153  +6.4583304      2690.37     4078.121     4328.988     78.27991     156.0032     311.8515      1.671     4.80     832.4756     54.95797       388.51        23     1.594     0.807  56.16   0
       278    160.8219    587.4715 307.8525229  +6.4350485     695.7128      1387.42     1482.171     77.78447     155.7552     311.7585      1.919     4.15     838.1967     54.95797     103.4155         7     1.017     0.661  13.58   2
       279    824.0895    585.7324 307.5771163  +6.4579993      2422.05     3721.496     3697.148     78.27991     156.1271     311.7585      1.583     4.52     833.1442     54.95797     330.1222        20     1.411     0.847  51.15   0
       280    795.1043    581.6227 307.5892929  +6.4587277     2465.492     4084.034     5070.365     78.15634     155.7552     311.6345      1.859     4.39     833.5228     54.95797      328.697        20     1.471     0.800  46.85   0
       281    252.2613    580.5826 307.8147811  +6.4409666     7443.238     11789.91     12384.96     77.78447     155.8793     311.6035      1.691     4.22     836.8261     54.95797     1004.288        35     1.581     0.975  52.98   0
       282    804.8600    576.9404 307.5853984  +6.4609870     149801.7     237479.2     251018.5     78.15635     155.9413     311.8205      1.690     4.34     833.3177     54.95797      22597.2       126     1.804     1.180  54.99   0
       283    737.8224    581.9325 307.6130735  +6.4566850     716.1734     1145.268     1757.735     77.78446     155.8793     311.7585      2.683     4.28     833.9619     54.95797     110.2006         7     1.250     0.418  49.54   2
       284     34.5637    604.1517 307.9043918  +6.4239128     723.1431     1152.669     1774.349     78.03259     155.8793     311.6965      2.135     5.95     839.0168     54.95797     97.46967        11     1.452     0.686  55.41   0
       285    186.4232    575.1652 307.8423068  +6.4409904     55205.37     89540.89     95302.62     77.66011     155.6931     311.5724      1.758     4.39     837.5392     54.95797     6903.163        87     1.761     1.207  54.51   0
       286    110.4285    571.3855 307.8739950  +6.4399947     5964.005     9406.396     9949.613     77.78447     155.7552     311.6965      1.739     4.52     838.7571     54.95797     734.7128        30     1.565     0.962  55.38   0
       287    975.8293    568.8924 307.5146581  +6.4700180     1228.996     1938.212     1867.098     78.27991     155.6931     311.6965      1.591     5.42     828.9429     54.95797     176.6879        18     1.599     0.836  47.54   0
       288    996.6633    567.7027 307.5060447  +6.4712041     812.6537     1009.174     968.0988     78.03259     156.0652     311.8205      1.531     5.18     828.2168     54.95797     133.3297         9     1.283     0.592  59.00   0
       289    225.0958    566.5675 307.8265365  +6.4458402     881.1016     1362.712     1867.016     78.27991     155.8172     311.8825      1.868     5.77     836.2673     54.95797     139.5878        10     1.499     0.625  47.91   0
       290    841.4386    564.2349 307.5706327  +6.4674550     4231.845     6602.738     6751.238     77.90862     155.8172     311.6035      1.702     4.52     832.2902     54.95797     559.3575        26     1.551     0.858  50.97   0
       291    359.8578    562.3395 307.7707112  +6.4521122     16022.75     25733.44     27104.23     78.27991     155.8793     311.8205      1.720     4.26     835.0516     54.95797     2076.606        45     1.641     1.047  53.99   0
       292    450.2000    562.3819 307.7331890  +6.4551257     764.0822     1087.157     1042.753     77.66011     155.5068     311.4794      1.535     5.10     835.9115     54.95797     124.4718        10     1.148     0.641  42.69   0
       293    161.7030    561.3458 307.8530403  +6.4458648     1808.135     2958.298     2992.994     78.03259     155.9413     312.0064      1.745     4.71     837.9675     54.95797     241.4972        21     1.466     0.934  58.33   0
       294    795.4069    557.6013 307.5899744  +6.4686561     5613.893     8820.086     8926.309     77.53555      155.631     311.6035      1.698     4.73     833.1103     54.95797     746.7653        31     1.593     0.905  54.05   0
       295    526.2125    557.2440 307.7017923  +6.4597952     6208.639     9721.966     10053.04     77.66011     155.8172     311.5414      1.672     4.34     835.4062     54.95797     837.8971        32     1.600     0.924  56.17   0
       296    236.7768    558.9182 307.8219438  +6.4493910     862.3583     1435.015     1565.402     77.90862      155.631     311.6965      1.764     5.50      835.783     54.95797     114.4042        11     1.404     0.608  49.81   0
       297     99.2914    558.2021 307.8790662  +6.4450630     812.3121     1337.828     1226.271     77.53555      155.631     311.5724      1.564     5.12     838.8823     54.95797     148.5724        11     1.453     0.509  48.50   0
       298    166.7096    558.1810 307.8510681  +6.4473398     675.8664     1061.863      1990.82     78.03259     155.6931     311.6655      1.513     3.32     837.7751     54.95797     123.6287         5     0.914     0.350  48.36   0
       299    384.4899    553.9794 307.7607632  +6.4563906     1263.555       2050.1     1922.715     78.03259     155.6931     311.6345      1.650     4.65     835.2194     54.95797     199.8307        17     1.381     1.012  62.03   0
       300    173.2919    550.3484 307.8485993  +6.4507950     6499.455     10558.82     11192.57     78.03259     155.8172     311.9755      1.754     4.38     837.4517     54.95797     836.3687        37     1.582     1.043  57.85   0
       301    570.8270    550.0944 307.6835034  +6.4642418     2100.336     3791.566     4703.547     78.27991     155.6931     311.6345      2.062     4.60     834.2322     54.95797     295.2948        25     1.364     1.271  65.21   0
       302    854.4016    550.7379 307.5657019  +6.4734609     681.2093     1128.651      1114.81     77.53555     155.7552     311.5104      1.806     5.01     831.6305     54.95797     102.0713         8     1.072     0.663  54.35   0
       303    811.9482    549.6934 307.5833698  +6.4724739     1404.699     2207.141     2280.349     78.03259     155.8172     312.0064      1.604     4.57     832.6739     54.95797     261.6608        14     1.428     0.723  45.94   0
       304    268.4810    546.8289 307.8091851  +6.4554477     81791.05     132498.3     140373.3     78.03259     155.7552     311.7585      1.758     4.34     834.8701     54.95797     10683.38        93     1.743     1.219  53.40   0
       305     44.8894    549.0242 307.9019699  +6.4470210     4746.522     7812.344     8313.265     78.15635     155.7552     311.6345      1.735     4.44     838.9725     54.95797       616.57        31     1.583     0.991  52.46   0
       306    558.0697    544.3589 307.6889951  +6.4661826     809.6041     1456.947     1769.691     78.03259     155.9413     311.8515      1.866     5.60     834.3954     54.95797     144.6365        10     1.550     0.570  66.95   0
       307    252.2105    541.6642 307.8161170  +6.4570334     1335.851     1384.034     1253.371     77.66011     155.7552     311.6965      1.583     4.84     834.8656     54.95797     189.4734        16     1.464     0.752  49.52   0
       308    967.8993    540.5252 307.5189034  +6.4814662     1564.781     2448.542     2277.111     77.66011     156.0652     311.6965      1.614     4.65     828.2994     54.95797     251.8009        15     1.426     0.701  62.30   0
       309    791.6008    539.3027 307.5921702  +6.4760842     15503.43      24149.1     25105.55     77.66011     155.5689     311.4483      1.679     4.43     832.6464     54.95797     2129.781        46     1.631     1.018  50.94   0
       310    495.2535    537.7272 307.7153082  +6.4668158     38383.62     64768.02     69931.48     78.03259     155.8172     311.7585      1.829     4.35       835.04     54.95797     5151.106        81     1.829     1.293  45.17   0
       311    645.6504    536.1065 307.6528974  +6.4725226     863.2099     1113.435     1313.797     78.03259     155.8172     311.9755      1.519     5.73      832.738     54.95797     108.0183        13     1.310     0.706  53.69   0
       312    207.7596    534.2299 307.8348293  +6.4586089     1637.466      2834.95     3054.734     77.66011     155.6931     311.6655      1.885     4.65      835.683     54.95797     218.9425        20     1.461     0.903  55.27   0
       313     43.2253    534.2306 307.9031619  +6.4530729     1187.237     1983.066     1816.862     77.66011     155.7552     311.6345      1.770     5.87     838.9131     54.95797     149.1169        14     1.405     0.690  57.15   0
       314    665.4170    532.6988 307.6448022  +6.4745911      1385.79     2231.966     2799.842     78.15635     155.7552     311.6035      1.800     5.15     832.6531     54.95797     188.9658        15     1.364     0.706  52.36   0
       315    655.1577    532.7233 307.6490624  +6.4742376     2623.225     4500.935     4849.825     78.03259     155.9413     311.8205      1.811     4.87     832.6639     54.95797      365.296        22     1.470     1.016  52.30   0
       316    254.9519    533.7471 307.8152459  +6.4603943     424.3579     776.9963     856.5994     78.27991     155.9413     311.7895      1.293     4.29     834.6756     54.95797     75.73889         5     1.025     0.512  34.16   0
       317     93.2678    533.7990 307.8823936  +6.4549357     503.5884     833.8921     446.2074     77.53555     155.5068     311.5724      1.793     4.70     838.5654     54.95797     83.28925         6     0.992     0.630  57.52   0
       318    717.4243    531.8629 307.6232293  +6.4766761     1329.636     2220.315     2825.738     77.78446     155.9413     311.6965      2.000     6.56     832.5876     54.95797     168.6394        16     1.561     0.774  55.90   0
       319     73.4683    529.8484 307.8907502  +6.4559003     792.8898     1407.348     1677.659     78.15635     155.8793     311.7895      2.141     5.81     838.6233     54.95797     151.6616        10     1.337     0.847  31.66   0
       320    393.0220    528.5286 307.7580783  +6.4671851     1747.013     2422.564     2420.062     77.78446     155.7552     311.7895      1.564     4.34     834.5657     54.95797      248.458        19     1.439     0.809  49.48   0
       321    324.4479    526.5854 307.7866246  +6.4656856     3693.662      5999.23     6040.407     77.53555     155.8793     311.5104      1.755     4.24     834.0713     54.95797     477.6105        28     1.595     0.936  61.16   0
       322    504.3421    526.0459 307.7119271  +6.4719435     2123.971     3488.251     3568.323     78.15634     155.9413     311.8825      1.722     4.79     834.4139     54.95797     326.6333        18     1.468     0.754  55.16   0
       323    139.5354    525.2045 307.8634690  +6.4600410     24250.87     39191.01     40898.49      77.4108      155.631     311.6035      1.731     4.31     837.4678     54.95797     3147.514        53     1.670     1.091  56.50   0
       324    867.4489    525.0638 307.5611449  +6.4844973      1359.68     2153.312      2154.74     78.03259     155.8172     311.8515      1.683     6.03     830.6093     54.95797     203.4413        16     1.664     0.664  53.31   0
       325    104.6352    523.3391 307.8780265  +6.4596369     2507.776     4113.798     4250.505     78.15635     155.9413     311.7585      1.785     4.83     838.0363     54.95797     333.0392        22     1.609     0.807  52.26   0
       326    341.6986    521.8579 307.7796195  +6.4682167     1068.414     1613.065     1825.713     77.90862     155.9413     311.9445      1.656     5.79     833.9399     54.95797     148.5867        13     1.277     0.740  54.96   0
       327    965.0717    519.9042 307.5207697  +6.4898862     4750.138     7586.988     8334.874     78.03259     156.0652     311.7895      1.673     4.32     827.8293     54.95797     656.4968        30     1.572     0.950  51.40   0
       328    538.2658    512.3683 307.6982981  +6.4787276     1371.121      2343.46     2357.088     78.03259     156.0032     311.7275      1.852     5.20     833.3409     54.95797     187.2501        15     1.537     0.683  56.63   0
       329      3.8647    509.5051 307.9203458  +6.4619556     23658.54     38222.23     39932.32     78.03259     153.1899     271.8459      1.735     4.31     839.5189     54.95797     2969.855        51     1.672     1.089  53.33  24
       330    436.5661    506.3546 307.7407409  +6.4778012     40412.45     64299.15     68050.75     77.78447     155.8793     311.6655      1.738     4.24     833.8789     54.95797     5105.501        70     1.721     1.130  54.17   0
       331    644.5928    506.0461 307.6543483  +6.4848988     11290.44     18043.41     18657.15     77.66011     155.6931     311.4483      1.686     4.37     832.0965     54.95797     1636.583        41     1.612     1.029  54.57   0
       332    201.7632    503.9127 307.8383445  +6.4709246     18144.25     30321.01      32461.6     78.15634     155.8172     311.7895      1.796     4.33     835.2147     54.95797     2366.901        58     1.792     1.141  50.64   0
       333    284.7270    506.4960 307.8038001  +6.4726461     1007.429     1408.574     1219.484     77.90862     156.0652     311.7585      1.542     4.14     833.5906     54.95797     146.2673        11     1.172     0.762  59.54   0
       334    978.6665    504.4858 307.5156401  +6.4967059     1210.184     2135.192     2610.222     78.15635      156.189     311.8205      2.100     5.05     827.0298     54.95797     177.2651        17     1.307     1.036  55.48   0
       335    167.3974    504.7775 307.8525882  +6.4694119     1569.466     2576.599     2385.473     77.78447      155.631     311.5724      1.838     4.62     836.1416     54.95797     242.1888        15     1.453     0.671  56.51   0
       336    566.2931    502.8352 307.6869782  +6.4836027     2710.931     4235.812     3886.062     78.27991     155.8172     311.8825      1.653     4.61     832.6039     54.95797      365.333        24     1.565     0.858  58.30   0
       337    907.1038    503.6353 307.5453933  +6.4946690     741.0558     1172.936     1168.154     78.27991     155.8172     311.9445      1.775     4.78     828.9537     54.95797     117.5636         8     1.278     0.507  24.35   0
       338    818.7632    503.6909 307.5820848  +6.4916958     912.7742     1339.411     998.0263     78.27991     155.8793     311.8205      1.452     3.71     830.8536     54.95797     141.5093         8     1.030     0.511  55.68   0
       339    940.3174    500.0961 307.5317163  +6.4972389     4459.064     6920.756     7501.289     78.03259     156.3127     311.8825      1.652     4.74     827.9249     54.95797       602.61        27     1.546     0.868  49.91   0
       340    613.4117    498.4017 307.6675568  +6.4870112     6244.592     9882.319      10039.3     77.78447      155.631     311.5724      1.705     4.30     832.0598     54.95797      884.094        33     1.562     0.969  52.37   0
       341    100.7115    498.5270 307.8804956  +6.4697490     1115.219     1708.578     1301.049     78.15635      156.189     311.8205      1.606     5.10     837.3254     54.95797       134.66        15     1.367     0.762  58.12   0
       342    525.6058    489.6572 307.7043216  +6.4876805     7108.266     11367.46     12117.57     77.66011     155.8172     311.5104      1.714     4.09     832.4923     54.95797     945.2409        33     1.550     1.005  51.54   0
       343    401.1104    490.5579 307.7560000  +6.4831339      632.283     845.2852     772.3063     78.15634     155.8793     311.8205      1.452     4.19     833.2358     54.95797     97.58008         6     0.766     0.652  52.73   0
       344    371.4719    489.8249 307.7683348  +6.4824419     2479.021     3905.213     4079.834     77.78447     155.8172     311.7275      1.659     4.05     833.1363     54.95797     339.1392        20     1.387     0.862  52.68   0
       345    741.0790    489.5291 307.6148278  +6.4949464     483.6513     680.7426     967.2133     78.40328      156.189     311.7585      1.569     3.66     831.0895     54.95797     96.47632         6     1.145     0.337  50.30   0
       346    962.8665    492.3389 307.5226105  +6.5011943      3176.69     5282.759     5550.013     78.15635     155.8793     311.7895      1.717     4.40     827.1197     54.95797     448.7307        23     1.582     0.836  61.87   0
       347    882.0015    485.4608 307.5564302  +6.5013351     3102.275     4953.532     5773.996     77.53555     155.7552     311.5104      1.680     4.42     829.1304     54.95797     423.6638        25     1.559     0.843  52.58   0
       348    534.7731    486.5075 307.7006201  +6.4892882      716.485     1041.999     1583.663     78.27991     155.6931     311.6345      1.508     3.02      832.212     54.95797     136.5178         8     0.912     0.748  29.50   0
       349    230.8429    484.8773 307.8269103  +6.4797613     639.5503     857.8722     293.9301     78.03259     155.9413     311.8205      1.552     4.21      834.235     54.95797      103.163         6     1.075     0.470  64.00   0
       350    889.5929    479.9182 307.5534631  +6.5038771     1998.897     3351.579     3636.692     77.78446     155.5689     311.6345      1.750     4.51     828.7353     54.95797     294.8417        16     1.443     0.702  52.84   0
       351    928.8433    478.9547 307.5371919  +6.5055852      1114.61     1572.274     1582.626     78.15635     155.9413     311.7275      1.459     5.17     827.5137     54.95797       201.53        12     1.568     0.482  49.32   0
       352    108.1063    478.7807 307.8780926  +6.4781506     710.6373     1209.916     957.0294     78.03259     155.7552     311.6655      1.709     4.81     836.5312     54.95797      91.1665         9     1.392     0.471  63.03   0
       353    713.5034    475.7973 307.6267435  +6.4996939     2876.572     4578.451     4836.035     77.78447      155.631     311.4794      1.658     4.50     830.7643     54.95797     450.8513        19     1.490     0.782  56.65   0
       354    384.3521    474.1455 307.7635142  +6.4893480     3608.156     5723.322     6250.329     78.15635     155.9413     311.8515      1.712     4.24     832.5195     54.95797     457.9641        26     1.566     0.907  51.63   0
       355    424.6035    474.3415 307.7467893  +6.4906176     900.8237     1283.278      1365.34     77.53555     155.8172     311.5414      1.620     5.68     832.4955     54.95797      137.255        13     1.565     0.580  53.94   0
       356     75.2469    474.4836 307.8918853  +6.4788187     1936.537     2984.458     3390.335     78.15635     155.9413     311.8205      1.699     4.27     837.3752     54.95797     247.2396        20     1.435     0.858  53.16   0
       357    612.1283    470.6011 307.6690259  +6.4984468      9318.72     14755.63     15865.36     77.53555     155.5068     311.6345      1.707     4.23     831.2125     54.95797     1241.665        39     1.613     1.036  53.53   0
       358    774.7900    467.2229 307.6015754  +6.5052835     15456.62     24164.49      25769.5     77.78446     155.7552     311.6345      1.661     4.30     829.7848     54.95797      2253.45        43     1.628     0.978  54.68   0
       359    294.4663    467.4594 307.8010735  +6.4890906     2549.378     4001.676     3834.332     78.27991     155.8793     311.7895      1.693     4.34     832.2537     54.95797     327.4508        22     1.495     0.877  55.38   0
       360    418.3932    467.0878 307.7496134  +6.4934042     700.7611     904.9532     703.7678     77.66011      155.631     311.5414      1.357     4.84     832.1712     54.95797     92.90662         9     0.949     0.700 -16.68   0
       361    803.7473    464.1245 307.5896514  +6.5075307     1172.064     1787.116     1926.234     78.15635     156.0032     311.7895      1.500     4.50     829.3879     54.95797     186.7659        12     1.369     0.576  45.51   0
       362    377.4190    464.0282 307.7667353  +6.4932925      1531.44     2382.336     2852.447     77.78446     155.7552     311.7275      1.805     5.07     832.0295     54.95797     178.5206        16     1.351     0.839  59.29   0
       363    960.0230    462.0715 307.5248071  +6.5135966     1867.158     2912.691     3105.519     77.78446     155.8172     311.7895      1.634     4.79     826.2922     54.95797     293.4077        14     1.453     0.641  57.26   0
       364    778.6501    462.1092 307.6001439  +6.5075240     1295.013     2288.054     2812.796     78.15634     155.7552     311.9755      1.935     4.98     829.5202     54.95797     169.8468        16     1.394     0.838  50.14   0
       365    112.1893    459.0174 307.8770655  +6.4864477     4119.594     6853.986     7484.195     77.90862      155.631     311.6655      1.765     4.29     836.0089     54.95797     541.6644        31     1.599     1.023  53.94   0
       366    750.2214    458.1116 307.6120868  +6.5082241     2150.838     3385.074     3483.154     78.15634     155.7552     311.6655      1.668     4.47     829.5792     54.95797     310.1705        18     1.439     0.813  47.92   0
       367    365.4146    459.6544 307.7718689  +6.4946955     564.8306     1059.548     1161.825     77.53555     155.8793     311.5104      1.549     3.41     831.8334     54.95797     93.86377         5     1.109     0.303  68.65   0
       368   1014.0116    456.7679 307.5025591  +6.5175873     3950.579     6614.911     6983.066     77.66011     155.6931     311.6655      1.719     4.99     824.8193     54.95797     551.3768        29     1.712     0.873  43.83  16
       369    270.0908    455.8312 307.8115906  +6.4930727     1224.199     2428.006     2541.009     78.27991     155.7552     311.7895      2.136     6.20     832.2454     54.95797     146.5485        20     1.627     1.058  64.23   0
       370    348.2583    453.7589 307.7791938  +6.4965536     3083.518     5050.459     5029.045     78.15635     155.9413     311.8515      1.703     4.04      831.552     54.95797     442.8403        26     1.556     0.929  55.99   0
       371    703.9871    451.5388 307.6315123  +6.5093917     1555.015     2255.965     2114.084     77.66011     155.7552     311.5104      1.539     4.38     829.5582     54.95797     218.2469        18     1.402     0.898  47.15   0
       372    236.7800    450.0724 307.8256206  +6.4943310     721.3744     1193.655     541.0585     77.78446     155.8172     311.7585      1.495     5.37     832.8026     54.95797     91.96533         9     1.455     0.559  47.79   0
       373    407.9613    450.1927 307.7545163  +6.5000299     607.9713     970.6819     1008.883      77.4108     155.6931     311.5104      1.831     3.99     831.3434     54.95797     87.11908         6     0.904     0.503 -34.19   0
       374    545.4457    444.4789 307.6976032  +6.5069988     893.3787     1570.986     1718.202     78.15635     155.9413     311.7585      1.837     7.23     829.7861     54.95797     111.8551        14     1.567     0.933  48.09   0
       375    830.3251    441.8295 307.5793608  +6.5176242     1499.732     2358.095     2465.611     78.03259     155.9413     311.7895      1.629     5.31     828.1577     54.95797     227.9303        15     1.371     0.766  60.52   0
       376    467.8037    442.6115 307.7299159  +6.5051673     1425.718     2318.803     2100.317     77.78447      155.631     311.6655      1.667     6.11     830.3298     54.95797     199.6484        15     1.422     0.737  50.10   0
       377    815.7981    440.7997 307.5854297  +6.5175640     1960.089     3005.052     2870.631     77.53555     155.5068     311.4794      1.574     4.82     828.2555     54.95797     273.7632        18     1.473     0.745  61.85   0
       378    713.3029    438.9571 307.6280660  +6.5148982     14053.07     22011.53     23056.59     78.15635     155.8793     312.0064      1.679     4.40     828.8308     54.95797     1940.914        42     1.637     0.980  51.31   0
       379    634.3530    434.8644 307.6609976  +6.5139461     2518.046     3916.432     3829.156     78.03259     155.8793     311.8515      1.654     4.69     829.0775     54.95797     346.6826        21     1.473     0.848  47.54   0
       380    606.7462    430.0303 307.6726275  +6.5150177      12616.3     25917.66     30594.66     78.03259     156.0032     311.6965      2.292     7.74     829.0364     54.95797     1756.594        61     2.500     1.067  39.87   0
       381    615.7814    440.6255 307.6685177  +6.5109456     624.1091     995.1559     745.6978     77.78447     155.7552     311.7275      1.643     4.48      829.565     54.95797     114.4457         8     1.120     0.509  53.80   0
       382    938.6119    428.8100 307.5348172  +6.5266157     3614.698      5647.02     5928.933     77.90862     155.7552     311.7585      1.671     4.55     825.8315     54.95797     566.5229        24     1.525     0.867  51.29   0
       383    377.6808    424.7467 307.7679522  +6.5095199     27171.25     43899.79     46415.49     78.15635     155.9413     311.8515      1.736     4.26     830.1182     54.95797     3571.154        61     1.726     1.108  54.08   0
       384    414.3987    425.8446 307.7526639  +6.5102987     596.5118     959.0985     470.8478     77.53555     155.5689     311.3863      1.662     4.84     830.1672     54.95797     74.42725         7     1.031     0.645  41.33   0
       385    123.9330    424.2741 307.8733634  +6.5011874     2138.931     3560.682     3966.874     78.27991     156.0652     311.7585      1.749     4.07     835.0519     54.95797     303.3375        23     1.452     0.925  58.46   0
       386    894.2584    424.3308 307.5533916  +6.5269846      1497.11     2480.959     3331.755     78.27991     155.8793     311.7585      2.130     5.01     826.5285     54.95797     233.3094        16     1.396     0.782  49.17   0
       387    907.3612    419.2777 307.5481184  +6.5295084     4898.677     7462.356     7817.132     78.03259     156.0032     311.7895      1.658     4.43     826.1482     54.95797     638.2864        29     1.567     0.909  51.39   0
       388     56.9914    419.6833 307.9013225  +6.5008295     1437.409      2466.25     2761.211     77.78446      155.631     311.6345      1.752     5.38     836.3625     54.95797     189.0696        17     1.311     0.908  45.97   0
       389    963.4685    417.1439 307.5248834  +6.5322620      650.134     1046.231      780.353     78.27991     155.8172     311.7275      1.624     4.80      824.805     54.95797     104.7507         6     1.528     0.427  56.03   0
       390    235.1893    415.2457 307.8274583  +6.5086566     12820.03     21095.84     22188.14     77.66011     155.8172     311.5104      1.727     4.23     831.4923     54.95797     1743.249        47     1.658     1.110  56.04   0
       391    730.2187    409.2355 307.6220391  +6.5277357     661.1195     975.2827     1388.918     77.66011     155.7552     311.5724      1.563     4.79     827.3963     54.95797     94.87128         8     1.347     0.483  41.98   0
       392     70.7754    409.3955 307.8959458  +6.5055411     704.4933     1244.093      1358.26     77.66011     155.6931     311.6345      1.691     5.49     835.8032     54.95797     111.4695         9     1.498     0.568  57.66   0
       393    958.4079    407.2267 307.5273184  +6.5361879     782.0253     1207.526     1232.065     77.78447     155.7552     311.6345      1.396     4.11      824.518     54.95797     147.4626         7     1.199     0.403  51.88   0
       394    697.7083    407.9553 307.6355866  +6.5271768     791.0854     1014.559     1117.835     78.15635     155.8793     311.9135      1.519     4.25     827.3613     54.95797     127.7371         7     1.184     0.435  35.31   0
       395    348.3139    404.8289 307.7808225  +6.5167577     1291.015     2090.683       2139.5     78.27991      155.631     311.6345      1.622     5.56     829.3761     54.95797     181.7253        14     1.399     0.667  48.52   0
       396    181.2160    405.1636 307.8502173  +6.5110046      714.449     1225.099     1127.074     77.78446     155.7552     311.5724      1.726     4.19     833.2374     54.95797     100.6111         7     1.143     0.439  60.70   0
       397    135.3951    403.9232 307.8692912  +6.5099754     4777.094     7588.881     8148.211     77.78446     155.4446     311.6655      1.694     4.39       834.47     54.95797     655.3534        29     1.529     0.960  50.95   0
       398    240.3751    402.7744 307.8257259  +6.5139800     1148.545     1994.422     2430.393     77.66011     155.7552     311.6655      1.863     5.14     831.0989     54.95797     172.5918        13     1.302     0.684  53.85   0
       399    433.3195    402.5488 307.7455907  +6.5205519     635.4099     1083.795     1066.754     78.15635     156.0032     311.7895      1.834     6.15     828.5946     54.95797     109.5611        10     1.632     0.652  31.45   0
       400    157.7303    399.5548 307.8601619  +6.5125304     2483.834     4597.039     4901.782     78.15635     155.8793     311.7895      1.957     4.61     833.9713     54.95797     337.2889        30     1.672     1.092  76.09   0
       401    821.1920    400.2630 307.5845513  +6.5344815     635.5856     985.6891     931.9277     77.53555     155.6931     311.6035      1.769     4.90     826.6426     54.95797     90.89563         8     1.244     0.546  47.02   0
       402    552.9319    398.7488 307.6960344  +6.5261309     939.4073     1460.197     1161.796     78.03259     155.8172     311.7275      1.580     4.62     826.8617     54.95797     139.6325        11     1.169     0.719  56.95   0
       403     20.5667    396.1985 307.9172466  +6.5092988     464.1496     753.1433     664.5715      77.4108     155.7552     311.5414      1.911     5.37      836.618     54.95797     61.87701         5     1.462     0.556  50.69   0
       404    969.7244    393.8234 307.5230672  +6.5420996      872.815      1728.35     1787.723     77.78446     155.8172     311.7275      2.406     5.80     823.6231     54.95797      125.854        13     1.515     0.760  52.98   0
       405    380.9597    394.3186 307.7676172  +6.5221931     1961.895     3181.618     2934.392     78.15634     156.0032     311.7275      1.676     4.08     828.7482     54.95797     258.5907        22     1.477     0.865  55.01   0
       406    269.0669    395.0179 307.8140704  +6.5181467     834.8455     1371.228     1295.034     77.66011     155.8793     311.6965      1.711     5.15     830.3397     54.95797     106.4357         9     1.081     0.694  19.55   0
       407    434.7607    388.0992 307.7454794  +6.5265662     6997.671     11236.19     11541.02     78.15634     155.8172     312.0064      1.698     4.20     827.7021     54.95797     970.6144        33     1.566     0.996  56.40   0
       408     31.0848    388.7923 307.9131287  +6.5127109      2751.33     4689.292      5009.64     77.78446      155.631     311.6345      1.772     5.12      836.251     54.95797     378.3461        26     1.493     1.143  78.27   0
       409    767.5028    387.1470 307.6072944  +6.5381025     1967.659     2984.378     3539.763     78.03259     155.9413     312.0374      1.596     3.90     826.6178     54.95797     300.2027        17     1.447     0.696  50.23   0
       410    775.4662    385.5178 307.6040412  +6.5390414     12463.43     19237.73     20167.09     78.40329      156.189     311.8515      1.704     4.53     826.5868     54.95797     1695.959        40     1.644     0.946  53.17   0
       411    338.9424    383.8110 307.7854248  +6.5251209      895.144     1571.823     813.0298     77.53555     155.9413     311.5104      1.707     5.86      828.885     54.95797     141.3198        10     1.215     0.795  56.84   0
       412   1019.3280    380.7424 307.5029004  +6.5491552     3528.402     5454.581     5277.161     78.27991     155.9413     292.6655      1.635     4.33     821.6825     54.95797     500.1621        24     1.496     0.851  51.36  16
       413    950.5010    376.9691 307.5316184  +6.5484172     678.1284     883.4606     823.8657     78.15634     155.6931     311.9135      1.311     3.71     823.4323     54.95797     110.5828         6     1.153     0.344  40.86   0
       414    184.1597    376.0302 307.8499798  +6.5231320     772.4075     1301.471     931.7693     77.66011     155.6931     311.6035      1.829     4.66     832.4133     54.95797     96.35193         8     1.029     0.599  29.53   0
       415    454.9259    372.5391 307.7376280  +6.5336671     2270.603     3685.504     3559.179     78.40328     155.9413     311.7895      1.812     7.37     826.3023     54.95797     440.6885        22     1.489     1.020  56.74   0
       416    483.0088    371.6909 307.7259914  +6.5349590     2855.202     4638.473     4948.126     77.78446      155.631     311.5414      1.701     4.84     825.4913     54.95797     374.0533        23     1.613     0.859  48.34   0
       417    911.9741    372.0262 307.5477887  +6.5491722     739.0351     1080.268     710.3046     77.66011     155.7552     311.6655      1.694     4.04     824.1189     54.95797     107.0005         7     0.957     0.489  43.62   0
       418    840.8209    368.4244 307.5774672  +6.5482832     31505.97     51140.49     53870.03     77.78447     155.7552     311.7895      1.753     4.12     825.2571     54.95797     4358.334        60     1.727     1.095  60.77   0
       419    333.0867    364.0504 307.7885244  +6.5330830     866.2337     1290.568     1221.332     78.15635     155.8172     311.8825      1.524     5.54     828.4891     54.95797     148.7032        11     1.441     0.601  72.27   0
       420     58.4253    365.0714 307.9025760  +6.5234253     627.6006     1051.757     808.4401     77.78446     155.8172     311.7275      1.746     6.10     835.2296     54.95797     110.5612         8     1.380     0.758  56.78   0
       421    612.6005    360.8864 307.6725240  +6.5437624     2583.223     4381.052     4397.235      77.4108     155.4446     311.4794      1.771     5.12     823.8636     54.95797     374.1088        22     1.568     0.832  51.49   0
       422     20.6862    360.9614 307.9183904  +6.5238511     1026.014     1390.798     1312.476     78.15634     155.8793     311.7895      1.484     3.98     835.8018     54.95797     151.6947        12     1.170     0.698  35.60   0
       423    697.2847    354.4047 307.6375644  +6.5492730     76036.11       119364     125398.3     77.66011     155.5689     311.4483      1.704     4.37     825.4725     54.95797     10484.24        80     1.715     1.100  54.18   0
       424    855.3746    355.9336 307.5718412  +6.5539267     1066.432     1683.592      1740.66     77.78446     155.8172     311.6965      1.664     4.58     824.4985     54.95797     208.9343        13     1.462     0.668  51.73   0
       425     76.4829    353.7570 307.8954586  +6.5287047     1225.662     1821.242     1708.955     78.15635     155.9413     311.7275      1.661     4.78     834.7095     54.95797     182.4117        12     1.308     0.624  57.26   0
       426    938.6140    350.9691 307.5374290  +6.5587558     734.5156     1274.666      1069.95     77.78446     155.6931     311.7275      1.665     5.37     822.6619     54.95797     98.76343         9     1.454     0.560  58.02   0
       427    559.6642    350.8971 307.6948502  +6.5461137     2458.767     3941.187      4721.74     78.03259     156.0652     311.8205      1.721     4.24     823.0237     54.95797     360.6185        24     1.553     0.880  51.51   0
       428     96.9874    349.8408 307.8870743  +6.5310118     5793.539     9139.408      9303.74     77.53555     155.7552     311.5414      1.649     4.06     834.3188     54.95797     763.7979        32     1.558     0.999  53.49   0
       429    542.9518    347.3167 307.7019131  +6.5470320     6922.544     10962.08      11598.7     78.15634     155.9413     311.7895      1.694     4.25     822.9407     54.95797     951.2445        32     1.530     0.986  54.75   0
       430    757.6593    349.2987 307.6126561  +6.5534006     595.0023     699.4217     910.4233     77.90862     155.8793     311.9135      1.212     4.04     825.3582     54.95797     85.45349         6     0.902     0.517  48.04   0
       431    405.9126    342.4036 307.7590042  +6.5444652     24127.59     39214.56     40917.41     77.66011      155.631     311.5104      1.745     4.24     825.9966     54.95797     3065.222        56     1.684     1.116  52.88   0
       432    271.9540    344.5691 307.8145758  +6.5390728     2481.299     3855.969     3859.963     77.78446     156.0032     311.6655      1.614     4.03     829.5426     54.95797     349.0162        20     1.511     0.778  53.02   0
       433    513.6103    341.0303 307.7143134  +6.5486441     1240.739     1891.428     2037.185     77.66011     155.7552     311.6345      1.561     4.79     823.2179     54.95797     193.4597        12     1.406     0.661  60.44   0
       434    584.1104    341.3875 307.6850156  +6.5508590     691.1027     972.8982      446.471     77.90862     155.6931     311.6345      1.380     4.43     822.7281     54.95797     97.28564         7     0.874     0.639  71.08   0
       435    385.7863    340.4573 307.7674302  +6.5445933     1192.935     2156.766     2771.145     77.53555     155.8172     311.4794      2.514     6.53     826.3687     54.95797     163.0291        18     1.599     0.779  51.68   0
       436    636.7361    334.5805 307.6633839  +6.5554318     619.8592     943.8706     1001.398     77.78447     155.9413     311.6345      1.925     5.52     823.3254     54.95797     70.12842         7     1.652     0.520  55.76   0
       437    800.9719    335.1042 307.5951407  +6.5607092     912.4146     1431.511     1086.682     78.27991     155.6931     311.7585      1.547     4.77     824.8638     54.95797     129.7824        10     1.264     0.555  29.20   0
       438    494.9561    332.8522 307.7223381  +6.5513954     8175.203     13026.07     13839.76     78.15635     155.9413     311.7895      1.673     4.22       823.16     54.95797     1095.527        35     1.580     0.994  53.18   0
       439    485.1226    337.7380 307.7262582  +6.5490484      1121.85     1727.039     2203.357     78.40328     156.0032     311.7895      1.649     5.06     823.5327     54.95797     151.6376        16     1.423     0.792  52.05   0
       440    764.0908    331.6892 307.6105765  +6.5608864     2957.574     4789.614     4968.803     78.15635     156.4363     311.8825      1.749     4.14     824.5875     54.95797     454.6535        22     1.525     0.798  49.07   0
       441    919.5551    331.3094 307.5460065  +6.5662370     876.9748     1550.306     1826.747     78.15635     155.8793     311.9135      2.006     5.56     822.2604     54.95797     121.1895        12     1.426     0.723  64.07   0
       442    711.6276    330.8572 307.6323985  +6.5594753     743.0787     1216.682     1508.199     77.78446     156.0032     311.6965      1.643     5.83     824.3032     54.95797     112.3823         9     1.586     0.604  40.23   0
       443    321.5159    329.4884 307.7944979  +6.5469643     1184.796     1673.669     1730.709     77.90862     156.1271     311.8515      1.538     4.27     827.7724     54.95797     157.6447        12     1.183     0.699  55.19   0
       444    155.9351    322.6032 307.8635106  +6.5442411     1210.115     2466.824     3228.476     77.53555     155.6931     311.5724      2.249     7.34     832.7855     54.95797     806.2611        15     1.901     0.793  22.65   0
       445    384.9170    316.9944 307.7685833  +6.5542515     6862.635     11339.34     12052.74     77.78446     155.5689     311.5724      1.727     4.35     825.4501     54.95797     889.1606        38     1.610     1.072  52.60   0
       446    240.8981    317.5476 307.8283892  +6.5491856     1980.333     3295.472     3242.191     78.03259     155.9413     311.9755      1.738     4.73     829.5238     54.95797      249.814        21     1.435     0.944  53.23   0
       447    738.4835    316.5931 307.6217219  +6.5662631     980.5941     1480.655     1638.412     77.78447      155.631     311.6655      1.719     4.71     823.8244     54.95797     137.6728        10     1.377     0.499  52.63   0
       448    752.7878    312.9250 307.6159030  +6.5682560     51649.24     80848.29     84636.22     77.66011      155.631     311.6035      1.661     4.21     823.6732     54.95797     7717.742        72     1.703     1.057  52.72   0
       449    424.1963    312.1991 307.7524284  +6.5575494     2274.677     3508.148     3622.335     77.53555     155.5068     311.5414      1.610     4.47     824.0799     54.95797     301.2531        18     1.327     0.904  42.96   0
       450    987.6825    309.9476 307.5184215  +6.5773305     1692.958     2218.918     1984.794     78.15634     155.9413     311.8515      1.471     4.04     820.1683     54.95797     247.0159        16     1.393     0.740  52.20   0
       451    928.6911    309.2035 307.5429533  +6.5756693     2171.098     3241.542     3451.463     77.78446      155.631     311.5414      1.592     4.73     821.0677     54.95797     297.8084        18     1.509     0.715  49.36   0
       452    570.6071    309.6508 307.6916941  +6.5635102      1198.76     1970.775     1997.413     77.66011     155.7552     311.4173      1.843     5.92     821.8116     54.95797     150.3567        16     1.403     0.861  37.47   0
       453    461.5824    308.5965 307.7370196  +6.5602910     1097.737     1918.011     2458.975     77.78447     155.5068     311.6035      2.016     5.46     822.7589     54.95797     151.6355        12     1.243     0.677  49.66   0
       454    410.8929    307.8327 307.7581020  +6.5589059     1922.953     3176.054     3221.315     78.27991     155.8172     311.8515      1.766     4.37     824.2864     54.95797      254.223        23     1.460     1.020  44.32   0
       455    831.9381    302.3433 307.5833778  +6.5752707     1022.689     1718.261     1952.974     78.27991     155.8793     311.8205      1.964     5.00      823.016     54.95797      177.597        14     1.374     0.848  56.56   0
       456    461.4478    302.7994 307.7372710  +6.5626800     662.7719      1322.66     1612.693     77.53555     155.5689     311.3552      2.187     5.20      822.497     54.95797     104.7618         8     1.318     0.581  47.41   0
       457    964.0499    301.1324 307.5285351  +6.5801818     453.9468     1011.448     582.2401     78.03259     155.8172     311.7895      1.644     3.72     820.2414     54.95797     73.91821         5     1.522     0.261  67.42   0
       458    187.3834    299.3757 307.8512331  +6.5548889     2165.212     3660.004     4311.301     77.90862     155.8172     311.7275      1.834     4.67     831.4017     54.95797     278.0449        21     1.529     0.851  55.58   0
       459    751.2067    297.4915 307.6170789  +6.5745754     5903.366     8931.314     9385.618     77.78447      155.631     311.5724      1.622     4.29     822.9337     54.95797     804.9689        25     1.540     0.826  52.46   0
       460    441.2791    299.2963 307.7457674  +6.5634499     1020.344      1699.28     2163.664     77.90862      156.189     311.8515      1.809     4.93     822.9227     54.95797      137.053        12     1.394     0.623  25.01   0
       461    223.0369    297.4635 307.8364875  +6.5568773     767.2426     1353.736     1394.006     78.15634     155.9413     311.7895      1.928     5.22      829.804     54.95797     113.7096         9     1.233     0.716  68.95   0
       462     83.4304    296.6039 307.8945077  +6.5525353     971.2901     1467.668     1220.817     77.66011     155.8172     311.5724      1.705     6.39     834.0735     54.95797     141.0026        14     1.453     0.790  59.65   0
       463    767.6972    295.4119 307.6102982  +6.5759855     2585.278     4138.629     4660.796     77.90862     155.6931     311.6035      1.739     4.45     822.8499     54.95797     341.7572        24     1.525     0.885  52.31   0
       464    342.0195    296.6772 307.7870888  +6.5611998     558.0624     1012.574     911.8756     77.78446     155.6931     311.7585      1.861     4.88      826.058     54.95797     71.85889         6     1.402     0.482  37.10   0
       465    357.3843    290.1761 307.7809257  +6.5643998     1576.194     3448.792     3846.915     77.90862     155.7552     311.7275      2.239     7.53     825.3174     54.95797     193.1177        29     1.964     1.115  25.98   0
       466     70.7291    290.5965 307.8999869  +6.5545879     1343.474     2055.936     2112.155     77.66011     155.5689     311.6345      1.646     4.52     834.1046     54.95797     180.8772        18     1.457     0.784  36.96   0
       467   1005.8323    286.3326 307.5116737  +6.5876863     5663.199     8699.908     8975.973     78.03259     155.9413     311.7585      1.611     4.34     819.1829     54.95797     798.6086        27     1.544     0.848  55.26   0
       468    483.9464    286.2448 307.7284832  +6.5702696     1905.506     3086.315     2905.182     78.15634     155.9413     311.8205      1.680     4.37     821.0836     54.95797     280.6403        17     1.514     0.698  50.40   0
       469    246.4759    281.7278 307.8272829  +6.5641621     5716.562     9125.223      9648.14     78.40329      156.189     311.7895      1.759     4.57     828.8764     54.95797     732.2589        33     1.614     0.988  52.97   0
       470    811.4724    280.4266 307.5926165  +6.5836360     587.1976     590.7953      988.364     77.78447     155.8172     311.6965      1.574     5.13     822.0084     54.95797     74.73743         7     1.129     0.659  46.41   0
       471    765.3917    274.8983 307.6119458  +6.5843782     740.4012     1205.419      1248.69     77.90862     155.5689     311.5724      1.681     5.91     821.7709     54.95797     105.8887        11     1.524     0.645  50.42   0
       472    223.2394    274.8425 307.8371682  +6.5662237     683.1054     1160.793     969.2271     77.90862     155.9413     311.6655      1.966     4.67     829.5915     54.95797      100.308         8     1.347     0.460  46.64   0
       473    380.6839    272.4717 307.7718446  +6.5724918     1524.025     2516.616     2415.888     78.27991     156.2508     311.8205      1.822     5.67     823.7277     54.95797      194.095        18     1.403     0.853  58.10   0
       474    967.2451    271.4902 307.5282025  +6.5925274     1071.159     1542.609     1590.796     78.15635     155.8172     311.9135      1.541     4.70     818.7399     54.95797     173.3459        10     1.215     0.670  53.94   0
       475    302.9412    268.3620 307.8042786  +6.5715779      1071.92     1693.703     1164.612     78.15634     156.0032     311.8205      1.518     4.59     826.5937     54.95797     168.1021        12     1.215     0.682  46.08   0
       476    150.1012    268.2344 307.8677733  +6.5664921     1631.668     2569.885     2404.122     78.15634     155.8172     311.9445      1.673     4.84     832.0302     54.95797     203.1259        18     1.339     0.897  53.41   0
       477    903.4913    263.0628 307.5549716  +6.5938791     1668.048     2679.646     3127.403     78.15634     156.0652     311.8825      1.843     4.76     819.6109     54.95797     260.1077        19     1.557     0.776  48.19   0
       478    559.8611    263.8712 307.6977008  +6.5820518     2054.299     3041.158     3094.145     78.27991     155.9413     311.8515      1.575     4.46     820.0988     54.95797     274.2474        18     1.436     0.768  51.47   0
       479    723.5406    261.6574 307.6297776  +6.5884455     4946.161     7450.832      7334.68     78.27991     155.8793     311.8205      1.656     4.46     820.8673     54.95797     685.4417        26     1.542     0.849  52.71   0
       480    664.4345    261.4310 307.6543400  +6.5865613     1985.336     3367.885     3377.671     77.78447     155.6931     311.5724      1.811     5.32       820.15     54.95797     290.7005        22     1.692     0.850  56.01   0
       481    961.4011    261.2384 307.5309745  +6.5965653     622.7954      1059.02     896.8546     77.28584     155.7552     311.5414      1.882     4.36     818.2819     54.95797     101.9599         6     1.208     0.448  41.14   0
       482    919.7396    253.7372 307.5485344  +6.5982720     1073.304     1528.123       1060.9     78.15635     155.9413     311.8205      1.532     5.85     818.8156     54.95797     170.8541        13     1.579     0.610  50.30   0
       483    379.6360    255.6581 307.7728475  +6.5793986     657.3691     918.7418     958.6677     78.15635     155.9413     311.7895      1.895     4.80     823.0975     54.95797     106.3749         8     1.371     0.476  40.79   0
       484    222.9904    246.7903 307.8382200  +6.5777973     2159.376     3508.835     3724.318     77.78446     155.7552     311.7275      1.786     4.31     829.2806     54.95797     287.9919        23     1.521     0.907  52.02   0
       485    865.8417    245.8316 307.5711918  +6.5997364     1668.121     2757.897     2920.128     77.66011     155.8172     311.6345      1.686     4.92     819.0728     54.95797     263.4417        19     1.572     0.773  57.49   0
       486    756.2188    245.0052 307.6167619  +6.5964139     1541.905     2534.002     2981.659     77.78446     155.5689     311.6035      1.743     5.25     820.0674     54.95797     232.5531        15     1.535     0.636  49.48   0
       487    245.3222    240.7221 307.8291482  +6.5810534     576.3694     974.8688     1087.112     78.40329      156.189     311.8825      1.711     4.25     828.3508     54.95797      89.9071         7     1.434     0.359  66.12   0
       488    871.8192    239.5721 307.5689187  +6.6025205     454.0301     901.6589     1077.548     77.78447     155.7552     311.7275      2.226     5.93      818.553     54.95797     79.96338         8     2.123     0.466  45.86   0
       489    457.0717    236.7725 307.7413161  +6.5897944     21701.34     35092.67     36832.66     77.90862     155.8793     311.6965      1.717     4.29     819.7902     54.95797     2788.382        53     1.685     1.081  53.99   0
       490    783.0974    235.9084 307.6059013  +6.6010686     12838.93     20145.71     22559.76     78.15635     156.4363     311.7585      1.720     4.33     819.5564     54.95797     1867.278        49     1.638     1.180  42.97   0
       491    721.7951    231.7941 307.6315075  +6.6007173     730.2582     1239.383     1147.843     77.53555     155.6931     311.6345      1.698     5.96     819.2119     54.95797      102.024        12     1.660     0.602  47.08   0
       492    462.6105    231.0612 307.7392078  +6.5923383     1437.351     2344.695     2853.497     77.53555     155.8172     311.5414      1.805     3.95      819.442     54.95797     212.1699        16     1.331     0.832  70.23   0
       493    145.3199    230.1631 307.8710476  +6.5820497     2326.731      3886.84     3767.524     78.03259     156.0032     311.7585      1.777     4.76     830.9562     54.95797     339.9916        25     1.592     0.929  53.33   0
       494    172.3517    228.2849 307.8598818  +6.5837346     687.7886     1221.138     1066.471     78.15635     155.9413     311.8205      1.638     5.61     830.0241     54.95797     100.2404        10     1.399     0.634  58.85   0
       495    120.3551    229.0961 307.8814543  +6.5816500     1061.104     1691.789     2174.724     78.15635     155.8172     311.9445      1.851     5.66     831.9509     54.95797     140.0424        13     1.389     0.651  48.92   0
       496    919.6908    226.3300 307.5494750  +6.6095865     1320.728     2111.003     2241.365     78.15635     156.0652     311.7895      1.745     5.10     817.4694     54.95797     212.2971        13     1.500     0.615  45.87   0
       497    617.5537    224.5114 307.6750592  +6.6002353     526.3712     604.6519     770.5909     78.15635     155.8172     311.8825      1.354     4.77      818.504     54.95797     91.20703         7     0.931     0.692  64.41   0
       498    301.5277    223.2963 307.8063883  +6.5901369     1146.751     1593.755     1006.882     77.90862     156.1271     311.7585      1.569     5.27     825.6017     54.95797     153.1281        16     1.309     0.897  57.04   0
       499    581.2335    222.5488 307.6902144  +6.5998291     4552.004      7055.63     6983.936     78.03259     156.0032     311.6965      1.681     4.32     818.3878     54.95797     584.8992        27     1.556     0.915  46.40   0
       500    543.6932    222.4261 307.7058143  +6.5986219     2014.729     3215.093     3062.636     78.27991     155.6931     311.6345      1.650     4.37      818.265     54.95797      261.817        20     1.493     0.799  51.70   0
       501    385.5359    221.3906 307.7715533  +6.5937448     1597.413     2424.942     2702.819     77.66011     155.7552     311.6655      1.788     4.33     821.4103     54.95797     218.1238        13     1.175     0.735  48.66   0
       502    942.1168    219.5470 307.5403857  +6.6131358     2658.437     4004.058     4270.098     78.15634     155.9413     311.9135      1.637     4.37     816.7885     54.95797     384.6663        21     1.494     0.811  51.98   0
       503    888.1832    219.0950 307.5628081  +6.6115218     11130.07      17254.2     18232.27     78.03259     155.7552     311.6345      1.625     4.29       817.25     54.95797     1567.189        40     1.595     0.985  54.41   0
       504    562.8409    219.0289 307.6979740  +6.6006662     972.8701     1691.312      2169.27     77.78446     155.7552     311.6345      2.055     4.75     818.2155     54.95797     142.1136        12     1.138     0.854  67.51   0
       505    316.1017    219.3322 307.8004678  +6.5922632     799.6961     1456.817     1660.521     78.15635     156.0652     311.8205      2.146     5.26     824.9062     54.95797     105.8998         9     1.160     0.676  53.32   0
       506    207.3757    219.3871 307.8456332  +6.5885862     587.0524     883.1574     1188.765     77.90862     155.7552     311.7275      1.825     5.10     829.2358     54.95797     114.6219         7     1.501     0.491  59.33   0
       507     14.2823    215.6105 307.9259745  +6.5836456     24352.56      39358.8     41791.68     77.78447      155.631     311.6345      1.746     4.13     834.4225     54.95797      3166.25        59     1.709     1.112  56.73   0
       508    974.8173    217.0238 307.5268846  +6.6152687     9613.396     15045.41     15840.05     77.90862     155.8172     311.6965      1.604     4.24     815.5953     54.95797     1434.946        37     1.592     0.939  51.21   0
       509    686.1838    216.8817 307.6468040  +6.6056829     2848.191     4338.994     5024.299     77.78446      155.631     311.6655      1.659     4.34     818.5016     54.95797     404.9999        22     1.529     0.816  62.76   0
       510    260.5786    216.7913 307.8236194  +6.5914466     1012.715     1685.372     1737.715     77.78447     155.7552     311.5724      1.720     5.93     827.4102     54.95797       138.78        15     1.543     0.764  51.28   0
       511    494.8800    211.6211 307.7264575  +6.6014468     1887.264     2913.311     2808.118     77.78446      155.631     311.7895      1.626     4.20     818.2588     54.95797     263.1933        20     1.407     0.891  48.40   0
       512    826.7451    208.5751 307.5886866  +6.6138130     1966.198     3002.582     3244.681     77.78447     156.0032     311.6035      1.589     5.21     817.7084     54.95797     272.0457        17     1.481     0.713  55.18   0
       513    878.9848    207.5641 307.5670170  +6.6159756     1912.972     3084.721     3534.807     77.78446     155.7552     311.6035      1.723     4.49      816.951     54.95797     294.9236        17     1.517     0.674  49.67   0
       514    738.3432    205.0682 307.6255317  +6.6123056     39062.27     60629.95      63841.8     78.27991     155.8793     311.7275      1.652     4.32     818.3776     54.95797     5220.593        66     1.694     1.057  52.28   0
       515    506.7935    207.7166 307.7216398  +6.6034583     2484.628     3935.184     4132.542     77.78446      155.631     311.6655      1.603     4.24     818.0126     54.95797     335.8716        20     1.392     0.843  56.71   0
       516    341.4492    204.3038 307.7904453  +6.5993194     5537.143      11612.4      13302.9     78.03259     155.8793     311.9445      2.224     6.14     823.4666     54.95797     608.9764        45     1.966     1.230  84.69   0
       517    972.1500    203.8951 307.5284334  +6.6206005     2754.862     4244.677     4536.656     78.03259     155.8172     311.9445      1.639     3.97     815.4315     54.95797     425.5856        22     1.457     0.826  50.61   0
       518   1010.5025    202.5047 307.5125458  +6.6224540     1731.024     2879.536     3574.598     78.15635     156.4981     311.6345      1.887     4.71      814.322     54.95797     236.4243        16     1.489     0.731  45.16   0
       519    906.3157    202.2244 307.5558414  +6.6190929     7256.231     11152.61     11667.89     78.03259     155.6931     311.7275      1.666     4.60     816.6705     54.95797     999.3477        32     1.595     0.902  52.12   0
       520    449.7836    201.1467 307.7455457  +6.6042590     4699.744     7720.204     8035.206     77.66011     156.0032     311.5104      1.695     4.32     818.5851     54.95797     631.6503        29     1.626     0.891  52.45   0
       521    223.5683    197.5159 307.8396460  +6.5981607     685.0627      832.414     844.5189     78.15635     155.7552     311.6655      1.515     4.69     828.6981     54.95797     100.7645         7     0.920     0.680  64.93   0
       522    107.0759    192.5372 307.8882082  +6.5962970     4569.982     7392.623     7608.821     78.40328     155.9413     311.7585      1.722     4.43     831.7457     54.95797     549.1591        30     1.586     1.003  53.47   0
       523    926.4725    191.6275 307.5478228  +6.6241412      883.072     1330.277     1811.225     77.90862     155.8793     311.7275      1.621     4.94     816.2263     54.95797     146.0457        10     1.469     0.470  52.89   0
       524    277.4341    189.1945 307.8175498  +6.6034070     32119.68     52178.21     54848.42      77.4108     155.7552     311.5724      1.733     4.21     826.7546     54.95797     3984.758        59     1.693     1.119  54.98   0
       525    252.7386    190.2764 307.8277726  +6.6021303     6411.842        10368     10704.72     78.40329     155.9413     311.7895      1.727     4.30     827.6008     54.95797     865.7496        32     1.531     1.016  50.83   0
       526    603.7115    190.7074 307.6819486  +6.6137288     661.6407     1056.176     1274.848     78.15635     156.3745     311.8825      1.978     5.00     817.7504     54.95797     127.6805         7     1.152     0.615  55.25   0
       527    706.5526    188.4584 307.6392983  +6.6181000     897.1965     1269.675     1151.406     78.15635     155.9413     311.9135      1.527     4.86     818.0708     54.95797     169.0609        10     1.444     0.463  53.70   0
       528    401.5200    184.7033 307.7661514  +6.6094286     47889.01     76960.11     80610.02     77.90862      156.189     311.9135      1.731     4.31     819.7913     54.95797     6249.148        70     1.687     1.161  52.68   0
       529    157.3342    185.9353 307.8675532  +6.6007142     3957.724     6210.433     6257.282     78.15634     155.9413     311.7895      1.684     4.00     829.6084     54.95797     531.4667        30     1.568     0.977  48.42   0
       530    418.7680    184.9275 307.7589782  +6.6099149     1301.817     2104.717     2085.742     78.03259     155.9413     311.8205      1.741     4.70     818.9114     54.95797     190.5289        13     1.375     0.643  53.90   0
       531    305.5386    182.4394 307.8061025  +6.6071404      17806.2     28446.17     30079.44     78.15635     155.9413     311.8205      1.762     4.27     825.3132     54.95797     2172.706        50     1.672     1.103  53.72   0
       532    285.8104    185.1431 307.8142069  +6.6053612     471.9186     902.2147     1633.305     77.53555     155.8793     311.5104      2.210     5.32     826.4491     54.95797     92.34052         5     1.189     0.671 -78.92   0
       533    740.8137    180.9864 307.6253155  +6.6223312     31885.66     49798.01     52168.09     78.03259      155.631     311.7275      1.646     4.32     817.6722     54.95797     4677.685        60     1.665     1.043  52.98   0
       534    313.0048    181.4373 307.8030346  +6.6078049     1901.862     3786.931     5029.775     77.28584     155.6931     311.6035      2.458     6.36     824.8792     54.95797      261.847        30     2.120     1.175 -83.36   0
       535    789.0255    181.2819 307.6052752  +6.6238213     1175.008     1765.363     2096.837     78.03259     155.6931     311.7895      1.585     4.10     817.0242     54.95797     170.5651        10     1.000     0.664  50.13   0
       536     57.6317    178.0962 307.9092374  +6.6005943     8619.554     14065.06     14618.83     78.27991     155.7552     311.8825      1.737     4.36     833.1609     54.95797     1132.908        38     1.636     1.046  56.99   0
       537     28.2640    180.7408 307.9213477  +6.5985131     537.2987     976.8944     1447.231     78.27991     155.8793     311.8205      1.852     4.52     834.1793     54.95797     88.50671         5     1.188     0.489  57.37   0
       538     91.4493    175.9708 307.8952607  +6.6026106     1496.467     2264.173     1943.747     77.78446     156.0032     311.6965      1.564     4.22     831.9966     54.95797     197.2175        14     1.315     0.676  55.11   0
       539    999.0304    175.0029 307.5182350  +6.6334266     1152.157     1807.517     2164.573     77.66011     155.7552     311.6035      1.580     4.24      814.378     54.95797     208.9874        13     1.318     0.678  51.59   0
       540    688.8575    182.5970 307.6468472  +6.6199280     951.5766     1447.854     1515.014     77.53555     155.8172     311.5414      1.648     5.16     818.1019     54.95797      135.201        10     1.350     0.565  56.81   0
       541   1000.1366    161.7674 307.5182195  +6.6389282     2136.247     3528.832     3884.892     77.90862     156.0032     311.7585      1.829     6.24     814.2361     54.95797     321.5552        27     1.888     0.907  59.55   0
       542    574.2284    165.3601 307.6950516  +6.6232066     865.7896     1391.412     1303.297     77.78447     155.6931     311.6655      1.734     4.39     816.7117     54.95797     145.5219        11     1.031     0.924  42.73   0
       543    583.1381    159.3146 307.6915537  +6.6260011     947.2354     1299.427     1073.445     78.27991     156.0652     311.7895      1.574     5.92     816.6542     54.95797      142.342        12     1.385     0.712  41.92   0
       544    591.5584    157.2261 307.6881257  +6.6271455     2014.362     3175.124     2866.686     77.78447     155.8793     311.6345      1.709     4.55     816.7011     54.95797     282.2358        20     1.561     0.771  56.36   0
       545    335.8524    157.6481 307.7943463  +6.6183943     1028.925     1505.135     1734.844     78.27991     155.8172     311.7895      1.570     5.13     823.2193     54.95797     140.8102        13     1.287     0.786  56.60   0
       546    276.3627    155.4510 307.8191353  +6.6173028     29303.05     47461.39     50429.57     77.90862     155.8793     311.7275      1.768     4.26     826.7668     54.95797     3757.818        61     1.702     1.157  51.76   0
       547    707.9828    152.1577 307.6399258  +6.6331358     7655.635     11984.75     12423.74     77.66011     155.7552     311.5414      1.625     4.18     816.9558     54.95797     1137.796        31     1.579     0.905  56.87   0
       548    185.3360    153.1457 307.8570297  +6.6151940      1018.34     1375.092     1021.508     78.15635     155.8793     311.7585      1.524     4.71     828.4887     54.95797     128.0348        14     1.213     0.848  48.52   0
       549     21.5298    154.0457 307.9250497  +6.6093076     4238.991     6853.704     7417.118     78.15634     155.8793     311.7895      1.768     4.37     834.4595     54.95797     558.0126        33     1.652     1.170  71.96   0
       550    118.6695    149.1235 307.8848615  +6.6146113     4760.648     7635.811     7494.618     78.27991     156.0652     311.7895      1.701     4.16     830.1781     54.95797     616.4816        30     1.582     0.990  49.46   0
       551    580.4606    147.2592 307.6930724  +6.6308889     794.3937     1297.021     1595.048     78.15635     155.9413     311.8205      2.016     4.56     816.0603     54.95797     129.4155        10     1.188     0.727  28.79   0
       552    457.5608    146.4905 307.7441587  +6.6270862     1346.282     2093.058      1994.09     78.15635     155.8793     311.8205      1.742     4.90     816.6026     54.95797     171.8708        16     1.368     0.791  44.01   0
       553    389.2727    145.1004 307.7725764  +6.6253686     3652.435     6335.763     6976.393     77.90862     156.0652     311.7895      1.865     4.64     819.7512     54.95797      481.522        29     1.773     0.879  59.08   0
       554    646.5538    145.9558 307.6656566  +6.6336405     807.9503     1153.851     981.8313     78.15634     155.9413     311.7275      1.410     4.73     816.7207     54.95797     124.1348         9     1.052     0.604  37.67   0
       555    353.8454    144.0914 307.7873290  +6.6245957     3254.831     5120.983     5154.984     78.15634     155.8793     311.9135      1.608     4.07     821.9949     54.95797     428.4036        26     1.530     0.908  56.74   0
       556    108.2187    143.8967 307.8893801  +6.6164174     1653.235     2656.545      2391.46     78.03259     155.8172     311.5724      1.662     4.86     830.4025     54.95797     210.1318        17     1.434     0.839  50.00   0
       557    669.9084    141.4023 307.6561067  +6.6363024     750.0685     1251.049     902.5208     77.66011      155.631     311.5414      1.750     4.36      816.567     54.95797     154.6574        10     1.200     0.736  30.18   0
       558   1000.5555    138.3205 307.5188323  +6.6486232     1521.537     2159.499     1909.146     78.15635     155.9413     311.7895      1.531     4.29     812.8015     54.95797     246.9458        15     1.487     0.652  53.61   0
       559    726.2789    138.1774 307.6327947  +6.6395202     590.2613     734.5872     249.1218     77.78446      155.631     311.7585      1.326     4.37     815.7985     54.95797     92.26068         6     1.184     0.459  43.33   0
       560    205.6674    132.9734 307.8492654  +6.6242063     5203.145     8332.903     8338.369     77.78446     155.8172     311.6965      1.689     4.21     827.7601     54.95797     672.3812        29     1.512     0.976  53.26   0
       561     88.4998    132.8549 307.8979459  +6.6203123     2140.712     3312.974     3756.931     77.90862     155.9413     312.0684      1.697     4.85     830.8812     54.95797      288.827        20     1.566     0.787  52.70   0
       562    667.5558    131.9008 307.6574040  +6.6401467     6008.979     9277.225     9187.437     78.15634     155.8172     312.0064      1.649     4.60     815.9068     54.95797     855.8286        30     1.593     0.882  52.23   0
       563    815.8528    131.6984 307.5957963  +6.6451903     1077.027     1668.577     1753.802     78.03259     155.9413     311.9755      1.579     3.92     814.0968     54.95797     169.9558        13     1.257     0.705  64.20   0
       564    843.7771    131.7931 307.5841910  +6.6460844     497.7179     642.9428     866.4525     77.66011     155.7552     311.6035      1.865     3.74     814.0632     54.95797     82.75317         5     0.945     0.425  44.63   0
       565    619.7380    129.1741 307.6773630  +6.6396715     9174.963     14689.47     16382.11     77.78446     155.8793     311.7275      1.693     4.25     815.5112     54.95797     1261.008        40     1.640     0.987  53.49   2
       566    623.2801    120.6807 307.6761775  +6.6432968     52225.12     81670.33     85873.18     78.40329      156.189     311.9445      1.681     4.20     815.0607     54.95797     7042.031        72     1.696     1.116  53.74   2
       567    254.3702    129.4205 307.8291520  +6.6273108      655.995     1082.313     1015.741     77.66011     155.7552     311.6965      1.791     4.47     827.0444     54.95797     93.77759         7     1.104     0.516  42.03   0
       568    558.1542    128.1398 307.7029843  +6.6380354     662.9393     1197.464     1377.069     78.03259     155.8793     311.8825      2.116     6.66     815.0293     54.95797       122.27        11     1.566     0.795  61.37   0
       569     18.4477    128.3195 307.9272018  +6.6198251     1019.879     1822.142     2019.526     78.15635     155.9413     311.8205      2.112     5.47     834.7199     54.95797      125.437        11     1.070     0.789  49.97   0
       570    346.8152    124.7521 307.7909029  +6.6323443     3341.184     6014.107     6290.341     77.53555     155.8793     311.5414      1.869     4.76     822.4669     54.95797     472.8922        36     1.577     1.310  71.27   0
       571    993.3671    123.7494 307.5223080  +6.6543997     833.2707      1377.73     1504.932     78.03259     156.0032     311.7275      1.781     5.61     812.0876     54.95797     89.54492        11     1.277     0.696  61.22   0
       572    528.6335    124.0503 307.7153872  +6.6387345     1647.723     2438.527     2783.466     78.03259     155.9413     311.7275      1.693     4.13     814.9413     54.95797     270.5524        16     1.333     0.757  53.51   0
       573    302.2356    114.3417 307.8097757  +6.6351450     3495.926     5687.848     6613.331     78.15635     155.9413     311.7585      1.798     4.31     825.5357     54.95797     439.8498        27     1.500     0.989  56.55   0
       574    702.0081    108.7959 307.6438676  +6.6508393     903.6387     1572.151     1269.343     77.53555      155.631     311.6345      1.534     5.51     814.0397     54.95797     156.5267         9     1.313     0.652  48.47   0
       575    673.7670    107.9991 307.6556281  +6.6502231      1283.33      2068.58     2189.398      77.4108     155.7552     311.5414      1.692     4.38     814.1656     54.95797     208.5533        17     1.398     0.855  51.97   0
       576      1.9313     98.0608 307.9350887  +6.6317611     446284.9     644236.1     688477.9     74.74284      132.557      244.241      1.555     8.57     835.9904     54.95797     63833.35       268     2.278     1.436 -84.01  28
       577    687.5814    104.5905 307.6500032  +6.6520928     3016.167     4749.019     4881.493     77.90862     155.6931     311.6655      1.703     4.33     813.8538     54.95797     426.6166        22     1.539     0.814  60.36   0
       578     59.9661    103.1133 307.9108073  +6.6316305     456.0938     668.2684     541.6908     78.15635     155.8172     311.7895      1.423     3.80     831.8417     54.95797     79.88519         5     1.251     0.331  63.96   0
       579    429.3920     95.5439 307.7575810  +6.6471757     3982.965     6253.101     6246.721     77.53555     155.8172     311.5104      1.678     4.33     816.2734     54.95797     568.4894        27     1.580     0.876  47.95   0
       580    901.9149     90.9768 307.5614066  +6.6648787     3722.354     5794.515     6166.758     78.15635     155.6931     311.6655      1.588     4.25     811.6976     54.95797     589.9069        25     1.503     0.851  53.02   0
       581    883.9806     91.9053 307.5688272  +6.6638964     2235.647     3361.149     3286.553     78.03259     155.7552     311.6035      1.571     4.73     811.7511     54.95797     352.9846        18     1.409     0.756  53.13   0
       582    581.8351     91.5682 307.6943780  +6.6539285     750.2087     1278.445     1337.431     77.78446     155.6931     311.5414      1.808     4.64     813.6385     54.95797     134.8322         8     1.182     0.517  54.86   0
       583    593.9585     89.6324 307.6894061  +6.6551340     1777.048      2887.47     2749.097     77.90862     155.9413     311.6655      1.763     4.48     813.5754     54.95797     244.0865        21     1.443     1.000  50.53   0
       584    613.9493     88.7842 307.6811288  +6.6561538     495.7926     781.4333     646.9271     77.66011     156.0032     311.5104      1.532     3.77     813.5154     54.95797     81.33423         5     0.831     0.490  53.71   0
       585    392.8462     87.4944 307.7730367  +6.6492725     1887.005     2800.609     3099.257     78.03259     155.8793     311.9135      1.602     4.80     818.6487     54.95797     239.2952        20     1.427     0.855  54.85   0
       586    239.7298     88.5620 307.8366159  +6.6436878     883.1617       1577.5     2386.765     78.03259     155.9413     311.8515      2.051     4.91     826.6635     54.95797     122.3043         9     0.942     0.766   2.27   0
       587    140.6935     84.2049 307.8779091  +6.6421552     3103.165     4959.933     5168.787     77.78446      155.631     311.5414      1.684     4.13      827.203     54.95797      431.606        24     1.513     0.897  59.33   0
       588     22.5637     82.1512 307.9270562  +6.6390249     12026.34     19698.45     21605.29     77.90862     155.8793     311.6965      1.760     4.18     833.1135     54.95797     1549.646        45     1.640     1.124  53.94   0
       589    549.3926     81.8310 307.7081856  +6.6568617      766.226     1087.274     1093.639     77.66011     155.7552     311.5724      1.619     6.13     813.3401     54.95797     102.7361        10     1.361     0.776  53.28   0
       590    757.3367     81.1849 307.6218081  +6.6640902     605.9902     1153.235     1487.126     77.66011     155.8172     311.6345      1.931     5.12     812.2382     54.95797     93.96002         8     1.435     0.517  41.90   0
       591    562.2278     81.9681 307.7028481  +6.6572353     602.7437     887.6671     624.7972     77.66011     155.6931     311.6035      1.599     3.43     813.3423     54.95797     88.97449         5     0.794     0.500  34.26   0
       592    288.8768     82.8853 307.8163888  +6.6476835     1342.277     2422.846     2968.892     78.27991     156.2508     311.8825      1.916     5.00     826.3156     54.95797      198.489        17     1.464     0.802  62.14   0
       593    824.2471     76.8713 307.5941518  +6.6681081     6075.831     9294.763     9903.834     78.15635     155.9413     311.7895      1.637     4.46     811.3065     54.95797     855.0241        32     1.575     0.929  56.22   0
       594    769.4280     77.1579 307.6169196  +6.6661572     3240.575     4933.203     5186.018     77.78446     155.8793     311.6655      1.620     4.34      811.912     54.95797     438.2442        22     1.461     0.865  56.35   0
       595    890.9158     77.8102 307.5664191  +6.6699477       693.04     963.7441     963.0321     77.78446     155.6931     311.6345      1.382     4.41     811.2174     54.95797     115.6135         8     1.127     0.490  53.36   0
       596    414.4187     77.3270 307.7644170  +6.6541945     1071.985     1809.559     1645.884     77.66011     155.8793     311.7275      1.788     6.08     816.8604     54.95797     126.7114        13     1.283     0.809  56.23   0
       597    756.1059     76.7030 307.6224702  +6.6658996     465.6716     987.7813     1640.174     78.15635     156.4981     311.6965      1.673     3.46     812.1476     54.95797     105.8978         5     1.020     0.339  40.75   0
       598    531.6661     75.3255 307.7157701  +6.6589535     1082.639     1590.852     2276.268     78.27991     155.9413     311.7585      1.657     5.27      813.259     54.95797     145.7951        16     1.308     0.872  55.23   0
       599     62.8048     73.8510 307.9106192  +6.6438074     3057.538     4927.796     4275.259     77.53555     155.7552     311.4173      1.689     4.33     830.1267     54.95797     421.1713        25     1.587     0.883  56.64   0
       600    651.6426     74.5582 307.6659467  +6.6632896     616.6479     891.7415     1280.631     77.90862     155.9413     311.6655      1.846     5.96     812.9849     54.95797     103.1736         7     1.462     0.684  37.87   0
       601    424.3367     73.7096 307.7604184  +6.6560209     954.3981     1521.688     1386.423     78.15635     156.0652     311.8515      1.887     5.97     816.2947     54.95797     127.0225        13     1.346     0.746  58.59   0
       602     47.1404     74.5867 307.9171021  +6.6429760     921.9141     1394.952     1225.862     77.53555     155.8793     311.5104      1.622     4.86     831.1071     54.95797     129.5176        11     1.172     0.653  53.58   0
       603    586.6296     70.7245 307.6930883  +6.6626951     1301.852     1889.574     1969.346     78.03259     156.0032     311.7895      1.684     4.66     813.0286     54.95797     184.6231        14     1.363     0.691  58.29   0
       604      5.1426     69.4038 307.9347259  +6.6437006     2571.321     3939.908     4712.907     77.53555     155.8172     286.7606      1.747     4.22      832.907     54.95797     351.3882        21     1.474     0.821  58.33  16
       605    763.8596     64.5261 307.6196582  +6.6711864      1951.71     2734.282     3381.083     78.27991     155.9413     311.7895      1.564     3.81     811.6707     54.95797     273.1257        18     1.399     0.788  43.74   0
       606    404.8484     64.7654 307.7688174  +6.6590596     926.7029     1413.156      1384.57     77.90862     155.9413     311.7275      1.659     4.99     817.6268     54.95797     150.4846        11     1.250     0.640  50.24   0
       607    166.1680     65.1568 307.8679701  +6.6508767     472.5114      838.209     1062.374     77.66011     155.8793     311.6345      1.653     3.79     826.3515     54.95797     74.94006         5     1.317     0.314  58.63   0
       608     77.6483     64.5846 307.9047662  +6.6481331      799.725     1273.966     936.3546     77.53555     155.8793     311.5414      1.728     5.67     828.8341     54.95797     113.0975        11     1.449     0.624  63.89   0
       609    655.7517     64.3251 307.6645840  +6.6676522       508.21     1014.423     1220.854     78.03259     156.0032     311.8205      1.360     3.44     812.7172     54.95797     82.11346         5     1.219     0.280  55.17   0
       610    101.8524     63.3516 307.8947520  +6.6494572     846.2661     1153.732     1404.142     78.27991     155.8172     311.7895      1.712     5.21     827.6945     54.95797     143.7695        10     1.445     0.531  49.80   0
       611     90.6026     58.2758 307.8995978  +6.6511740     8942.054     14413.46     14999.82     77.66011     155.4446     311.6965      1.750     4.22     827.9059     54.95797     1108.339        41     1.665     1.022  54.70   0
       612    419.6312     58.0133 307.7629032  +6.6623435     2532.437     3927.122     3936.223     77.66011     155.6931     311.7275      1.650     3.87     816.4355     54.95797      363.371        22     1.445     0.871  46.90   0
       613    257.4122     52.1811 307.8304995  +6.6593027     1390.391     2394.674     3653.618     77.90862     155.6931     311.6965      2.427     5.66     826.1458     54.95797     182.5458        18     1.442     0.905  50.18   0
       614    633.4235     50.3704 307.6743314  +6.6726662     18064.72     28023.27     29205.76     77.66011     155.8172     311.6345      1.690     4.43     812.4347     54.95797     2435.862        44     1.638     0.978  54.58   0
       615    662.7542     51.3898 307.6621101  +6.6732273     563.1467     764.7831     386.6568     77.66011     155.8172     311.4794      1.360     3.44     812.4078     54.95797     79.80969         5     1.176     0.291  53.90   0
       616    533.2609     46.4271 307.7160818  +6.6709384     4834.595     7617.763     8329.759     77.78447     156.0032     311.6655      1.692     4.41     812.2339     54.95797     607.3986        29     1.506     0.979  52.56   0
       617    251.2913     46.5458 307.8332331  +6.6614236     1883.902     3094.306     4958.266     78.03259     155.7552     311.9135      2.136     4.54     826.0993     54.95797     231.7766        20     1.486     0.859  53.68   1
       618    259.3323     42.4737 307.8300299  +6.6633751     8861.787     14248.01     15885.23     78.27991     156.0652     311.7585      1.771     4.34     826.0323     54.95797     1120.479        39     1.691     1.003  55.80   0
       619      1.5540     45.0581 307.9370420  +6.6536310     771.3229     1060.223     969.7582     70.62046     127.1229     238.1501      1.424     4.88     830.5499     54.95797      136.839         9     1.238     0.544  72.46  24
       620    619.7742     40.8683 307.6803228  +6.6761323      3027.31     5541.511     6646.949     77.78446     155.8172     311.6965      2.137     6.92      812.219     54.95797     446.3286        33     2.298     0.809  64.82   0
       621    438.7613     42.0010 307.7554953  +6.6695965     21685.01     35373.61     37274.16     77.28584     155.7552     311.5104      1.714     4.39     815.0963     54.95797     2984.495        54     1.708     1.065  53.47   0
       622     24.6309     42.0042 307.9275579  +6.6556696     2160.236     3371.127     3803.466     77.66011     155.8172     311.5724      1.692     4.01     829.4703     54.95797     315.4482        21     1.504     0.840  58.77   0
       623    916.6826     41.9066 307.5569189  +6.6856322     1867.189      2710.78      2405.39     77.90862      156.189     311.9135      1.564     4.24     809.6354     54.95797     279.4913        18     1.417     0.760  50.02   0
       624    319.2768     42.4321 307.8051254  +6.6654068     1017.561     1510.724     1954.439     78.03259     155.9413     311.7275      1.630     4.13     824.1522     54.95797     174.1194        11     1.210     0.647  40.96   0
       625    551.6047     41.4003 307.7086295  +6.6736287     643.1404     921.1812     617.1071     77.53555     155.5068     311.5414      1.571     4.05     812.0552     54.95797     112.1508         7     1.084     0.540  46.39   0
       626    247.2366     39.1095 307.8351692  +6.6643575     2836.252     4706.713     5490.121     78.27991     155.8793     311.8205      1.799     4.72     826.0074     54.95797     396.8719        24     1.619     0.879  56.25   0
       627    300.3457     37.0547 307.8131727  +6.6669909     1042.237     1554.611     1858.511     78.40328     155.9413     311.7895      1.603     5.92     825.2925     54.95797     135.5991        13     1.522     0.648  54.94   0
       628    937.1970     32.1508 307.5487224  +6.6903450     793.6956     1127.054     982.3912     77.53555      155.631     311.3863      1.537     4.49     808.6715     54.95797     124.6672         8     1.198     0.479  45.99   0
       629    688.6676     31.5410 307.6520112  +6.6822899     1749.588     2839.436     2426.927     78.27991     155.8793     311.7895      1.694     4.49     811.8223     54.95797     237.4066        19     1.469     0.836  59.65   0
       630     93.3458     31.5707 307.8993625  +6.6622919       528.88     929.9326     1006.595     77.90862     156.0032     311.7275      1.801     3.75     826.8289     54.95797     84.39587         5     1.368     0.295  45.30   0
       631    199.8072     26.7910 307.8552919  +6.6678483     812.9195     1371.003     1156.795     77.53555     155.7552     311.6345      1.601     5.53     825.8499     54.95797     128.1737        10     1.265     0.682  66.09   0
       632    238.9994   1020.5745 307.8054279  +6.2588578     1209.396     2081.914     1828.645     77.78446      155.631     278.5887      1.874     5.06     848.2209     54.95797     173.5018        17     1.550     0.829  48.49  16
       633    922.5056     22.2594 307.5551593  +6.6939386     4004.586     6097.637     6756.676     78.03259     155.9413     311.8825      1.645     4.64     808.7291     54.95797     552.7105        25     1.502     0.855  56.06   0
       634    714.5192   1018.9807 307.6080596  +6.2754518     2582.965     4515.387     5222.055     77.78446      155.631     296.0802      1.929     4.69     844.9753     54.95797     341.1439        27     1.639     0.961  54.08  16
       635    723.2418     20.6352 307.6380122  +6.6879496     1875.775     2953.482     2902.468     77.90862     155.9413     311.6345      1.618     4.29      811.199     54.95797     328.4933        19     1.536     0.756  50.60   0
       636    459.3960     20.7657 307.7476383  +6.6790563     1685.319     2839.341     3494.403      77.4108     155.8172     311.5724      1.791     4.60     813.0558     54.95797       222.84        19     1.549     0.918  64.16   0
       637    437.4359   1019.8760 307.7230680  +6.2658053      901.851     1510.514     1402.084     78.03259     156.0032      286.828      1.648     5.72     848.8961     54.95797     134.3088        13     1.366     0.812  31.51  16
       638    782.1359     17.7324 307.6136383  +6.6911178     584.9001     718.8658     587.9951     78.15635     155.9413     311.8515      1.425     3.47      809.974     54.95797     109.0718         5     1.017     0.343  41.80   0
       639    729.8526   1017.7176 307.6017359  +6.2764860     1053.274     1721.183      2282.58     78.15635     155.9413     306.3482      1.908     6.06     844.3621     54.95797     142.2771        14     1.355     0.788  42.36  16
       640    361.0705   1016.3723 307.7548905  +6.2646907     1674.543     2878.398     3005.367     77.90862     155.8793     311.7275      1.842     5.63     848.4719     54.95797     211.9437        22     1.601     0.928  50.76  16
       641    209.3285   1014.8415 307.8179396  +6.2602280     470.1698      866.305     721.4202     78.03259     155.9413     311.8515      1.330     3.49     847.8013     54.95797     94.20984         5     1.418     0.248  73.40  16
       642    708.9438   1021.4146 307.6102926  +6.2742605     920.5817     1677.061      2330.18     77.53555     150.8374     267.8704      2.153     6.42     845.2505     54.95797     135.2479        14     1.411     0.849  49.35  24
       643    747.9338   1005.9382 307.5946245  +6.2819540     7264.757     12393.96     13464.43     78.15635     155.8793     311.7895      1.804     4.36       843.94     54.95797     876.9903        41     1.694     1.125  53.48   0
       644    543.3939   1006.3274 307.6795333  +6.2749498     4039.133      7043.86     7256.621     77.78447     155.5068     311.6965      1.880     4.20     849.0334     54.95797      503.522        38     1.696     1.152  59.33   3
       645    540.5949    998.6985 307.6809522  +6.2780059     7714.896     12667.64     13261.07     77.90862      155.631     311.4483      1.785     4.73     848.7465     54.95797      972.625        36     1.640     1.047  52.52   3
       646    513.7056   1007.7874 307.6918101  +6.2733526     963.5139     1441.473     1522.009     77.90862     155.6931     311.6345      1.620     5.21     849.0591     54.95797     132.4521        11     1.418     0.541  48.32   0
       647    293.4768   1005.2459 307.7833284  +6.2670161     13670.48     23005.31     24451.02     78.03259     156.0032     311.7895      1.816     4.69      848.268     54.95797     1693.649        50     1.723     1.136  54.84   2
       648    297.9586   1002.5663 307.7815582  +6.2682729     899.3096      1722.56     2560.712     77.90862     155.9413     311.6345      1.864     5.76     848.2338     54.95797     156.4621        12     1.602     0.583  62.60   3
       649    417.8966   1005.7080 307.7316576  +6.2709999     849.4405     1583.344     1736.688     78.15635     156.4363     311.7585      1.979     6.45      848.365     54.95797     118.7058        13     1.598     0.731  58.72   0
       650    809.1252   1004.8872 307.5692536  +6.2844327     1024.114     1767.738     2375.938     78.15634     156.2508     311.8515      1.993     6.44     843.4759     54.95797     141.2685        13     1.664     0.700  41.63   0
       651    264.5616   1002.4084 307.7954288  +6.2672167     920.1579     1596.522     1849.525      77.4108     155.6931     311.5104      1.820     4.88      848.015     54.95797     138.8748        12     1.272     0.762  55.66   0
       652    909.3234    999.4001 307.5278359  +6.2900436     7477.468     13332.16     14169.65      77.4108     155.3202     311.5104      1.893     4.63     842.7516     54.95797     938.1665        41     1.763     1.109  58.91   0
       653    882.9003    995.5521 307.5389359  +6.2907506     11060.15     19363.98     20489.46     78.15634     155.8172     312.0064      1.874     4.50     842.6114     54.95797     1380.168        53     1.757     1.289  51.13   0
