#   1 NUMBER                 Running object number                                     
#   2 X_IMAGE                Object position along x                                    [pixel]
#   3 Y_IMAGE                Object position along y                                    [pixel]
#   4 ALPHA_J2000            Right ascension of barycenter (J2000)                      [deg]
#   5 DELTA_J2000            Declination of barycenter (J2000)                          [deg]
#   6 FLUX_APER              Flux vector within fixed circular aperture(s)              [count]
#   9 FLUXERR_APER           RMS error vector for aperture flux(es)                     [count]
#  12 FLUX_RADIUS            Fraction-of-light radii                                    [pixel]
#  13 FWHM_IMAGE             FWHM assuming a gaussian core                              [pixel]
#  14 BACKGROUND             Background at centroid position                            [count]
#  15 THRESHOLD              Detection threshold above background                       [count]
#  16 FLUX_MAX               Peak flux above background                                 [count]
#  17 ISOAREA_IMAGE          Isophotal area above Analysis threshold                    [pixel**2]
#  18 A_IMAGE                Profile RMS along major axis                               [pixel]
#  19 B_IMAGE                Profile RMS along minor axis                               [pixel]
#  20 THETA_IMAGE            Position angle (CCW/x)                                     [deg]
#  21 FLAGS                  Extraction flags                                          
         1     15.0606     84.7569 307.9363334  +6.6320493     735813.1      1990328      2420820     86.34818      172.286     344.6062      2.656     9.81     1065.984      60.7183     62196.98       434     2.688     1.797 -29.63  20
         2    192.1220     11.8009 307.8651998  +6.6681292     6424.506     14479.27     17167.17     85.52448     171.6686     344.2637      2.401     6.62     1056.664      60.7183     710.2799        53     2.257     1.310 -26.31  16
         3    937.5870      9.3834 307.5553909  +6.6940879     2851.895     6016.313     5752.078     86.07449     171.9433     344.4007      2.099     8.26     1021.947      60.7183     402.5023        31     2.028     0.941 -24.13  16
         4    535.9692      9.8439 307.7223323  +6.6804744     1704.042      3806.18     4494.208     85.93732      172.286     344.3322      2.373     6.99     1031.525      60.7183     239.8777        31     2.073     1.088 -21.20  16
         5    738.4043      8.2563 307.6382322  +6.6879030     1363.948     2780.534     3376.162     85.66232     172.0804     343.6463      2.193     8.20     1024.088      60.7183     205.8326        25     1.982     0.948 -27.65  16
         6    474.6931      8.6545 307.7478447  +6.6789126     1083.368     2365.409     2520.931     86.21144     172.2175     344.6747      2.293     8.29     1034.029      60.7183      119.391        21     2.276     0.844 -27.20  16
         7   1003.2742      5.5754 307.5282108  +6.6978504      1314.12     2483.258     2585.234     85.93732     172.0804     322.0612      2.131     4.72     1013.204      60.7183     178.0648        14     1.258     0.790 -49.73  18
         8    721.6666      2.4692 307.6453844  +6.6897331     4756.824     9277.136     9975.281     86.34818     154.1432     278.8286      2.083     7.13     1024.549      60.7183      561.614        38     2.105     1.064 -15.41  24
         9    641.4872      2.0996 307.6787283  +6.6872043     2229.606     4020.496     4016.076     84.13375     149.2436      272.711      1.937     7.10     1028.886      60.7183      293.588        25     1.894     0.907 -12.82  24
        10    255.6607   1007.3945 307.8052481  +6.2591734     956.0873      1659.26     1688.376     85.66232      172.149     344.2294      1.861     5.44     1086.131      60.7183     135.9386        10     1.275     0.655 -54.88   2
        11    905.7868   1022.1972 307.5347101  +6.2748079     1207.652     1956.776     2061.316     85.93732      158.073     284.0682      1.834     3.73     1070.639      60.7183     196.8861        10     1.183     0.575 -30.98  26
        12    808.6501   1023.7407 307.5750070  +6.2709301     1406.967     1608.184     1884.665     74.14597     135.7485     257.9949      1.056     2.89     1071.794      60.7183     372.9644         9     1.108     0.428  -5.37  24
        13    597.5128   1021.7590 307.6627739  +6.2646943      53713.6     106632.2     115577.9     86.34818     163.4304     291.1644      2.101     7.23     1080.278      60.7183     7570.787        71     2.190     1.070 -23.91  24
        14    967.7037   1008.6769 307.5094428  +6.2824548     3720.201     4198.066     4356.353     85.93732     172.4913     344.5377      1.141     2.73      1068.29      60.7183     673.3549        13     1.045     0.674 -44.67   3
        15    971.0083   1007.4982 307.5081095  +6.2830516     5284.816     7597.076     7558.262     86.07449     171.8746     344.2294      1.502     3.28     1068.055      60.7183     773.2124        20     1.325     0.795 -55.23   3
        16    727.2196   1006.8383 307.6093974  +6.2751907      1862.29     2983.695     4579.054     85.93732     172.0804     344.1609      1.974     4.84     1075.251      60.7183     296.3302        17     1.542     0.794 -37.43   3
        17    730.9688   1005.1288 307.6078974  +6.2760218     2181.869     3268.842     3539.233     86.21144      172.286      344.435      1.540     3.44     1075.098      60.7183     328.6599        14     1.309     0.716 -44.14   3
        18    745.6857   1005.2542 307.6017801  +6.2764616     715.8405     1134.439     742.2256     86.34818     172.2175     344.6404      1.682     5.52     1074.492      60.7183     128.5862         9     1.712     0.501 -21.15   0
        19    376.5848   1003.5912 307.7551495  +6.2647992     1362.179     2708.173     3022.209     86.07449     172.0119     344.3322      1.999     7.04     1082.807      60.7183     191.1758        18     1.762     0.788 -22.69   0
        20    558.7538    993.6103 307.6798177  +6.2750210     3048.823     6173.683     6830.893     85.79993      172.149     344.1266      2.115     6.86     1079.523      60.7183     416.4403        33     2.051     0.974 -26.00   0
        21    529.6506    994.7351 307.6918687  +6.2735826     754.2378     1194.332     636.9188     86.21144     172.2175     344.5035      1.767     5.53     1079.865      60.7183     105.1038         9     1.532     0.562 -29.62   0
        22    763.3160    992.8907 307.5948709  +6.2821555     5841.173     11688.25     12389.71     86.07449      172.628     344.6062      2.052     6.86     1073.193      60.7183     908.8348        36     2.074     0.901 -25.03   0
        23    309.1150    992.1233 307.7835595  +6.2672723     10633.75      22509.9     25609.71      86.4847      172.628      344.572      2.287     7.37     1085.144      60.7183     1535.989        58     2.428     1.101 -28.51   0
        24    824.5901    992.4535 307.5694331  +6.2843815     792.3265     1638.052     1994.285     85.66232     172.2175     344.1609      2.440     6.23     1070.689      60.7183     137.6066        11     1.800     0.606 -26.08   0
        25    433.2406    992.7435 307.7319814  +6.2711768     682.5089     1238.795     1230.182     86.34818     172.3544     344.5035      1.988     6.71     1080.906      60.7183     117.2739        11     1.881     0.672 -19.71   0
        26    278.0898    991.0000 307.7964839  +6.2666954     537.2595     907.5617     1345.034     85.52448     171.7373     344.0923      2.180     4.94     1085.809      60.7183     105.6992         5     0.948     0.729 -73.18   2
        27    281.3046    989.3312 307.7952047  +6.2674923     652.0657     861.2887     1058.344     86.21144     172.3544     344.5035      1.307     3.34     1085.764      60.7183     113.6898         5     0.752     0.471 -26.96   3
        28    922.3630    987.2916 307.5289919  +6.2897742     4680.154     5872.037     6121.802      86.4847     172.2175     344.5035      1.257     3.01     1069.143      60.7183     827.0259        17     1.186     0.786 -50.95   3
        29    925.5347    985.9852 307.5277181  +6.2904194     6929.842     10046.73     10470.33     85.79993      172.149     344.4007      1.544     3.52     1069.058      60.7183     1073.528        23     1.349     0.866 -46.33   3
        30    556.0038    985.7081 307.6812252  +6.2781920     5947.472     12097.85     13279.09     85.93732     171.9433     344.2294      2.112     6.83     1079.322      60.7183     879.6562        43     2.159     1.004 -24.40   0
        31    898.2441    982.5652 307.5391688  +6.2909217     9224.063     18783.24     20283.67     86.07449     172.2175     344.3322      2.098     8.42     1069.226      60.7183     1483.203        45     2.195     0.943 -22.76   0
        32    611.2015    983.0138 307.6583877  +6.2811509     1014.192     2130.677     1867.798     85.93732     171.9433     344.2294      2.131     6.90     1078.542      60.7183     161.5723        15     1.893     0.706 -30.03   0
        33   1019.8958    981.9791 307.4886547  +6.2952180     3652.554     7505.879     8086.336     86.21144     172.0804     316.4443      2.102     7.54     1064.643      60.7183     545.7994        32     2.052     0.936 -23.00  16
        34    540.3196    982.3275 307.6878536  +6.2790631     2515.283     3548.906     3572.536       86.621     172.5597     344.5035      1.433     3.97     1079.428      60.7183      369.006        13     1.219     0.651 -42.98   3
        35    543.3320    981.2996 307.6866368  +6.2795883     2943.169     4407.477     5000.945     86.34818     172.4229      344.435      1.637     3.51     1079.348      60.7183     461.5844        18     1.344     0.837 -42.18   3
        36    651.9066    980.9807 307.6415477  +6.2833513     1070.123     2313.546     2301.411     86.21144     172.0119     344.2979      2.188     6.44     1076.651      60.7183      181.448        16     1.915     0.608 -23.24   0
        37    493.4212    978.7651 307.7074536  +6.2789643     972.8651     1417.111     1269.129     85.79993     172.0804     344.1951      1.406     4.55     1080.269      60.7183     155.9684         8     1.130     0.527 -60.39   3
        38    497.0073    977.3167 307.7060127  +6.2796824     1334.152     1959.544     1403.273     85.93732     171.9433     344.2979      1.523     4.53     1080.178      60.7183      205.109        12     1.248     0.647 -41.68   3
        39     78.5426    980.1959 307.8797303  +6.2644552     493.8686     796.5409     654.8369     85.66232      172.149     344.1266      1.541     4.97     1086.351      60.7183     84.29456         5     1.139     0.613 -26.77   0
        40    929.9606    970.1040 307.5264106  +6.2971248     32868.39     66291.16     72377.25     86.34818      172.149     344.6062      2.118     7.22     1068.205      60.7183      5234.58        69     2.172     1.057 -25.23   0
        41      1.0000    970.9175 307.9122503  +6.2656787     1058.369      1374.98      1904.88     69.54831     130.7912     252.8216      1.125     4.09     1086.915      60.7183     275.6656         5     1.088     0.438 -76.31  27
        42      4.0287    969.5218 307.9110395  +6.2663569      2037.79     3144.071     3170.491     86.21144     170.2886     302.6867      1.644     4.03     1086.893      60.7183     303.8662        14     1.248     0.755 -46.65  18
        43    238.2301    968.2855 307.8138046  +6.2747370     1281.343     2102.545     2768.453     86.34818     172.0804     344.3322      2.000     4.95     1085.932      60.7183     198.3843        14     1.323     0.872 -14.51   2
        44    636.3932    966.3810 307.6484813  +6.2888613     605.4255     1167.122     864.6432     85.93732     171.9433     344.2637      1.858     5.85     1076.848      60.7183      125.399         9     1.771     0.543 -28.32   0
        45    825.6444    964.7095 307.5699239  +6.2958729     1113.219     1250.784     1495.338     86.34818     172.2175     344.6062      1.130     3.58     1070.064      60.7183     201.2174         7     0.826     0.607 -15.40   3
        46    829.1501    963.5768 307.5685055  +6.2964577     1759.454     2461.749     2703.064     85.93732     172.3544     344.3665      1.560     4.15     1069.977      60.7183     239.8552        14     1.271     0.696 -44.57   3
        47    776.2056    961.6630 307.5905626  +6.2954807     4601.989     9234.281     10615.07     85.66232     172.0119     344.1951      2.088     7.70     1071.625      60.7183     705.3804        36     2.235     0.850 -25.99   0
        48    245.6096    960.9907 307.8109850  +6.2779968     1118.181     2016.412     2448.796     85.93732     172.0804     344.3665      1.920     6.61     1085.799      60.7183     152.0929        15     1.496     0.819 -25.85   0
        49    563.6993    961.0003 307.6788579  +6.2886518      678.123     945.7857     1058.571     85.79993     171.8746     344.0237      1.473     3.59     1078.476      60.7183     119.4651         5     0.815     0.503 -32.66   0
        50    209.7319    960.6213 307.8258998  +6.2769450     620.8759     1353.869     1339.553     85.93732     172.2175     344.4007      2.140     4.97     1085.981      60.7183     97.38452         8     1.362     0.513 -32.22   0
        51     70.6532    958.9580 307.8837234  +6.2729593      1951.77     3987.426     4144.715     86.34818     172.3544     344.5035      2.061     6.85     1086.387      60.7183     287.6022        25     1.993     0.888 -22.56   0
        52    964.2762    956.8392 307.5125993  +6.3037460     5107.258     10503.74     11380.29     86.21144      172.286     344.5377      2.114     8.00     1066.057      60.7183     761.7766        36     2.184     0.867 -25.41   0
        53    935.7308    949.5677 307.5247004  +6.3057972     1213.266     1434.066     2003.775     86.21144      172.286     344.5035      1.215     2.68     1066.968      60.7183      268.199         9     0.964     0.579 -49.55   3
        54    939.1061    948.2808 307.5233413  +6.3064411      1659.83     2457.667     2345.349     86.07449     172.5597     344.5377      1.525     4.48      1066.74      60.7183     254.3177        10     1.178     0.606 -42.56   3
        55    797.9561    944.9638 307.5820867  +6.3031024     1096.174     2205.723     2869.225     86.07449     172.2175     344.3322      2.386     7.11     1070.253      60.7183     156.9125        15     1.829     0.775 -20.22   0
        56    658.9283    944.4868 307.6398546  +6.2986553     3222.926     6400.107     6817.069      86.4847     172.5597     344.4692      2.087     7.77     1075.332      60.7183     527.3116        28     2.014     0.838 -28.10   0
        57    270.9999    944.8088 307.8009834  +6.2855305     3144.019     6798.974     7860.871     85.66232     171.9433     344.2637      2.320     6.59     1085.409      60.7183     418.2178        34     2.121     0.988 -23.48   0
        58    482.3438    942.6115 307.7132693  +6.2935219      687.039     1209.305      995.152     85.66232     172.2175     344.1266      1.675     4.89     1080.458      60.7183     117.6555         7     1.651     0.410 -56.48   2
        59     40.9009    941.8857 307.8966570  +6.2790082      1416.66     2663.211     3434.868     86.34818     172.7646     344.5377      2.437     4.11     1086.614      60.7183     236.9434        16     1.323     0.842 -47.19   2
        60    891.7346    940.3876 307.5432837  +6.3081210     794.1799     959.3828     994.9301     85.79993     172.0804     344.3665      1.205     3.61     1067.902      60.7183     151.8551         5     0.743     0.713 -62.19   0
        61    583.5690    937.0390 307.6714084  +6.2992107     1139.386     2056.453     1852.689     85.93732     172.0119     344.2979      1.980     6.72     1077.285      60.7183     166.3483        16     1.799     0.704 -20.92   0
        62    307.3423    938.5316 307.7860989  +6.2893417     614.0837     1347.915     1803.304      86.4847     172.2175     344.4007      2.240     6.82     1084.772      60.7183     107.8341        11     2.034     0.642  -5.41   0
        63   1015.9463    937.0512 307.4917964  +6.3136386      637.894     1135.473     1181.995      86.4847     172.2175     344.5035      1.390     3.22     1062.865      60.7183     129.5996         5     0.971     0.354 -33.82   0
        64    623.6951    933.1168 307.6548717  +6.3021724     697.0506     1340.055     930.2715     86.21144     172.6964     344.6062      1.878     4.24     1076.089      60.7183     150.3335         7     1.334     0.385 -53.67   2
        65     72.8064    934.1638 307.8836653  +6.2832694     529.7241     798.0706      1309.69     85.38643     172.0119     344.2294      1.636     3.80     1086.345      60.7183     83.00378         5     0.953     0.435 -44.24   0
        66    303.1619    931.2109 307.7880817  +6.2922243      1062.72     2117.139     2650.763     85.66232     172.0804     344.1609      2.168     7.17     1084.789      60.7183      149.312        14     1.528     0.942 -23.96   0
        67    769.5120    927.1779 307.5944981  +6.3094971     677.6803     1333.781     1582.335     86.34818     172.0804     344.3665      2.035     5.89     1070.792      60.7183     103.1412        11     1.672     0.583 -27.24   0
        68    904.7136    924.6434 307.5384188  +6.3150551     3418.722     4301.091     4203.286     86.34818      172.149     344.4692      1.201     2.85     1066.932      60.7183      635.785        15     1.087     0.696 -48.01   3
        69    908.0316    923.4766 307.5370795  +6.3156476     5350.551     8102.305     8348.989     86.21144     172.3544      344.435      1.550     3.92     1066.745      60.7183     817.7681        24     1.453     0.836 -44.17   3
        70    442.6707    921.0281 307.7304742  +6.3011054     1421.502      3049.12     3463.006     86.07449      172.286     344.4007      2.183     7.04     1080.653      60.7183     209.0103        24     2.185     0.804 -21.59   0
        71    344.5864    919.3442 307.7712740  +6.2985135     6455.147      13381.6      14888.9     85.66232     172.2175     344.1951      2.162     6.66     1083.913      60.7183     828.0579        46     2.197     1.059 -26.26   0
        72    264.6773    918.3515 307.8045003  +6.2962430     4943.919     10381.01     11470.88     86.21144     172.3544     344.4692      2.200     6.40     1085.297      60.7183      637.592        42     2.084     1.095 -27.26   0
        73    593.6751    912.3395 307.6680391  +6.3097478     855.4771     1419.563     1452.738       86.621      172.286     344.4692      1.862     5.20     1076.279      60.7183     107.8059         9     1.240     0.616 -54.44   2
        74    924.4506    908.2280 307.5307688  +6.3224916     736.9163     1181.348     1355.637     85.93732     172.4229     344.3665      2.463     5.28      1065.54      60.7183     130.1769        10     1.420     0.555 -42.35   2
        75    758.9746    901.8256 307.5997247  +6.3196139     1055.175     2185.837     1958.708     85.79993     172.0804     344.3322      1.993     6.56     1070.098      60.7183     172.7058        16     1.922     0.720 -25.68   0
        76    623.3948    898.4557 307.6561592  +6.3164747     712.2456      1316.81     1220.812     85.79993     172.0804     344.1609      1.922     6.30     1074.948      60.7183     119.3397        11     1.707     0.653 -23.25   0
        77     10.3899    898.6184 307.9107901  +6.2958472      712.837     1207.545     1111.098     85.93732     171.9433     344.3322      2.064     6.09     1086.211      60.7183     134.9142        10     1.638     0.636 -18.27  16
        78    990.4725    897.8069 307.5036902  +6.3289953     965.5614     1933.425     2303.309     85.93732      171.806     344.4007      2.047     6.48     1062.953      60.7183     165.0752        15     1.969     0.599 -21.63   0
        79    545.5439    897.3193 307.6885371  +6.3143396     922.6627     1464.038     1576.462      86.4847      172.286     344.5035      2.136     5.62     1077.438      60.7183     116.2402        12     1.113     0.801 -33.15   0
        80    677.3394    895.4106 307.6338521  +6.3195355     1718.512     3447.944     3551.419     85.66232      172.149     344.1609      2.052     7.03     1073.042      60.7183     244.8398        25     2.048     0.833 -23.34   0
        81     72.3585    892.3080 307.8852630  +6.3005369     1626.635      2591.36     2728.753     86.34818      172.286      344.572      1.718     4.15     1085.771      60.7183     229.6799        11     1.096     0.667 -35.84   3
        82     75.5921    891.2365 307.8839560  +6.3010880     2182.089     3510.992     4097.967     85.52449     172.0804     344.1951      1.796     4.49     1085.738      60.7183     268.1157        16     1.333     0.874 -81.83   3
        83    838.4335    891.5884 307.5670588  +6.3264936     503.3149      1119.06     1087.626     85.79993     172.0119     344.2979      1.796     4.63     1067.679      60.7183     81.70764         7     1.590     0.383 -30.53   0
        84    218.1473    890.4527 307.8247675  +6.3062010     1644.902     3036.268     3605.113       86.621      172.149     344.5377      2.070     6.52     1085.564      60.7183     183.8652        23     1.749     0.938 -26.15   0
        85     91.4553    890.9548 307.8773762  +6.3017376     1324.142     2802.311     3640.688     86.34818      172.286     344.4692      2.301     8.37      1085.67      60.7183     159.9583        25     2.109     0.929 -16.47   0
        86    357.0462    886.6605 307.7671976  +6.3124269     616.0576     1291.979     1643.548     86.21144     172.2175     344.5377      2.747     5.93     1083.558      60.7183     99.42322         8     1.591     0.622 -12.68   0
        87    672.3001    884.3677 307.6363157  +6.3239270     4902.062     10099.31     10725.11     86.34818      172.149     344.6404      2.136     6.89     1072.826      60.7183     723.5348        39     2.173     0.963 -25.95   0
        88    810.0859    884.9780 307.5790564  +6.3282772     693.9612     1151.065     1324.933     86.34818     172.0804     344.3322      1.825     4.52     1067.952      60.7183     100.0231         7     1.112     0.523 -50.56   0
        89     33.4084    882.3444 307.9017780  +6.3033412     879.9524     1636.812     1679.865     85.66232      172.149     344.1609      1.997     3.33     1085.754      60.7183     155.1339         9     0.921     0.822 -12.87   2
        90    911.0834    880.3219 307.5372552  +6.3335692     2060.376     3909.233     4597.496      86.4847      172.628      344.572      2.286     4.19     1064.878      60.7183     344.7944        17     1.403     0.781 -35.82   2
        91     45.8076    880.8759 307.8966772  +6.3043645     766.0609     1402.072      1328.47     85.93732     171.7373     344.2637      2.043     6.53     1085.689      60.7183     146.8799         9     1.838     0.652 -32.43   0
        92    355.2610    877.6360 307.7682427  +6.3160934     10844.33     23246.29     26872.77     86.34818      172.286      344.435      2.263     6.53      1083.65      60.7183     1281.148        54     2.239     1.139 -24.73   0
        93     90.4995    878.7860 307.8781836  +6.3067301     864.1321     1975.549     2093.047     86.21144     172.0119     344.1609      2.028     7.74      1085.51      60.7183     118.4225        19     1.881     0.890 -15.19   0
        94    227.4149    876.6974 307.8213811  +6.3121918     879.5589     1454.911     1423.036     86.21144     172.0119     344.2294      1.846     5.79     1085.505      60.7183     118.2219        11     1.232     0.766 -37.72   0
        95    119.4140    867.9581 307.8665381  +6.3121728     1253.903     2405.342     3139.662     85.79993     172.0804     344.1951      2.234     6.81     1085.339      60.7183     193.7144        17     1.625     0.810 -28.70   0
        96    900.2562    862.5649 307.5423472  +6.3405406     1446.228     2762.078     3212.476     86.21144      172.286     344.5035      2.268     6.77      1064.61      60.7183     239.5011        19     2.047     0.673 -26.80   0
        97    687.2355    864.3066 307.6307839  +6.3327099     590.7701     1080.899     1481.438      86.4847      172.149      344.572      1.717     4.85     1071.355      60.7183     109.1086         5     1.064     0.626 -29.36   0
        98    101.8376    862.1663 307.8740344  +6.3139736     1688.976     3748.479     4220.972     86.07449     172.0804     344.2294      2.333     7.68     1085.297      60.7183     223.5051        30     2.070     1.040 -27.61   0
        99    871.3579    861.7383 307.5543802  +6.3399181     1430.469     2987.853     3299.628     86.34818      172.286      344.572      2.135     7.15     1065.797      60.7183     230.9645        20     1.997     0.718 -22.96   0
       100    832.4040    862.2715 307.5705451  +6.3383982     1506.126     1896.364     2151.191     85.79993     171.8746     344.2979      1.150     2.28     1066.668      60.7183     293.0861         8     0.770     0.668 -44.91   3
       101    835.4214    860.7973 307.5693409  +6.3391076     2140.584     3138.462     3080.946     85.93732     171.9433     344.1951      1.512     3.95     1066.565      60.7183     317.4379        15     1.255     0.770 -53.79   3
       102    570.3478    852.7910 307.6797280  +6.3335564     223864.8     473193.5     530663.9     85.79993      172.149     344.1609      2.228     6.57     1075.224      60.7183     27651.58       159     2.329     1.295 -26.98   0
       103    414.5805    855.4722 307.7443463  +6.3272336     5257.241     10977.29     11657.71     85.93732      172.149     344.4007      2.152     6.52     1080.589      60.7183     736.7153        41     2.155     1.058 -23.34   0
       104    357.8127    853.8480 307.7679828  +6.3260015      8304.45     17784.73      20226.7     85.66232      172.149     344.1609      2.247     6.65     1083.102      60.7183     1071.319        51     2.224     1.128 -26.95   0
       105    659.5569    854.7160 307.6426039  +6.3357450      552.962      1125.93     1705.487     86.34818     172.2175      344.435      1.867     3.50      1071.92      60.7183     97.96411         5     1.098     0.322 -68.86   0
       106    676.4099    849.9672 307.6357619  +6.3382692     2302.148     4822.164     4865.682     85.79993     172.0119     344.2979      2.088     7.63     1071.033      60.7183     325.8784        28     2.092     0.822 -23.37   0
       107    908.5027    848.9030 307.5393784  +6.3464571     4084.763     8153.374     9151.979     86.34818     172.8329     344.2979      2.125     6.36     1063.369      60.7183     562.3428        37     2.107     1.020 -22.68   0
       108    651.0556    844.0919 307.6464918  +6.3398478     2311.062     4930.305     5759.872     86.21144      172.149     344.6062      2.214     7.13     1071.562      60.7183     329.1442        28     1.980     0.903 -25.32   0
       109    839.5198    843.0240 307.5682333  +6.3465836     1195.228     2262.656     2183.538     85.93732     171.9433      344.435      1.983     6.69     1065.616      60.7183     233.0167        16     1.783     0.704 -21.43   0
       110    643.5029    839.5909 307.6497804  +6.3414538     1634.926     4265.527     5476.958     86.07449     171.8746     344.2637      2.861    10.14      1071.56      60.7183     215.6492        37     2.586     1.200 -45.88   0
       111    967.5536    841.4653 307.5150949  +6.3514969     663.5627     976.0291     1779.516     86.34818     172.2175     344.4692      2.099     4.57     1061.316      60.7183     107.2822         8     1.288     0.462 -35.42   0
       112    338.9924    837.5276 307.7763500  +6.3321093     703.2458     1078.405     1583.227     85.93732      171.806     344.3665      1.897     3.71     1083.168      60.7183     105.8833         6     1.137     0.347 -48.37   0
       113    928.7729    836.3974 307.5313756  +6.3522969     2394.035     4314.099     5136.622     85.79993     172.0119     344.2637      2.108     3.67     1061.574      60.7183     412.5234        16     1.294     0.715 -31.20   2
       114    385.7525    832.8093 307.7570838  +6.3356254     1748.381      3610.26     4119.095     85.79993      172.149     344.0923      2.375     6.85     1081.403      60.7183     243.8789        28     2.201     0.849 -34.01   0
       115    521.9976    822.4614 307.7008322  +6.3444621     2152.649     4339.612     4495.261     85.66232     172.0804     344.1609      2.135     6.81     1075.718      60.7183     284.5813        28     2.058     0.927 -26.68   0
       116    866.5643    821.6582 307.5577130  +6.3563085     833.1528      1677.32     1646.019     86.34818      172.286      344.435      1.668     6.33     1063.971      60.7183     125.5326        14     1.780     0.633 -22.68   0
       117    568.9302    818.6688 307.6814623  +6.3475988     3847.186     8413.801     10907.13     86.34818     172.4229      344.435      2.704     6.74     1073.217      60.7183     499.6896        47     2.339     1.152 -20.92   2
       118    486.3840    817.6237 307.7157896  +6.3452673     1105.994     1983.862     1587.302     86.07449     172.0804     344.3665      2.086     6.92     1077.685      60.7183     141.8351        17     1.758     0.764 -26.33   0
       119    128.4621    816.6747 307.8645085  +6.3336523     924.9728     1913.766     1868.174       86.621      172.286     344.4692      2.140     7.60     1085.159      60.7183     130.6832        18     1.802     0.898 -33.03   0
       120    904.0887    816.7573 307.5422876  +6.3595838     1023.788     1989.238     2005.183     86.34818      172.149     344.5035      2.013     6.58     1061.685      60.7183     184.6877        14     1.906     0.638 -25.33   0
       121    705.1914    815.2081 307.6249704  +6.3535840      573.493     971.0354     973.6698     85.66232     172.0804     344.3322      1.836     3.44     1068.236      60.7183     85.71643         5     0.991     0.345 -43.20   0
       122    539.4589    812.4657 307.6939139  +6.3491740     13512.95     27979.09     30968.62      86.4847     172.2175     344.5035      2.200     6.45     1074.251      60.7183     1672.282        55     2.200     1.129 -27.98   0
       123    953.2593    810.6966 307.5220623  +6.3637258     2845.159     5830.141     6128.741     86.07449      172.286      344.572      2.127     7.71     1059.719      60.7183     437.8241        26     1.990     0.836 -26.36   0
       124     74.1478    809.2303 307.8873219  +6.3349004     623.1039     1019.644     1351.859     86.07449     172.4229     344.4007      1.732     3.09      1085.16      60.7183     109.6234         5     0.711     0.690 -40.88   0
       125     49.9883    803.2128 307.8975609  +6.3365727     930.2535     2137.559     2161.533     86.21144     171.9433     344.4007      2.302     7.99     1085.166      60.7183     131.0332        19     1.954     0.913 -26.87   0
       126    332.2510    801.2710 307.7803704  +6.3468542     2022.896     4572.081     5681.236     86.21144      172.286     344.5035      2.433     7.36     1082.331      60.7183     262.3159        33     2.222     1.007 -22.45   0
       127    797.6019    797.0025 307.5871889  +6.3641881     38348.43     78584.04     87377.39     85.66232      171.806     344.1609      2.155     6.98     1064.523      60.7183     5195.756        83     2.236     1.142 -25.66   0
       128     32.0919    799.3323 307.9051261  +6.3375730     1354.949     2771.727     2795.355     86.21144     172.4229     344.5035      2.061     6.96     1085.116      60.7183     181.2404        19     1.805     0.752 -18.24   0
       129    254.3467    773.5182 307.8136680  +6.3557000     771505.9      2184794      2669723     86.34818      172.286     344.5377      2.772    15.39      1084.21      60.7183     63649.05       656     2.895     2.305 -43.55   4
       130    725.8810    791.6195 307.6171657  +6.3640157     14745.03     30820.28     34850.56     85.93732     171.9433     344.4007      2.211     6.88     1066.694      60.7183     2041.867        54     2.217     1.077 -26.73   3
       131    719.6176    788.0921 307.6198861  +6.3652630     60381.07     124523.5     139676.3     86.07449     172.0119     344.3322      2.194     6.72     1066.616      60.7183     8078.542        92     2.273     1.204 -25.75   3
       132    364.4884    789.0032 307.7673908  +6.3530008     13382.23     28913.71     33499.76     85.79993     171.9433     344.1266      2.287     6.47     1080.697      60.7183     1525.383        66     2.287     1.252 -26.44   0
       133    426.3120    786.8555 307.7417794  +6.3559598        14372     30738.32     34796.83     86.34818      172.149     344.6404      2.259     6.43     1079.126      60.7183     1642.498        66     2.286     1.225 -27.75   0
       134    414.2624    788.9616 307.7467144  +6.3546864     878.7681     1621.761     1470.229     86.34818      172.286     344.5035      2.091     5.15     1079.642      60.7183     114.4137        10     1.355     0.554 -26.91   0
       135    963.4637    785.8244 307.5186545  +6.3743365     1509.067     3142.887     3774.523     85.93732      172.286     344.4007      2.264     7.15     1058.565      60.7183     235.1746        20     2.003     0.715 -24.88   0
       136    919.7409    783.6530 307.5368923  +6.3737756      4860.52     9919.569     11481.51     86.34818     172.2175     344.4692      2.141     7.07     1059.474      60.7183     731.0459        35     2.096     0.923 -24.77   0
       137    660.3970    782.7430 307.6446686  +6.3654926     4231.834     9046.386     10087.14     85.66232     172.0804     344.1609      2.265     7.46     1067.998      60.7183     510.1947        40     2.148     1.061 -26.63   0
       138    448.8430    780.9568 307.7326175  +6.3591504     968.5954     1958.589     2214.278     86.07449      172.286     344.3322      2.174     7.63     1077.846      60.7183     126.9884        18     2.222     0.733 -29.09   0
       139    441.8758    796.0263 307.7350054  +6.3526945     505.9697     974.2003     595.8398     85.93732     172.2175      344.435      1.879     5.23     1079.011      60.7183     83.77283         5     1.441     0.535 -11.83   0
       140    888.4630    774.8619 307.5501812  +6.3763626       646.27     1170.873     1378.029     86.34818      172.286     344.5035      1.996     4.14     1060.444      60.7183     105.0751         6     1.039     0.470 -28.65   0
       141    695.1506    772.8472 307.6305620  +6.3707404     1514.925     3175.863     3516.574     86.34818      172.149     344.5035      2.173     7.17     1066.564      60.7183     196.9417        25     2.054     0.903 -22.58   0
       142    614.9682    774.2032 307.6638285  +6.3674998     601.9104     1022.383     872.4395     85.52448     172.0804     344.2294      1.765     4.49     1069.211      60.7183     90.31116         5     0.927     0.643 -29.18   0
       143    429.2645    769.5522 307.7411346  +6.3632037     34600.88     74499.45      85304.8     86.21144      172.149     344.5377      2.298     6.49     1078.115      60.7183     3957.747        86     2.341     1.280 -26.14   0
       144    463.8586    767.0347 307.7268473  +6.3654021     2901.065     6335.656     7506.219     86.21144      172.286      344.435      2.317     6.97     1076.271      60.7183     309.6699        36     2.062     1.079 -23.55   0
       145    792.2438    765.1126 307.5904830  +6.3771775     7854.631     16278.38     17874.61     86.34818      172.149     344.5035      2.165     7.25     1063.722      60.7183     1106.593        48     2.221     1.036 -26.33   0
       146    460.4069    760.6458 307.7284960  +6.3679246     1418.242     3130.509     3750.298     85.79993     172.0119     344.0923      2.414     7.30     1076.071      60.7183     185.4839        22     1.949     0.952 -18.93   0
       147     19.3898    762.2902 307.9116528  +6.3524406     613.8567     1135.827     2127.514     86.07449     171.9433     344.2294      2.570     3.98     1083.785      60.7183     106.5062         5     0.934     0.486 -31.59   3
       148     22.7327    760.9157 307.9103105  +6.3531206     756.4983      1475.58     2101.728       86.621     172.5597     344.5035      2.492     3.08     1083.807      60.7183     120.8759         6     0.893     0.634 -43.14   2
       149    813.6086    759.5619 307.5817926  +6.3801828     949.8502     1983.052     2185.617     85.52449     172.0119     344.1609      2.043     6.15     1062.756      60.7183     149.9038        13     1.838     0.579 -25.10   0
       150    142.6613    748.0871 307.8609222  +6.3624499     1511.376     3275.217     4069.225      86.4847     172.4913     344.5377      2.359     8.33     1084.927      60.7183     188.4116        27     1.974     1.136 -27.16   2
       151    142.6703    754.3195 307.8607084  +6.3598768     1717.005     4081.485     5244.797       86.621      172.628     344.5035      2.513     8.09     1084.948      60.7183     206.2972        34     2.116     1.195 -26.59   3
       152    150.1513    757.2194 307.8575028  +6.3589308       7385.2     16646.98     19006.92     85.79993     172.3544     344.2637      2.344     6.30     1084.974      60.7183     922.7277        55     2.281     1.226 -24.72   3
       153    158.2430    757.4252 307.8541344  +6.3591177     1983.243       4188.7     4198.426     85.93732      172.286     344.2979      2.223     6.88     1084.992      60.7183     242.6431        29     2.017     1.013 -31.53   3
       154    935.6577    754.6490 307.5312496  +6.3862829     3265.073     4052.623     4395.553     86.34818      172.286      344.572      1.263     3.09     1058.546      60.7183     522.9922        15     1.152     0.723 -52.00   3
       155    938.9506    753.4843 307.5299204  +6.3868737     4518.412     6628.316     6393.455     86.34818      172.286     344.5377      1.511     3.96     1058.403      60.7183     702.0996        19     1.420     0.763 -48.04   3
       156    986.8859    753.7620 307.5099953  +6.3883567     1030.277     2095.117     2452.676     86.34818     172.2175     344.4692      2.207     6.79     1056.622      60.7183     158.6405        16     1.939     0.667 -21.70   0
       157    922.9064    792.2723 307.5352887  +6.3703219     6116.087     12111.88     13924.38     86.21144     172.3544     344.5377      2.102     6.92     1059.464      60.7183     946.3069        40     2.155     0.914 -25.91   0
       158    693.4715    751.2552 307.6319836  +6.3796002     1271.299     2615.427      3311.19     86.21144     172.2175      344.435      2.330     7.02     1065.694      60.7183      165.158        18     1.755     0.788 -30.21   0
       159    580.4130    750.6191 307.6789761  +6.3760824     1511.156     3113.219     3235.721     86.07449     172.0119     344.3665      2.218     7.40      1069.69      60.7183     188.4092        24     1.894     0.921 -27.18   0
       160    546.9655    768.5907 307.6922686  +6.3675422     4573.788     10070.29     10717.11     85.79993     172.0804     344.2637      2.277     6.99     1071.689      60.7183      553.559        40     2.170     1.059 -24.05   0
       161    929.6783    746.6402 307.5340017  +6.3893907     1239.627     1432.375     1682.655     86.21144      172.286     344.5035      1.080     2.49     1058.684      60.7183     238.5598         7     0.694     0.673 -76.40   3
       162    932.7845    745.4250 307.5327518  +6.3899960     2218.471     3429.177     3552.864     86.07449      172.149     344.4007      1.634     4.04     1058.533      60.7183     298.0055        19     1.424     0.859 -46.98   3
       163    992.1794    745.0707 307.5080866  +6.3921220     1489.159     2794.302     2946.878     85.93732      172.149      344.435      1.941     6.66     1055.964      60.7183      244.931        18     1.759     0.742 -22.88   0
       164    961.4647    745.2522 307.5208417  +6.3910235     2238.062     4295.967     4023.143     86.34818     172.2175      344.435      1.997     7.01     1057.314      60.7183     337.1804        22     1.976     0.749 -22.76   0
       165    684.4090    745.0510 307.6359567  +6.3818593     1030.242     2149.652      2850.34     85.79993      172.149     344.1266      2.311     7.16     1065.806      60.7183     163.9783        18     2.018     0.711 -18.77   0
       166    830.2083    744.1696 307.5754115  +6.3870927     579.7861     689.2661     671.8812     85.79993     172.0804     344.2294      1.697     3.78     1061.226      60.7183     105.2197         5     1.236     0.332  -8.41   0
       167    833.7970    741.6958 307.5740033  +6.3882340     673.6556     902.3976     854.9972     86.07449     171.9433     344.1266      1.365     4.66     1060.889      60.7183     129.9698         6     1.303     0.559 -20.34   0
       168    904.9363    741.4079 307.5444565  +6.3907262     565.2067     826.5291     871.8265     85.79993     172.0119     344.2637      2.186     3.90     1058.764      60.7183     78.05029         5     0.887     0.491  -1.54   0
       169    256.9907    740.0783 307.8136957  +6.3695965     1314.962     2914.249     4219.453     85.93732      171.806     344.2979      2.889     7.19     1083.274      60.7183     192.3323        23     1.738     1.016 -14.44   0
       170    949.8431    735.3284 307.5260021  +6.3947339     743.5948     1407.121     1342.048     86.21144      172.286     344.5035      1.980     6.66     1057.494      60.7183     121.9199        13     1.848     0.673 -25.31   0
       171    923.3321    734.4285 307.5370469  +6.3942217     660.0475     1246.541      1042.77     86.07449      172.286     344.4007      2.041     4.81     1058.433      60.7183     141.1945         7     1.784     0.367 -27.01   0
       172    278.7936    735.3959 307.8047956  +6.3722617     621.5837     906.7325     595.0809     85.66232     171.9433     344.3322      1.622     3.46     1081.812      60.7183     81.52039         5     0.799     0.432 -19.91   0
       173    976.0959    733.0540 307.5151707  +6.3965482     1665.061     3518.496     4117.959     86.21144      172.286     344.7431      2.282     7.69     1056.192      60.7183     258.8384        24     2.036     0.813 -23.89   0
       174    695.8884    732.4731 307.6316092  +6.3874366     689.0356     1715.963     2657.638     86.34818     172.5597     344.5035      2.400     6.30     1064.796      60.7183     111.7947        11     1.810     0.616 -14.22   0
       175   1017.7683    726.5455 307.4980741  +6.4006242     1127.886     2320.596     2326.308     86.21144     172.3544     338.0739      1.903     6.79     1054.251      60.7183     189.3422        16     1.863     0.693 -23.65  16
       176    818.5107    725.3940 307.5809003  +6.3944553     735.5996     1300.775     1536.512     85.79993     171.9433     344.1951      1.993     5.70     1060.837      60.7183     130.2643         9     1.636     0.560 -29.79   0
       177    906.1958    722.1142 307.5445787  +6.3987352     1056.634     2210.929     2959.331     85.79993     171.8746     344.1609      2.128     6.20     1057.801      60.7183     207.8586        14     1.998     0.541 -27.36   0
       178    878.5813    718.0147 307.5561892  +6.3995069     628.1311     907.2907      949.973     86.07449     172.0119     344.3665      1.465     4.85     1057.909      60.7183     91.56409         7     1.178     0.566 -27.13   0
       179    862.9428    713.3027 307.5628445  +6.4009310     952.0709     1901.322     2150.859     86.21144     172.2175     344.6747      2.341     7.32     1058.023      60.7183     171.1281        15     2.144     0.699 -27.41   0
       180     61.7702    712.5450 307.8957257  +6.3744062     1525.172     3380.304     3950.145     86.07449     172.3544      344.435      2.395     7.99     1083.432      60.7183     173.9783        30     2.026     1.206 -41.13   0
       181    674.4149    700.9424 307.6415882  +6.3997388     3964.247     8516.256      9065.17     85.66232     172.2175     344.1609      2.209     6.80     1064.371      60.7183     468.6415        41     2.180     1.099 -25.62   0
       182    621.2491    700.0277 307.6637081  +6.3983388     944.0323     1892.047     2182.275     85.93732     172.3544     344.4007      2.370     6.71     1066.429      60.7183     142.3801        16     1.798     0.702 -25.07   0
       183    137.4700    696.9315 307.8648036  +6.3833981     2423.268     5317.979     6248.529     86.34818     172.4229      344.435      2.394     6.92     1082.738      60.7183     270.9463        36     2.134     1.075 -26.32   0
       184    648.1799    696.7448 307.6526291  +6.4005950      1485.56     3097.348      3696.33     85.79993      172.286     344.2637      2.292     6.47     1065.233      60.7183     209.9875        26     2.021     0.974 -22.12   0
       185   1011.4061    696.1418 307.5017338  +6.4129669     1993.446     3824.702     4404.291     85.79993      172.149     344.1609      2.154     7.22     1054.309      60.7183     297.9591        23     1.985     0.750 -24.51  16
       186    791.2040    693.0940 307.5933275  +6.4068813     13477.81     28401.65     31900.84     86.07449     171.9433     344.1951      2.204     6.86     1059.798      60.7183     1879.367        58     2.237     1.130 -25.42   0
       187    491.9250    692.7198 307.7176841  +6.3970283     851.4443     1661.235      2176.83       86.621     172.5597     344.5377      2.453     5.63     1072.026      60.7183      119.177         9     1.402     0.637  -6.51   2
       188    921.2474    692.8168 307.5393052  +6.4113350     2656.532     5214.414     5372.024     85.79993     172.2175     344.2294      2.072     7.08     1055.765      60.7183     384.1411        23     2.051     0.747 -25.89   0
       189    264.7887    686.8258 307.8122494  +6.3918469       3780.4       8301.2     9420.949     85.93732     172.0804     344.3665      2.276     6.57     1080.363      60.7183     407.8335        43     2.203     1.141 -28.68   0
       190    671.7031    685.9886 307.6432164  +6.4058229      4500.47     9447.841     10615.79     86.07449     171.9433     344.2637      2.229     6.38     1063.786      60.7183     537.8887        43     2.232     1.051 -26.78   0
       191    931.1927    678.7529 307.5356436  +6.4174740      937.243     1726.404      1889.13     85.79993     172.0804      344.058      2.032     6.33     1054.549      60.7183     129.2827        12     1.505     0.747 -24.89   0
       192    743.5281    674.3226 307.6137653  +6.4130404     2350.453     5083.599     6645.143       86.621     172.5597     344.4692      2.566     7.21     1061.505      60.7183     296.3379        36     2.199     1.088 -21.63   0
       193    697.9014    674.7687 307.6327077  +6.4113316     611.5392     1232.211     811.1061     86.34818     172.0804     344.6062      2.215     6.49     1062.759      60.7183      94.1698        10     1.831     0.645 -20.98   0
       194    949.0922    670.9895 307.5284660  +6.4212765     1756.608     3173.049     3789.878     86.07449     171.8746     344.2637      2.097     5.14     1054.086      60.7183     287.3945        17     1.391     0.964 -47.71   2
       195   1007.6319    671.7082 307.5041187  +6.4229307     4448.346     5331.453     5903.915      86.4847     172.0804     344.5035      1.237     3.15     1054.055      60.7183     761.0673        15     1.148     0.721 -53.10   3
       196   1010.9454    670.5147 307.5027819  +6.4235339       6336.4     9142.681      9383.42     86.34818      172.286     344.6404      1.486     3.88     1053.968      60.7183      964.986        25     1.442     0.833 -48.62   3
       197     28.7539    670.9851 307.9108446  +6.3904560     1216.403     3096.692     3483.688     85.66232     172.0804     344.1951      2.489     8.92     1082.608      60.7183     157.8369        26     2.003     1.110 -16.20   0
       198     87.1911    665.9045 307.8867384  +6.3945193     15523.71     34999.57     40720.32     86.07449     171.8746     344.2294      2.358     6.31     1082.393      60.7183     1800.621        71     2.294     1.348 -27.50   0
       199    517.5051    663.8774 307.7080252  +6.4097945     1013.044     1792.939     1991.011     86.07449     172.4913     344.5377      1.896     6.12      1070.54      60.7183     119.9552        14     1.443     0.886 -25.24   0
       200    938.2188    663.1309 307.5332469  +6.4241591     809.3274     1527.893     1368.814     85.93732      172.149     344.4007      1.917     5.82     1053.985      60.7183     137.4281        11     1.497     0.636 -30.85   0
       201    558.2967    660.8459 307.6911788  +6.4124117     733.2234      1353.46     1644.478     86.34818     172.2175     344.6404      1.740     6.12     1068.821      60.7183     124.4373         7     1.242     0.847 -64.72   0
       202    733.2688    657.9671 307.6185762  +6.4194513     2294.841     4965.818     5101.831     86.21144      172.286     344.5035      2.236     6.92     1061.394      60.7183     287.5018        34     1.985     1.121 -24.83   0
       203    755.1587    656.3991 307.6095336  +6.4208300     2744.272     5615.405     6310.719     85.66232     171.9433     344.1266      2.190     7.10     1060.189      60.7183     336.2422        31     2.117     0.935 -25.53   0
       204    586.6362    654.2491 307.6796256  +6.4160840     2129.225     4557.788     5150.418     86.07449      172.286     344.3665      2.251     6.72     1067.034      60.7183     255.2667        32     2.031     1.009 -25.34   0
       205    422.2737    654.7022 307.7479003  +6.4103932     666.3987     1608.404     1706.619     85.93732     172.4229     344.4692      2.668     5.83     1073.038      60.7183     131.8032         9     1.957     0.489 -38.36   0
       206    247.7122    654.0178 307.8204490  +6.4048206     1047.718     2407.668     2331.584     86.07449     172.0119     344.2979      2.204     7.22     1079.304      60.7183     132.1749        16     1.779     0.821 -32.88   0
       207    330.7866    653.2801 307.7859589  +6.4079130     831.1487     1885.497     2255.645     85.93732     172.0119     344.2637      2.481     6.39     1076.775      60.7183     159.1799        11     1.673     0.792  -4.14   0
       208    993.3557    651.3209 307.5107322  +6.4308736     5773.734     11910.49     12647.94     86.34818      172.286     344.4692      2.118     7.61     1052.651      60.7183     827.9351        39     2.115     0.954 -24.97   0
       209    548.2625    666.8257 307.6951470  +6.4096067     1380.275     2723.425     2845.326     85.93732     172.2175     344.3665      2.034     6.91     1069.509      60.7183     190.7855        20     1.860     0.903 -19.20   0
       210    151.9103    644.8041 307.8605619  +6.4054073     14601.21     32704.06     37231.79     85.79993     171.9433     344.1609      2.335     6.25     1080.642      60.7183     1532.295        70     2.305     1.335 -28.11   0
       211    438.9361    645.5727 307.7412844  +6.4147213     1737.787     3910.755     4668.764     85.93732      172.286     344.3665      2.541     6.99     1072.334      60.7183     210.5984        33     2.014     1.162 -31.90   0
       212    821.6580    644.9529 307.5822867  +6.4277769     985.6059     1562.581     1980.782     86.34818      172.286     344.6062      1.664     5.21      1056.85      60.7183     128.2911        10     1.193     0.728 -40.18   0
       213    988.2853    634.2917 307.5134083  +6.4377365     4945.556     10729.53     12243.79     86.07449     172.7646      344.572      2.267     6.69     1051.688      60.7183     645.7241        46     2.146     1.173 -21.51   0
       214     34.6668    633.1704 307.9096645  +6.4062688     669.7415     1350.096     1572.453     86.07449      172.286      344.435      2.036     5.23       1081.9      60.7183       87.599         6     1.051     0.734 -83.19   0
       215    581.8583    629.5822 307.6824389  +6.4261097     29894.55     65190.22     75294.45     85.93732      172.149     344.1951      2.330     6.46     1066.987      60.7183     3264.688        83     2.339     1.315 -25.59   0
       216    189.9771    626.3318 307.8453690  +6.4143136     1707.376     3762.176      4526.84     85.93732     172.2175      344.435      2.385     7.83     1079.858      60.7183     220.1691        28     2.043     0.998 -25.36   0
       217     82.0516    621.0933 307.8903854  +6.4128494     818.6445     1756.535     2199.611     86.21144      172.149     344.7089      2.255     6.52     1080.881      60.7183     117.9252        11     1.553     0.768  -9.70   0
       218    479.1343    613.3932 307.7256641  +6.4293555     37913.14     84868.88      98388.8     85.79993     172.0119     344.2637      2.367     6.48     1070.007      60.7183     3997.954        87     2.372     1.354 -26.74   0
       219     22.4093    615.2455 307.9153621  +6.4132577     1210.946     2401.274     3083.397     85.79993      172.149     344.1266      2.654     7.60     1081.812      60.7183       165.99        21     2.069     0.782 -19.06   0
       220    153.2948    608.8466 307.8611990  +6.4203010     1174.568     2355.674     2255.837     86.21144     172.2175     344.6062      2.150     8.69     1080.162      60.7183     139.6968        19     1.991     1.060 -28.33   0
       221    625.6573    605.5052 307.6650485  +6.4375169     587.6991     991.3821     774.4207     86.21144      172.286     344.6747      1.979     4.32      1064.34      60.7183      74.1792         6     1.113     0.477  -8.60   0
       222    323.5994    603.2839 307.7906278  +6.4283161     1070.591     2885.107     3138.743     85.52449     171.7373     344.1266      2.653     6.21     1074.131      60.7183     159.7849        11     1.420     0.762 -39.40   2
       223    751.1208    596.9464 307.6132040  +6.4452448     3374.597     7178.894     8096.292     86.34818      172.286     344.5035      2.259     7.56      1058.51      60.7183     391.7954        35     2.154     0.995 -24.77   0
       224    804.7462    592.1228 307.5910833  +6.4490274      9336.45      19370.7     21611.37      86.4847      172.286     344.4692      2.210     6.63     1056.785      60.7183     1146.967        52     2.213     1.105 -24.94   0
       225    546.8912    592.3397 307.6982184  +6.4403177     703.0413     1568.979     1832.394     86.21144     172.3544     344.5377      2.365     5.87     1067.724      60.7183     99.03247         8     1.271     0.763 -37.86   0
       226   1023.2026    592.0098 307.5003131  +6.4563595     646.2799     837.9759     872.7263     80.55193     144.1775     267.1605      1.606     3.91     1047.659      60.7183     100.1412         6     0.938     0.467 -55.33  24
       227    628.4411    590.3394 307.6644008  +6.4438724     1880.682     4061.857     4099.993     86.34818      172.286     344.5377      2.184     7.47     1064.064      60.7183     237.2208        31     1.993     1.083 -26.94   0
       228    946.1288    586.4144 307.5325266  +6.4561015     702.9759     1350.516      2164.28     85.79993      172.149     344.3665      2.028     5.60      1051.63      60.7183     120.5852        11     1.921     0.461 -23.36   0
       229    387.7343    583.9297 307.7646314  +6.4384586     638.6336     1360.493     1387.353     86.34818     172.3544     344.4692      2.342     5.51      1071.11      60.7183     85.69458         7     1.179     0.725 -56.44   0
       230    240.4620    583.6173 307.8258328  +6.4336464     692.5638     1473.623     1592.355     85.93732     172.2175     344.2979      2.191     7.70     1076.588      60.7183     111.4434        11     1.545     1.073 -15.28   0
       231    880.7797    575.3261 307.5600521  +6.4585008      1825.94     4006.775     4795.739     85.93732     172.2175     344.4007      2.336     7.11     1053.164      60.7183     252.8439        25     2.042     0.842 -19.91   0
       232    839.2810    573.0518 307.5773721  +6.4580552     1594.748     3494.733     3500.458     86.34818      172.286     344.4692      2.223     7.78     1054.891      60.7183     237.1929        23     1.986     0.853 -26.45   0
       233    819.9722    564.1044 307.5856952  +6.4611053     101686.9     216776.5     246288.7      86.4847     172.0119     344.3665      2.272     6.88     1055.808      60.7183     12752.74       152     2.647     1.282 -26.21   0
       234    267.6496    567.8532 307.8150676  +6.4410684     4533.435     10129.14     10757.63      86.4847     172.2175     344.5035      2.318     6.30     1074.203      60.7183      475.501        50     2.252     1.275 -28.37   0
       235    201.7682    562.3870 307.8426252  +6.4411132     34771.09     79399.77     95107.99     85.79993     172.0119     344.4007      2.443     6.41     1077.106      60.7183     3759.192       106     2.425     1.506 -25.99   0
       236    125.8314    558.7359 307.8742995  +6.4400691     3659.406     8452.005     9048.448     86.07449     172.3544      344.435      2.344     6.65      1079.22      60.7183     420.9038        44     2.156     1.225 -26.79   0
       237   1011.1925    555.3864 307.5065281  +6.4710824     517.9255     787.9148     786.2997     85.93732     172.0119     344.2979      1.897     5.23     1047.461      60.7183     83.03442         7     1.227     0.629 -39.35   0
       238    988.9003    556.7480 307.5157459  +6.4697773     652.1433     835.5826     1025.621     86.34818      172.286     344.7089      1.349     3.54     1048.455      60.7183     126.6534         5     0.817     0.443 -17.81   3
       239    992.1150    555.0047 307.5144683  +6.4706043     946.3806     1447.322     1112.173     85.79993     171.8746     344.0923      1.584     3.85     1048.266      60.7183     168.8641        10     1.172     0.638 -54.27   2
       240    856.6665    551.2867 307.5708768  +6.4676228     2877.265     6139.763     6456.482     86.34818     172.4913     344.5035      2.209     7.32      1053.61      60.7183     374.4052        32     2.046     0.973 -21.68   0
       241    375.1926    549.4993 307.7710009  +6.4522550     10120.06     22895.82     26806.15     86.07449     171.8746     344.2637      2.405     6.44     1068.792      60.7183     1029.131        67     2.337     1.392 -27.07   0
       242    178.1645    548.1666 307.8529118  +6.4461920     1191.513     2728.085     3721.386     85.93732     172.0119     344.1951      2.868     9.09     1077.941      60.7183     142.5129        26     2.258     1.021 -33.19   0
       243    810.6102    544.5959 307.5902389  +6.4688483     3919.318     7947.435     8768.881     85.79993     171.9433     344.3665      2.199     6.09     1056.159      60.7183     472.1656        39     2.095     1.046 -26.64   0
       244    114.8654    545.9626 307.8792866  +6.4449747     564.6447      1008.79     424.4629     86.21144     172.2175     344.5377      1.981     4.53     1078.976      60.7183     93.21448         5     1.194     0.489 -22.38   0
       245    399.5771    541.3544 307.7611428  +6.4564358     810.8622     1881.424     2665.547     85.93732      172.286     344.2979      2.615     7.42     1068.261      60.7183      120.127        12     2.021     0.764 -19.10   0
       246    188.6491    537.5717 307.8489126  +6.4509190     3950.322     8717.213     9883.703     85.93732     172.3544     344.3665      2.356     6.54     1076.601      60.7183     443.6394        48     2.282     1.224 -28.61   0
       247    586.5579    537.5198 307.6835772  +6.4642816     1546.371     3406.439     4468.463     86.34818      172.286      344.435      2.549     8.36     1064.528      60.7183     168.0854        27     2.125     0.919 -28.83   0
       248    541.5132    544.3535 307.7020649  +6.4599523     4013.458      8864.51     10325.09     86.34818      172.149     344.4692      2.347     6.26     1065.569      60.7183      464.427        43     2.123     1.192 -27.24   0
       249    283.7808    534.0547 307.8095033  +6.4555657     50217.84     116209.2     137945.1     85.79993      172.286     344.2637      2.423     6.33     1071.209      60.7183     5233.688       107     2.418     1.484 -26.75   0
       250     60.2072    536.3302 307.9023217  +6.4471139     2951.147     6744.515       7695.1     85.79993     171.8746     344.3665      2.397     6.33     1078.621      60.7183      329.788        41     2.127     1.233 -28.26   0
       251    828.3441    536.1956 307.5831513  +6.4729091     796.5196     1623.899     1996.668     85.66232     172.0804     344.1609      1.882     3.52     1054.787      60.7183     115.5126         5     0.801     0.445  75.59   0
       252    982.7944    527.9471 307.5192464  +6.4814666     1055.819     2333.547     2524.349     85.79993     172.0119     344.1266      2.597     6.64     1047.162      60.7183     162.0791        17     1.878     0.659 -31.53   0
       253    806.8942    526.3604 307.5923940  +6.4762543      10569.2      21989.4     24854.56      86.4847     172.2175      344.572      2.272     6.51     1055.506      60.7183     1287.764        54     2.236     1.141 -26.70   0
       254    268.3674    528.4822 307.8160954  +6.4573493     1003.691     1898.677     2389.635     86.34818     172.2175      344.435      2.213     5.54      1071.52      60.7183     131.2811        11     1.095     0.790 -28.54   0
       255    510.4786    524.8665 307.7156152  +6.4669598     24507.95     57651.04     68903.99      86.4847     172.4229      344.435      2.516     6.54     1066.226      60.7183     2467.877        93     2.465     1.500 -22.99   0
       256    223.3606    520.8377 307.8350538  +6.4589946     1168.123     2459.752     2935.258     86.07449     172.2175     344.3322      2.303     8.21     1073.113      60.7183     160.3508        21     1.856     1.094 -34.43   0
       257    670.4474    519.9236 307.6493089  +6.4743534     1861.459     4099.479     5311.889     86.21144     172.3544      344.435      2.817     8.09      1061.42      60.7183     229.7913        27     1.958     0.999 -28.20   0
       258     59.8031    521.4474 307.9029920  +6.4532455     632.5891     1163.498     1086.559     85.66232     172.0119      344.058      1.801     3.46     1078.277      60.7183     91.77783         5     0.776     0.446 -20.19   1
       259    681.4037    519.5831 307.6447676  +6.4748603      927.565     1885.952     2133.418     85.93732     171.8746     344.2979      2.212     6.90     1060.846      60.7183     129.9469        15     1.766     0.757 -26.22   0
       260    733.0230    519.0299 307.6233363  +6.4768139      739.696     1638.854       2274.4     85.79993     172.0804     344.2979      2.325     5.29      1057.79      60.7183     104.8832        10     1.630     0.485 -21.84   0
       261    408.8625    515.5524 307.7581525  +6.4674011     1181.199     2050.314     2279.825     86.21144      172.149     344.5377      2.000     6.53     1066.579      60.7183     154.2544        14     1.142     1.049 -42.64   0
       262    339.8535    513.8212 307.7868855  +6.4658018     2192.104     5066.513     5576.045     85.79993      172.286     344.2637      2.413     6.93     1067.879      60.7183     248.3049        37     2.045     1.195 -28.51   0
       263    154.8312    512.4595 307.8638108  +6.4601518     15098.38     34917.89     40539.96     86.07449      172.286      344.435      2.418     6.52      1076.59      60.7183     1685.629        75     2.357     1.413 -26.99   0
       264    520.2021    512.9371 307.7119757  +6.4722113      1152.26     2638.964     2955.768     85.66232     172.0119     344.1951      2.393     8.90     1065.436      60.7183     133.1772        23     2.006     1.103 -21.54   0
       265    883.1164    512.2144 307.5611940  +6.4846394     1079.809     2065.288     1792.049     85.93732     172.0119     344.2979      2.093     6.74     1050.995      60.7183     169.8745        17     1.735     0.734 -14.88   0
       266    120.0465    511.0022 307.8783132  +6.4595843      1575.17     3565.858     4263.224     85.66232     171.9433      344.058      2.344     8.54      1077.33      60.7183     184.9777        30     2.139     1.053 -26.74   0
       267      1.7057    510.2382 307.9275097  +6.4559189      1005.13     1675.467     1725.113     80.11136     142.8623     265.8769      1.668     5.50     1078.328      60.7183     153.8774        11     1.341     0.636 -70.04  24
       268    980.2685    506.9418 307.5209985  +6.4900562     3399.971     7185.146     7337.216      86.4847     172.2175      344.435      2.143     6.99     1045.907      60.7183     458.4264        30     1.973     0.923 -24.77   0
       269    358.5934    508.1877 307.7792883  +6.4687566     527.4223     1146.348     1873.633     85.93732     172.0804     344.3665      2.136     3.65      1067.12      60.7183     92.56067         5     1.004     0.382   5.10   0
       270    553.0087    499.6299 307.6987904  +6.4788044     932.0585     1754.467     2435.866     85.79993     172.0804     344.2637      2.164     5.65     1064.332      60.7183     108.7433        11     1.306     0.688 -29.46   0
       271     19.1161    496.8483 307.9207279  +6.4620336     14881.16     33920.96      39707.1     86.34818      172.286     344.5035      2.394     6.33     1078.073      60.7183     1591.443        72     2.330     1.374 -26.58   0
       272    451.8429    493.5373 307.7410333  +6.4779320      24675.4     55677.59     66198.74     86.34818     172.2175      344.572      2.431     6.58     1065.051      60.7183     2624.405        86     2.410     1.414 -27.13   0
       273    659.8015    493.2043 307.6546293  +6.4850305     7182.744      16014.3     18612.39     85.66232      171.806     344.1951      2.348     6.30     1061.213      60.7183     815.2444        58     2.249     1.292 -23.73   0
       274      2.9249    490.6705 307.9276640  +6.4640395     115713.6     203944.5     213690.7       86.621     160.0017     286.0135      1.880     5.36     1078.156      60.7183     13632.64        86     1.771     1.319 -57.54  24
       275    217.0343    491.1553 307.8386827  +6.4710383     10820.75     26194.57     31415.72     85.93732     172.2175     344.3322      2.502     6.45     1071.253      60.7183     1085.204        77     2.387     1.529 -24.06   0
       276    182.7571    492.3994 307.8528836  +6.4693732     985.5798     1943.966     2088.272     85.66232     171.9433      344.058      2.069     6.05     1073.521      60.7183     150.4877        13     1.678     0.612 -15.71   0
       277    993.9248    491.1090 307.5158531  +6.4970492     941.5072     1644.463     1839.855     86.34818     172.4913     344.5035      1.916     5.89     1043.921      60.7183     119.8966        11     1.610     0.607 -20.72   0
       278    581.5109    489.8361 307.6872755  +6.4838024     1746.631     3786.026      4770.54     86.34818     172.2175     344.4692      2.457     6.80     1063.314      60.7183     192.5237        28     1.918     1.023 -28.60   0
       279    955.4415    487.1167 307.5319788  +6.4974150     3156.233     6421.382     7362.491     86.34818      172.286     344.4007      2.128     7.43      1046.27      60.7183     432.4156        32     2.076     0.929 -23.53   0
       280    628.5540    485.6673 307.6678670  +6.4870977     4002.467     9132.138     10962.87     86.34818     172.2175     344.5035      2.476     6.94     1061.902      60.7183     451.5461        47     2.291     1.205 -26.33   0
       281    977.9580    479.3450 307.5228818  +6.5013748     2409.531     4909.587     5234.147     86.21144     172.2175     344.5035      2.051     6.35     1044.217      60.7183     381.8126        25     1.958     0.870 -23.98   0
       282    540.8403    476.9229 307.7046097  +6.4877733     4233.447     9819.677     11678.83     86.21144      172.286     344.5035      2.509     7.11     1063.818      60.7183     455.1272        45     2.252     1.200 -26.82   0
       283    387.0266    476.9723 307.7685239  +6.4825994     1558.732     3437.698     3971.055     85.79993     172.0804     344.2979      2.372     7.31     1064.752      60.7183     196.6271        28     2.199     1.017 -33.59   0
       284    897.2049    472.6311 307.5566646  +6.5014545     2199.518     4419.687     5494.255     85.66232      172.149     344.2294      2.348     6.74       1048.7      60.7183     292.5106        29     2.064     0.932 -24.62   2
       285    904.5751    467.0633 307.5537882  +6.5039995     1252.495     2743.698     3333.745     85.93732      172.286     344.4007      2.450     7.58     1047.968      60.7183     193.6083        21     2.087     0.771 -18.68   2
       286    941.5301    467.2149 307.5384258  +6.5051693     758.9376       1175.4     963.5928     85.79993     172.2175     344.3665      1.455     4.15     1045.949      60.7183     112.8348         7     0.998     0.492  84.39   0
       287    945.4315    465.7083 307.5368549  +6.5059215     936.1183     1443.244     1253.863      86.4847     172.0804     344.5035      1.692     4.73      1045.69      60.7183      134.631        12     1.125     0.904 -82.69   0
       288    728.5468    463.1063 307.6270716  +6.4997567     1883.639     4174.199     4957.905     86.21144     172.2175     344.7431      2.389     7.01     1056.414      60.7183     215.7245        32     2.090     1.040 -16.60   0
       289    399.6903    461.4319 307.7637844  +6.4894409     2245.344     4787.413     5336.541      86.4847     172.0804     344.5035      2.306     7.89     1063.093      60.7183     244.7859        35     2.159     1.065 -27.35   0
       290     89.5564    462.7410 307.8926105  +6.4784864       1120.8     2578.377     3267.215     86.21144     172.2175      344.572      2.601     5.84     1075.971      60.7183     160.5352        13     1.185     1.142 -18.85   2
       291    627.3652    457.8507 307.6692947  +6.4985441     6014.561     13416.01     15998.29     86.21144     172.2175     344.3665      2.417     6.64     1060.524      60.7183     662.5769        52     2.336     1.201 -28.08   0
       292    790.2502    454.0751 307.6017327  +6.5055471     10322.85     21863.44     26189.78     86.34818     172.3544     344.4692      2.327     6.87     1053.455      60.7183     1274.948        69     2.516     1.237 -32.92   0
       293    309.7426    454.9409 307.8013798  +6.4891041     1621.488     3783.735      4053.47      86.4847     172.2175     344.5035      2.408     8.26     1064.894      60.7183     215.9424        34     2.135     1.172 -27.50   0
       294    392.0761    451.5482 307.7672810  +6.4932667     1014.026     2064.405     2399.288     86.34818     172.3544     344.4692      2.285     5.71     1062.631      60.7183     131.7795        11     1.127     0.984 -43.22   0
       295    818.6411    451.7129 307.5900136  +6.5074705     906.8959     1637.928     1093.175     86.34818      172.286     344.5035      1.884     6.20     1051.972      60.7183     123.8955        12     1.525     0.710 -23.25   0
       296    975.1164    449.4719 307.5250619  +6.5136156     1294.439     2743.985     2837.725     86.62099      172.628     344.5035      2.189     8.15     1042.871      60.7183     199.8987        23     2.075     0.895 -27.52   0
       297    127.6612    446.3506 307.8773301  +6.4865353     2652.141     5967.722      6956.61     86.34818     172.2175     344.5377      2.383     6.69     1073.429      60.7183     295.0801        44     2.170     1.286 -27.82   0
       298    765.6229    445.3235 307.6122604  +6.5083383      1506.17      3209.04     3567.963     85.93732      172.149     344.3665      2.243     7.51     1053.837      60.7183     193.0336        28     2.037     1.047 -28.88   0
       299    286.2772    442.9396 307.8115348  +6.4932721     853.0079     1786.776     2548.112      86.4847     172.3544      344.435      2.739     7.68     1064.653      60.7183     110.9803        14     1.593     1.036 -26.98   0
       300    363.5619    441.1245 307.7794807  +6.4966146     1787.219     4133.567     4641.209     86.21144     172.3544     344.5035      2.450     7.70     1062.407      60.7183     189.0591        36     2.088     1.367 -30.35   0
       301    719.4274    438.7283 307.6316788  +6.5095182     1098.375     2367.783     3207.048     86.07449     172.2175     344.3665      2.430     7.54     1055.395      60.7183     135.5662        19     1.794     0.886 -27.89   0
       302    560.0033    431.9321 307.6981579  +6.5069924     654.1368     1429.473     1897.475     85.66232     171.8746     344.2294      1.703     3.63     1059.802      60.7183     102.5665         5     0.989     0.383 -59.07   0
       303    482.6514    430.3684 307.7303547  +6.5050478     680.2732     1657.237     1830.316     86.21144     172.3544     344.4007      2.656     5.69     1059.769      60.7183       98.849        10     2.083     0.438 -42.80   0
       304    845.6211    429.0845 307.5795595  +6.5177149     931.9338      1942.49     2132.645     86.07449     171.9433     344.3665      2.482     6.89     1049.539      60.7183     129.3978        16     1.909     0.697 -25.43   0
       305    831.2559    427.8961 307.5855691  +6.5177262     1210.314     2377.078     2849.302     86.21144     172.2175     344.6747      2.270     7.33     1050.486      60.7183      161.073        19     1.943     0.775 -27.01   0
       306    728.5004    426.0540 307.6283334  +6.5150549      9234.66     20384.36     23910.32     86.21144      172.286     344.7431      2.360     6.64     1053.833      60.7183     1029.028        60     2.315     1.251 -25.54   0
       307    649.2457    422.1444 307.6614005  +6.5140198     1402.888     3457.964     4823.135     86.34818      172.286     344.4692      2.815     9.08     1058.029      60.7183     152.7174        31     2.128     1.144 -19.49   0
       308    621.9962    417.2011 307.6728905  +6.5151496      8473.84     21698.18      30395.1     85.66232      171.806     344.1951      2.952     7.49     1058.328      60.7183     960.0317        93     2.724     1.854   5.77   0
       309    953.7849    415.8313 307.5350524  +6.5267957     2584.908     5199.584     5830.367     85.93732     172.0119     344.4007      2.154     7.01     1042.125      60.7183     331.7397        29     2.049     0.902 -23.69   0
       310    392.9646    411.9455 307.7682443  +6.5096491     16499.17     37885.36     44802.77     86.21144      172.286     344.5035      2.435     6.44     1059.423      60.7183     1686.164        75     2.376     1.414 -26.57   0
       311    906.5903    413.0212 307.5547598  +6.5263822      587.664     842.0096     1656.205     85.93732     172.0119     344.2637      2.334     3.01     1044.706      60.7183     116.1354         5     0.809     0.689  38.37   3
       312    910.5656    410.9404 307.5531774  +6.5273740     985.3646     1962.191     2252.567     86.21144      172.286      344.435      2.117     6.05      1044.38      60.7183     126.4674        13     1.528     0.673 -31.53   2
       313    139.4332    411.5082 307.8736138  +6.5013178     1453.904     2982.538     3202.919      86.4847      172.149     344.5035      2.193     7.17     1070.775      60.7183     196.0845        20     1.734     0.959 -24.24   0
       314    922.3641    406.2619 307.5484307  +6.5296994     3311.548     6804.233     7947.322     86.34818      172.286      344.435      2.192     6.98     1043.536      60.7183     439.9747        32     2.046     1.001 -25.23   0
       315     72.0011    407.3825 307.9017736  +6.5007537     946.4836     2130.906     2266.203     85.93732      171.806     344.1609      2.283     7.32     1072.996      60.7183     125.8779        15     1.776     0.845 -22.48   0
       316    250.4434    402.5696 307.8277853  +6.5087383     7768.261     18150.02     21176.82     85.93732      172.286     344.3322      2.446     6.44     1063.942      60.7183     786.0009        64     2.359     1.413 -27.19   0
       317    363.0048    392.5672 307.7813466  +6.5166460     739.6427     1534.616     1480.731     85.66232      172.149     344.2637      2.001     4.63     1058.077      60.7183     103.1116         7     1.525     0.399 -63.25   0
       318    150.7438    391.2594 307.8695967  +6.5100588     3016.597     7020.134     8276.672      86.4847      172.286     344.5035      2.457     6.90     1068.813      60.7183     371.9362        46     2.225     1.303 -27.79   0
       319    255.5867    390.5099 307.8260544  +6.5138905     795.7486     1610.272      1036.08     86.07449     172.0119     344.2979      1.997     6.02     1063.042      60.7183      104.365         9     1.577     0.647  -1.71   0
       320    173.3828    386.6891 307.8603433  +6.5127068     1422.567     3401.487     3634.013     86.07449     172.0119     344.3322      2.313     8.20     1067.359      60.7183     177.4647        29     1.792     1.274 -55.81   0
       321    396.1389    382.0363 307.7679316  +6.5221055     1103.324         2569     2874.111     86.34818      172.286      344.435      2.437     8.60     1056.527      60.7183     149.6035        23     2.247     0.920 -23.73   0
       322    983.5582    381.7812 307.5238181  +6.5418484      650.142     1218.712     1927.128     85.79993     172.0804     344.2294      2.719     5.52     1039.895      60.7183     101.0417         7     1.172     0.733   5.42   0
       323     46.3704    376.4351 307.9134690  +6.5126697     1787.148     4244.255     4787.729     85.93732     172.0119     344.2637      2.491     7.98     1071.929      60.7183     221.6409        35     2.213     1.136 -26.40   0
       324    450.1944    375.2856 307.7456948  +6.5267050     4166.821      9794.81     11450.17     85.79993     171.9433     344.1609      2.414    10.30     1055.165      60.7183     579.7012        48     2.354     1.256 -23.64   0
       325    789.7101    372.7647 307.6046824  +6.5391042     7561.367     17258.37     22887.55      86.4847     172.2175     344.4692      2.699     8.48     1049.685      60.7183     917.0864        83     3.344     1.283 -16.56   0
       326    354.4346    371.1592 307.7856287  +6.5251981     613.8254     1213.557     863.0225     86.07449      172.286     344.2637      1.983     3.84     1056.179      60.7183      94.5271         5     0.824     0.684 -27.72   0
       327    965.4653    364.7642 307.5319068  +6.5482722      316.862     466.6889    -23.74295     86.21144     172.2175     344.5377      2.017     4.26     1040.473      60.7183     96.80652         5     1.159     0.446 -31.41   0
       328      4.6079    362.3191 307.9312999  +6.5170926     1061.902     2565.962     3575.566     85.93732     171.8746       310.46      3.139     9.58      1072.57      60.7183        134.8        22     2.232     1.147 -28.53  24
       329    498.5458    358.8173 307.7261548  +6.5351250     1736.825     3871.341     4321.158     85.79993      172.286     344.1951      2.411     7.89     1053.346      60.7183     188.1683        31     2.010     1.076 -31.49   0
       330    471.0914    359.2377 307.7375502  +6.5340316     1337.227     2592.967     2434.557      86.4847     172.2175     344.5035      2.033     6.16     1053.489      60.7183     171.9613        19     1.416     1.011 -31.42   0
       331    927.5253    358.4966 307.5478846  +6.5495952     583.7295     1091.235     1519.578     86.07449     172.4229     344.5035      2.322     4.12      1042.34      60.7183     102.3831         5     0.971     0.500  -1.16   0
       332    856.0012    355.4985 307.5777106  +6.5484470     20937.12     46377.43     53785.67     85.79993     171.8746     344.1609      2.336     6.71     1045.277      60.7183     2460.549        74     2.293     1.329 -30.08   0
       333    627.8412    347.6909 307.6727951  +6.5440474     1569.329     3795.135      4928.86     86.34818      172.286     344.5377      2.677     6.86     1051.828      60.7183     178.7104        33     1.981     1.219 -25.41   0
       334     35.2908    348.9347 307.9190017  +6.5236518     593.5569     1316.501     1640.463     86.21144     172.4913     344.4692      2.550     5.26     1071.095      60.7183      97.6925         6     1.119     0.739 -24.49   0
       335    712.4713    341.5043 307.6378307  +6.5494318     49195.33     106656.8     123441.7     86.21144     172.3544     344.4692      2.357     6.53     1050.813      60.7183     5283.499        97     2.352     1.384 -25.62   0
       336    871.6108    342.8360 307.5716473  +6.5541966     874.7333      1483.62     2127.479     85.79993     172.0804     344.2294      2.317     4.41     1044.058      60.7183     116.2144         9     0.875     0.793  11.01   0
       337    575.0002    338.1284 307.6950766  +6.5462278     1567.563     3658.418     4072.577     85.66232     171.7373     344.2294      2.391     7.64     1050.449      60.7183      176.895        30     2.112     1.092 -22.76   0
       338    112.3260    337.2687 307.8873830  +6.5310603     3602.244     8321.739     9637.279      86.4847     172.4229     344.4692      2.470     6.77     1067.896      60.7183     405.8885        46     2.213     1.292 -26.39   0
       339    955.0276    338.7954 307.5371138  +6.5586474     697.4346     1139.706     759.6765     85.79993     172.0804     344.2979      1.824     4.51     1039.809      60.7183     98.43298         6     1.072     0.538 -80.70   0
       340    558.1514    334.5532 307.7021989  +6.5471401     4126.816     9432.982        10505     86.34818      172.149     344.4692      2.395     6.68     1050.008      60.7183     422.6807        48     2.298     1.243 -27.50   0
       341    286.9234    332.4199 307.8149891  +6.5389286      1505.42     3435.967     3643.238     85.93732     171.9433      344.435      2.411     8.69     1058.062      60.7183     176.3079        28     2.295     1.059 -27.64   0
       342    421.1237    329.6730 307.7593103  +6.5445647     14936.71     34421.12     40778.09       86.621     172.5597     344.5035      2.484     6.58     1051.426      60.7183     1546.652        73     2.357     1.451 -25.75   0
       343    528.6342    328.2946 307.7146764  +6.5487361     669.9399     1531.011     1694.824      86.4847      172.149      344.572      2.668     7.49     1049.026      60.7183     80.92542         8     1.523     1.033 -12.17   0
       344    510.2778    320.0611 307.7225819  +6.5515211     5161.879     11706.71     13359.86      86.4847     172.3544      344.435      2.403     6.87     1047.902      60.7183     569.8816        54     2.262     1.335 -28.07   0
       345    398.4428    322.1737 307.7689885  +6.5469009     579.1202     1283.483     2563.099     85.93732      172.286     344.3665      4.019     5.92     1051.827      60.7183     106.0454         7     1.122     0.878 -83.93   0
       346    815.8199    321.3979 307.5955527  +6.5611867     637.7452     1234.994     1389.191     85.93732     171.8746     344.1951      2.079     4.60     1045.522      60.7183     80.49512         5     0.835     0.721  67.02   0
       347    779.4048    318.8488 307.6107726  +6.5610232     1926.563     4218.941     5688.445     85.66232     172.0804     344.1266      2.464     6.81     1046.769      60.7183      221.177        27     1.874     1.023 -18.59   0
       348    934.2827    318.3486 307.5464200  +6.5663988     551.7754     1091.591     1389.882     86.34818      172.286     344.5377      1.814     3.45     1039.896      60.7183     136.8281         5     1.535     0.224 -16.08   0
       349    173.8562    310.8142 307.8627054  +6.5440520     752.2114     1430.585     1701.004     85.66232      172.149     344.1609      1.880     5.30     1063.518      60.7183     105.0613         7     1.277     0.621 -80.65   0
       350    400.1622    304.2451 307.7688773  +6.5543615     4382.668     10117.32      11817.6     86.07449     172.2175     344.3665      2.447     6.56      1050.59      60.7183     455.9414        52     2.248     1.340 -26.59   0
       351    255.3641    305.6962 307.8290049  +6.5489035     1061.932     2147.221     2560.875      86.4847      172.149     344.6404      2.208     5.71     1058.312      60.7183     137.7435         9     1.080     0.850  77.32   3
       352    257.6644    304.3475 307.8280943  +6.5495376     995.2294     1981.338     2361.941     86.34818     172.2175      344.435      2.259     6.50     1057.982      60.7183     123.6399        13     1.370     1.219  73.71   2
       353    767.9792    300.0622 307.6161511  +6.5683990     33102.89     72661.91     83519.85     85.93732      172.286     344.3322      2.329     6.47     1045.549      60.7183     3782.879        83     2.334     1.312 -26.19   0
       354    439.6918    299.6672 307.7526030  +6.5575770     1376.785     3127.857     3504.641     86.21144     172.4229     344.5035      2.389     8.43     1047.675      60.7183     166.8315        25     1.989     0.997 -27.10   0
       355   1003.0101    297.1828 307.5185636  +6.5774298     1088.485      2440.45     2830.933     86.07449     172.0119     344.3322      2.155     7.50     1033.039      60.7183     168.5861        20     1.889     0.934 -22.01   0
       356    943.6949    296.1596 307.5432508  +6.5758751     1510.009     2875.933     3042.118     86.34818     172.2175      344.572      2.022     7.61     1037.792      60.7183     200.7797        22     1.949     0.831 -29.64   0
       357    586.4637    296.9769 307.6916946  +6.5636037     673.5439     1255.267      942.483     85.93732      172.286     344.3322      1.966     5.33     1044.424      60.7183     93.74902         8     1.322     0.607 -15.34   0
       358    426.3994    295.1830 307.7582782  +6.5589830     1261.528     2705.985     3381.894     85.93732      171.806     344.1266      2.322     7.99     1048.132      60.7183     135.5254        21     1.606     1.110 -18.91   0
       359    477.1021    296.0226 307.7371779  +6.5603356     657.6689     1257.261     1943.893     86.34818     172.0119     344.2979      2.062     5.64     1044.711      60.7183      93.1322         7     1.340     0.669 -14.44   0
       360    847.8144    289.6606 307.5833187  +6.5753599     722.4983     1732.994     1836.564     85.79993      172.149     344.1951      2.648     6.44     1042.868      60.7183     96.97156         9     1.707     0.682 -29.15   0
       361    202.6881    286.8769 307.8515306  +6.5549047     1346.653     3256.421     3421.571     86.34818      172.628     344.5377      2.496     9.23     1060.794      60.7183     181.1477        30     2.118     1.141 -29.31   0
       362    457.0999    286.8184 307.7458003  +6.5634659     820.0402     1477.149     1564.314     86.34818      172.149     344.2294      1.982     4.86     1045.069      60.7183     117.8898         6     1.138     0.588 -25.39   0
       363    766.5857    284.5498 307.6172504  +6.5747579     3830.802     8294.892     9694.454     85.66232      172.286     344.1609      2.322     6.90      1044.24      60.7183      437.774        42     2.181     1.122 -24.00   0
       364     99.5850    284.3585 307.8944634  +6.5524786     687.6806     1391.604     1642.708     85.79993     172.0804     344.1951      2.574     6.24     1067.088      60.7183     110.0742         9     1.426     0.768  -3.01   0
       365    782.8697    282.6714 307.6105454  +6.5760775     1751.963     3775.034     4228.488     86.34818     172.4229     344.4007      2.275     8.67      1043.94      60.7183     222.8616        29     2.040     1.029 -25.03   0
       366    485.9271    281.8005 307.7339884  +6.5665038      513.453     744.3806     1288.807     85.52448     171.6686     344.2979      1.595     4.14     1042.806      60.7183     101.2505         5     1.043     0.494 -34.05   0
       367    373.3712    277.2504 307.7809201  +6.5646095     984.2061     2619.418     2824.776     85.93732     172.4229     344.3665      2.648     6.99     1050.852      60.7183       135.11        13     1.415     0.969  -0.41   2
       368     85.8529    278.0816 307.9003820  +6.5546084     778.9057     1400.321     1681.466     86.34818      172.286     344.5377      1.899     6.72       1067.3      60.7183     107.8336        12     1.426     0.889  -5.10   0
       369   1020.8328    273.5659 307.5119459  +6.5877758      3922.53     8373.576     9398.141     85.93732     170.7729     304.2029      2.160     7.31     1030.816      60.7183     571.0266        36     2.068     1.004 -22.69  24
       370    499.4164    273.2254 307.7286704  +6.5704965     1199.506     2846.946     3175.533     86.07449      172.149     344.4007      2.525     7.39     1042.034      60.7183     168.1077        24     1.906     1.090 -38.87   0
       371    261.7053    269.1048 307.8276026  +6.5642253     3392.488     7791.789     9698.319     86.34818     172.9694     344.3665      2.528     6.97     1056.572      60.7183     350.4132        44     2.145     1.310 -24.91   0
       372    398.3318    259.3810 307.7711479  +6.5728251     739.9822     1686.668     2055.254     85.93732      172.149     344.4007      2.393     7.97     1047.479      60.7183     117.4712        12     1.694     1.048 -68.40   2
       373    983.7276    258.7594 307.5278636  +6.5926532      720.843     1146.541     1554.488     86.21144      172.286     344.5377      1.654     3.75     1032.948      60.7183     110.6029         5     0.963     0.421  -5.04   0
       374    318.3972    257.4080 307.8044356  +6.5709582     531.9988     926.7037     671.8638     85.66232     171.9433     344.2979      1.454     3.89     1052.955      60.7183     71.74646         5     1.039     0.418  74.47   0
       375    165.6447    255.9080 307.8679699  +6.5664471     1021.577     2290.572     2459.389     86.34818     172.2175     344.6062      2.212     8.55     1061.394      60.7183     135.9536        20     1.919     1.133 -28.04   0
       376    576.5703    250.9240 307.6973535  +6.5822886     1296.947     2758.794     3336.809     86.21144     172.3544     344.5035      2.365     6.52     1040.325      60.7183     164.4332        16     1.390     1.288  22.09   2
       377    918.8718    250.5482 307.5550950  +6.5938813     1085.703      2527.99     3377.614     86.21144      172.286     344.5035      2.591     7.35     1035.962      60.7183     154.8226        17     2.026     0.746 -21.52   0
       378    738.8116    248.8188 307.6299924  +6.5885840     3201.988     6718.542     7731.578     85.93732     171.9433     344.3665      2.259     6.51     1041.259      60.7183     355.1027        38     2.118     1.106 -22.37   0
       379    680.3336    248.8267 307.6542973  +6.5866260     1373.936     2722.082     2801.337     85.93732      172.149     344.3665      2.028     5.73     1041.221      60.7183     168.7417        17     1.426     0.886 -32.50   2
       380    935.5417    241.2055 307.5484791  +6.5982952     673.9067     1274.113     1580.976     85.79993      172.149     344.1609      1.860     3.50      1034.26      60.7183     100.1331         5     0.772     0.458 -71.53   0
       381    237.3760    235.3518 307.8388516  +6.5773451     1163.052     2263.199     2327.533     85.93732      172.286     344.3665      1.976     7.12      1057.74      60.7183      150.168        14     1.407     1.176  87.73   3
       382    240.7619    233.4067 307.8375099  +6.5782620     1037.908     1482.299     1475.143     85.52449     172.0119     344.1951      1.552     3.93     1057.477      60.7183     136.5713        10     0.999     0.780 -28.76   3
       383    771.0399    232.5689 307.6171421  +6.5963707     982.8671      2382.76     2445.205     85.93732     172.0804     344.2979      2.212     8.44      1038.97      60.7183     133.6832        21     1.856     1.072  -5.20   0
       384    882.1547    232.5538 307.5709587  +6.6000868     1090.278     1928.549     2557.598     86.34818     172.2175     344.4692      2.156     5.70     1036.566      60.7183     130.4756        11     1.178     0.776 -58.95   0
       385    472.5770    223.7637 307.7414886  +6.5900207     13085.62     30335.25      37668.3     85.93732     172.0119     344.2294      2.566     7.05     1038.683      60.7183      1371.47        87     2.820     1.453 -33.95   0
       386    798.2006    223.0521 307.6061721  +6.6012077     8131.681      18672.8     22026.29     85.52448      171.806     343.9894      2.390     7.16     1037.194      60.7183     965.7197        56     2.291     1.222 -26.19   0
       387    160.7959    217.3936 307.8712843  +6.5821868     1409.432     3436.489     4460.107     85.66232     171.9433     344.3322      2.625     8.88     1059.759      60.7183     171.9644        26     1.973     1.176 -28.75   0
       388    135.6126    217.0640 307.8817617  +6.5814762     658.0216     1348.754     1931.398     85.79993     172.0804     344.2979      2.154     5.22     1061.608      60.7183     82.39746         7     1.452     0.530 -22.71   0
       389    934.3926    213.8658 307.5498720  +6.6095461     957.6406     2187.482     2543.333     85.79993     172.0119     344.2979      2.469     7.21     1032.578      60.7183     123.2941        17     1.957     0.743 -16.13   0
       390    317.0289    210.9734 307.8065683  +6.5900855     657.1053      1419.43     1077.027     85.79993     172.0804     344.3322      2.101     5.63     1051.663      60.7183     113.9457         7     1.691     0.529 -35.56   0
       391    596.4472    209.6440 307.6904788  +6.5999991     2841.697     6234.703     6956.902     86.34818     172.2175      344.435      2.375     6.58     1037.761      60.7183     344.5486        41     2.076     1.256 -26.33   0
       392      1.3192    209.8297 307.9378183  +6.5799446     1091.319     1502.185     1373.638     74.77972      136.442     258.9079      1.281     4.29     1070.305      60.7183     242.3495         8     1.165     0.563 -78.87  24
       393    400.7580    209.5950 307.7718150  +6.5934637     772.3329     1639.209     1690.666     85.66232     171.9433     344.1609      2.162     5.33     1043.501      60.7183     110.5481         6     1.111     0.721  49.48   0
       394    957.1638    206.8920 307.5406405  +6.6131851     1751.257     3599.115      3746.59      86.4847      172.149     344.5035      2.153     6.77     1031.784      60.7183     235.9435        25     1.937     0.868 -28.66   0
       395    903.3251    206.2319 307.5630409  +6.6116620     7395.927     15448.72     17539.46     86.21144     172.3544      344.435      2.197     6.91     1033.599      60.7183     959.7269        48     2.160     1.095 -25.62   0
       396    989.9855    204.0195 307.5270941  +6.6154654     6475.704     13678.34     14902.62     85.93732     172.0119     344.3665      2.230     7.46     1030.977      60.7183      866.127        46     2.141     1.112 -23.99   0
       397    701.1740    204.1168 307.6471357  +6.6057844     1614.756     4032.104     5182.064     86.21144     172.0119     344.4007      2.705     7.27      1038.32      60.7183     204.3143        30     1.857     1.338 -25.43   0
       398    559.2044    209.8846 307.7059502  +6.5986531       1310.4     2759.842     3204.567     85.79993     171.8746     344.0923      2.237     7.82     1037.216      60.7183     152.8762        24     1.983     1.032 -23.60   0
       399     29.6169    202.9561 307.9262901  +6.5837354     15136.11      35097.1     41573.05     85.79993      172.149     344.2294      2.434     6.44     1068.498      60.7183     1721.559        75     2.367     1.417 -27.85   0
       400    509.9627    199.4994 307.7267659  +6.6012923      1205.75     2634.534     3107.059     86.34818      172.149     344.7089      2.507     6.71     1036.658      60.7183     173.7725        20     1.658     1.107 -26.45   0
       401    841.5889    196.0478 307.5890429  +6.6138071     1131.038     2898.594     3666.658     85.79993      172.149     344.1266      2.571     8.32     1034.965      60.7183     140.5448        24     2.339     0.827 -31.64   0
       402    894.1894    194.7483 307.5672228  +6.6160991     1310.162     2745.687     3161.948     85.66232      172.149     344.1951      2.158     7.56     1033.359      60.7183     175.5316        22     1.996     0.801 -21.57   0
       403    753.5439    192.2024 307.6257680  +6.6124544     24230.17     54516.23      62198.6     85.66232     172.0119     344.1266      2.360     6.81     1036.901      60.7183     2710.945        76     2.321     1.328 -26.22   0
       404    522.4756    194.9564 307.7217178  +6.6035873     1732.471     3303.236     3811.073     86.21144     172.3544     344.5035      2.031     6.63     1036.276      60.7183     196.0858        27     1.827     1.105 -26.42   0
       405    356.6265    191.7155 307.7907592  +6.5993660     3757.458     10087.41     12767.78      86.4847     172.0119     344.3322      2.804     7.41     1046.306      60.7183     359.6337        70     2.456     1.720 -42.81   0
       406   1023.4705    190.7374 307.5136201  +6.6220658      827.922     1089.627     969.1491     77.87108     140.1949     262.7973      1.243     3.83      1029.93      60.7183     140.2196         8     1.007     0.681  85.51  24
       407    987.0698    191.0981 307.5287384  +6.6207038     1897.124     3788.373     4066.855     86.21144     172.4913     344.4692      2.135     6.42     1030.601      60.7183     320.3525        25     1.910     0.884 -24.09   0
       408    921.3802    189.3066 307.5561029  +6.6192532     4834.352     10386.44     11157.29     86.21144     172.0804     344.2979      2.205     6.70     1031.914      60.7183     607.8621        43     2.181     1.088 -22.79   0
       409    465.1457    188.4199 307.7457660  +6.6043656     2951.146     6711.401     7731.418     85.79993      172.286     344.2637      2.328     6.79     1037.497      60.7183     316.1747        41     2.168     1.218 -29.42   0
       410    122.4248    179.9442 307.8884954  +6.5963596     3008.141     6768.152      8119.25     85.93732      172.286     344.2637      2.360     6.95     1061.692      60.7183     341.5336        42     2.140     1.269 -27.80   0
       411    292.6596    176.5096 307.8178578  +6.6034979     19702.08     45143.75     54394.45     86.21144      172.286      344.572      2.495     6.68     1054.521      60.7183      2137.35        86     2.433     1.477 -28.11   0
       412    268.0634    177.5268 307.8280464  +6.6022520     3958.322     8830.441     10247.22     86.34818      172.286     344.4692      2.403     6.24     1056.119      60.7183     447.1541        49     2.179     1.356 -26.17   0
       413    941.4226    179.4636 307.5481016  +6.6239860     590.4543     1307.535     1408.635     85.93732      172.286     344.3322      1.975     4.78     1030.958      60.7183     88.40186         7     1.731     0.375 -20.74   0
       414    722.1463    175.4897 307.6393791  +6.6183061     431.4014     1129.807     1219.373     86.34818     172.0804     344.6062      2.213     5.92       1036.8      60.7183     80.21655         6     2.146     0.460 -53.04   0
       415    416.6949    171.9562 307.7664579  +6.6095395     28870.33     66964.06     80292.27     86.34818     172.2175     344.6062      2.487     6.71     1038.979      60.7183     3070.875        91     2.424     1.495 -27.11   0
       416    172.9332    173.2504 307.8677290  +6.6008217     2431.765     5354.956      6584.91     86.21144      172.149      344.435      2.359     7.06     1058.715      60.7183     276.1631        36     2.183     1.087 -33.85   0
       417    436.0011    172.1812 307.7584259  +6.6100939     782.4569     1480.109     1524.128     85.93732      171.806     344.1609      1.720     4.83     1038.067      60.7183     96.84778         7     1.201     0.550 -70.07   2
       418    755.9772    168.1065 307.6255648  +6.6224854     20146.31     44716.91     51425.79     86.34818     172.0804     344.2979      2.350     6.70     1035.518      60.7183     2398.445        75     2.328     1.320 -27.21   0
       419    321.4258    169.6416 307.8061331  +6.6072994      10736.4     24142.26     31774.68     85.93732     172.2175     344.2979      2.708     7.35     1050.383      60.7183      1043.54        99     3.108     1.590 -13.30   0
       420    805.6268    168.1897 307.6049246  +6.6241095     765.9441     1633.421     2050.843     85.93732     172.0804     344.3322      2.314     5.16     1033.693      60.7183      106.632         9     1.202     0.626  -4.71   0
       421     72.8994    165.5430 307.9095651  +6.6006399     5362.592     12137.05     14221.66     86.07449      172.286     344.7089      2.379     6.60     1065.009      60.7183      607.251        57     2.350     1.294 -27.23   0
       422    106.7720    163.7637 307.8955471  +6.6025141     880.5627     1899.359     2230.763     85.93732     172.0119     344.2637      2.102     6.44     1062.299      60.7183          116        13     1.692     0.687 -26.63   0
       423   1015.8696    162.1571 307.5177356  +6.6336141     731.0465     890.3915     991.9128     86.21144      172.286     344.5377      1.373     4.86     1029.228      60.7183     107.0797         7     1.033     0.647 -57.16   0
       424   1015.6434    148.5716 307.5182841  +6.6392163      1500.29     3039.003     3784.553     85.93732     172.3544     344.3665      2.171     7.36     1027.978      60.7183     206.0094        22     2.030     0.777 -28.26  16
       425    606.7471    144.8503 307.6883742  +6.6270982     1339.758     2817.045     4104.487      86.4847      172.149     344.5035      3.421     7.46     1035.191      60.7183      181.792        19     1.855     0.864 -27.05   0
       426    291.5468    142.7708 307.8194572  +6.6173915      17702.8     41230.57     49558.26     86.07449     172.4229     344.3665      2.507     6.80     1054.748      60.7183     1811.877        87     2.475     1.481 -26.25   0
       427    351.5990    144.8339 307.7944275  +6.6185552     555.1254      1168.04     1010.808     85.38643     172.0804     344.1951      2.042     5.23     1045.339      60.7183     78.75769         5     1.419     0.545 -50.73   0
       428     36.9312    141.2854 307.9253335  +6.6094453     2681.599     6139.106     7125.676      86.4847     172.5597     344.5035      2.395     6.72     1067.139      60.7183     306.2784        41     2.226     1.170 -29.73   0
       429    723.1735    139.3611 307.6401643  +6.6332586     4893.888     10665.77     12602.06     85.93732     172.0804     344.2979      2.300     7.06      1034.75      60.7183     569.1598        48     2.259     1.146 -26.67   0
       430    200.2542    140.5114 307.8574780  +6.6152579     799.1008     1383.799     1444.487     86.34818      172.149     344.6062      1.884     4.91     1058.333      60.7183     100.2395         8     1.125     0.607 -80.55   0
       431    134.0453    136.5800 307.8851292  +6.6146555     2783.005     6600.747     7951.397     85.93732      172.149     344.2979      2.525     6.94     1060.037      60.7183     340.8582        46     2.308     1.259 -25.42   0
       432    404.6882    132.5961 307.7727731  +6.6253891     2240.149      5459.24     6691.275     85.79993     171.9433     344.1266      2.525     7.64     1038.975      60.7183     230.5846        41     2.160     1.298 -31.67   0
       433    473.4637    133.9150 307.7441420  +6.6271501     848.7225     1302.541     819.2596      86.4847     172.4229     344.4692      1.788     6.05     1035.026      60.7183     102.9114        11     1.417     0.727 -25.60   0
       434    369.2933    131.3941 307.7875255  +6.6246982     1847.618     4241.575     4753.332     85.93732     171.9433     344.2637      2.425     7.99     1043.263      60.7183     249.8507        37     2.282     1.179 -33.62   0
       435    123.7661    131.4539 307.8895745  +6.6164263     1050.808     2271.412     2977.614     86.21144      172.286      344.435      2.342     6.76     1060.461      60.7183     131.8175        14     1.565     0.819 -33.66   0
       436   1015.8018    125.1548 307.5190017  +6.6488910     1013.581     2107.155     2050.295     85.66232     171.8746      344.058      2.043     7.34     1025.535      60.7183     166.3175        16     1.932     0.780 -26.69  16
       437    221.0533    120.4485 307.8495097  +6.6242409     3322.925     7307.457     8174.867      86.4847      172.286     344.4692      2.330     6.31     1058.156      60.7183     355.8655        46     2.214     1.267 -25.84   0
       438    104.0606    120.3775 307.8981387  +6.6203370     1231.406     2866.315     3258.754     85.93732     172.2175     344.3665      2.712     8.13     1061.147      60.7183     149.5278        24     2.075     0.890 -35.10   0
       439    682.7009    119.1820 307.6576648  +6.6402378     3691.439     7992.988     8825.887     86.34818      172.149     344.1951      2.332     6.61     1034.183      60.7183     411.7817        42     2.236     1.094 -28.68   0
       440    827.9374    119.8637 307.5972707  +6.6448093     523.4803     797.8452     934.5093     86.34818      172.286     344.5035      1.807     5.48     1029.711      60.7183     75.47839         6     1.090     0.777 -69.90   0
       441    634.9155    116.4913 307.6776181  +6.6397506     5639.945     12637.42     15260.69     86.07449      172.628      344.572      2.424     6.66     1034.125      60.7183     585.5162        55     2.381     1.287 -29.05   3
       442    638.4568    107.8537 307.6764362  +6.6434356     32241.72     71556.82     84272.12      86.4847      172.286     344.4692      2.406     6.57     1033.735      60.7183     3543.326        86     2.387     1.384 -27.28   3
       443    362.0905    112.1739 307.7911666  +6.6323927     2270.508     5253.417     7180.321      86.4847     172.0119     344.2979      2.551     7.99     1044.053      60.7183     233.3285        43     2.373     1.214 -33.43   0
       444    544.0524    111.7215 307.7155473  +6.6386787     886.3521     1892.709     1628.935     86.34818      172.286     344.4692      2.243     8.37     1033.213      60.7183     107.4553        16     1.688     1.161 -24.33   0
       445    317.6071    101.7122 307.8100087  +6.6352197     2065.578     4803.903     6237.382     85.79993     171.9433     344.1951      2.585     8.44     1050.671      60.7183     249.0767        36     2.251     1.128 -30.74   0
       446    227.2921   1021.2402 307.8165648  +6.2525042     1670.818     3144.901     2859.477      86.4847      168.057     298.6847      1.953     7.00      1086.45      60.7183     222.7966        23     1.789     0.829 -28.54  16
       447    689.0586     94.8640 307.6558383  +6.6504918     873.6146     1423.893     2101.679      86.4847     172.2175     344.5035      1.816     5.04     1032.616      60.7183     111.0337         8     1.083     0.664  53.66   0
       448    703.0161     91.8829 307.6501366  +6.6521893     2015.426     4260.126     4921.988     85.93732     171.9433     344.3665      2.305     7.53     1032.151      60.7183     232.6604        31     2.119     1.006 -25.59   0
       449    444.5591     82.9065 307.7578726  +6.6472432     2578.049     5580.889     6271.241      86.4847     172.2175      344.572      2.335     6.61     1035.571      60.7183     271.9303        37     2.121     1.152 -24.18   0
       450    917.0493     78.2336 307.5616229  +6.6649733     2528.555     5476.542     5772.621     86.21144      172.286     344.4007      2.201     7.56     1025.281      60.7183     361.8037        31     1.974     1.033 -24.00   0
       451    898.8788     79.2053 307.5691437  +6.6639658     1495.684     2912.577     2606.278     85.93732     171.7373     344.2294      2.008     6.91     1025.458      60.7183     198.9983        20     1.824     0.818 -23.09   0
       452    610.0634     76.8252 307.6892809  +6.6552977     1092.712     2160.375     2440.097     85.93732      172.286     344.3665      2.075     6.13     1032.633      60.7183     144.4572        14     1.449     0.728 -24.14   0
       453    408.2623     74.8034 307.7732328  +6.6493721      1195.64     2550.784     2556.167     85.66232     172.0119     344.1951      2.198     8.06     1038.425      60.7183     136.3605        20     1.913     0.950 -35.21   0
       454    156.1282     71.8069 307.8781365  +6.6421428     2013.973     4229.533      4958.34     85.79993      171.806     344.4007      2.425     6.68     1058.532      60.7183     236.4331        33     2.224     1.033 -23.69   0
       455    304.3241     70.6816 307.8165754  +6.6475864     835.1124     1621.222     2132.066       86.621     172.5597      344.572      2.291     5.00     1052.833      60.7183     124.9252         9     1.581     0.447 -39.29   0
       456     37.7363     69.5679 307.9274216  +6.6390842     7659.929     17622.26     21248.66     86.07449     172.3544      344.435      2.457     6.64     1063.499      60.7183     838.0515        62     2.333     1.355 -25.98   0
       457    784.6227     64.4738 307.6171332  +6.6662343     2213.071     4700.545     5487.682     85.93732     172.0804      344.435      2.369     7.15     1027.522      60.7183     280.9652        34     2.212     0.998 -27.25   0
       458    839.5747     63.9319 307.5943080  +6.6682932     4060.599     8545.518     9836.193     85.93732      172.149     344.3665      2.216     6.28     1025.898      60.7183     502.1002        37     2.016     1.101 -24.27   0
       459    548.1185     62.5661 307.7155095  +6.6591118      767.125     1472.411     1983.557     86.21144      172.286     344.4692      2.152     4.10     1032.336      60.7183     110.9026         6     0.734     0.654  47.05   0
       460     78.3689     61.3663 307.9108098  +6.6438382     2029.389      4322.25     5378.885     85.79993     172.0119     344.1951      2.260     7.84     1061.242      60.7183     245.3517        31     2.083     1.058 -31.26   0
       461     20.3858     57.1849 307.9350517  +6.6436129     1500.247     3706.743      6373.34     86.07449     171.9433     344.4007      3.878    10.40     1063.338      60.7183      179.498        36     2.417     1.254 -22.49   2
       462    439.1832     60.8227 307.7608504  +6.6561816     574.7119     1348.578     1611.461     85.93732      172.149     344.4007      2.237     3.94     1036.162      60.7183     91.13342         5     1.372     0.325 -57.47   0
       463    602.2811     57.9724 307.6931493  +6.6628218     778.8825     1739.426     1559.502     86.21144     172.0804      344.435      2.280     5.93      1032.01      60.7183     155.2073         9     1.913     0.517 -38.45   0
       464    779.4194     51.7877 307.6197216  +6.6712988     1311.376     2705.815     2695.356     86.07449     172.0119     344.3665      2.135     7.24     1026.845      60.7183     185.0989        19     2.148     0.684 -27.02   0
       465    105.8713     45.6635 307.8999085  +6.6512471      5697.15     12814.52     14842.56     86.34818      172.286     344.5377      2.376     6.66     1060.049      60.7183     644.4674        56     2.219     1.388 -28.28   0
       466    434.7079     45.5283 307.7632254  +6.6623467     1499.446     3311.421     3560.386     86.21144     172.4913     344.4692      2.494     8.86     1036.602      60.7183     176.8271        29     2.126     1.031 -20.49   0
       467    272.8688     39.9851 307.8306849  +6.6592049     1006.255     2089.617     3514.131     85.79993      172.149     344.3665      3.257     6.70     1055.219      60.7183     143.2767        15     1.829     0.688 -42.43   0
       468    648.5795     37.6439 307.6745862  +6.6727649     11291.55     25192.62     29354.77     85.79993      172.149     344.2979      2.378     6.70      1030.32      60.7183       1248.7        64     2.331     1.285 -27.02   0
       469    548.6440     33.6051 307.7162646  +6.6710877     3293.041     7050.549     7966.962     85.66232     171.9433     344.0923      2.358     6.54     1031.677      60.7183     376.7405        41     2.237     1.151 -31.47   0
       470    266.5483     34.4795 307.8334978  +6.6612660     1003.585     2170.525     3827.142     86.34818      172.286     344.4692      2.387     4.94     1055.257      60.7183     156.6016         9     1.516     0.455 -20.14   3
       471    274.5515     29.8233 307.8303280  +6.6634573      5605.43     12722.01      16039.3     85.93732      172.286     344.3665      2.591     6.90      1055.06      60.7183     629.4596        68     2.887     1.360 -27.58   2
       472    453.9487     29.2741 307.7557742  +6.6697032     13515.27     30486.82     35683.29     86.34818     172.3544     344.5035      2.415     6.50     1035.478      60.7183     1439.322        74     2.394     1.396 -25.39   0
       473     40.0575     29.3813 307.9278145  +6.6557552     1477.377     3152.661     3105.178     85.93732     172.2175     344.2637      2.188     8.41     1060.822      60.7183     177.2063        29     2.097     1.051 -27.88   0
       474    931.6063     29.3432 307.5572088  +6.6856467     1333.225     2595.588     2758.846     85.79993      172.149     344.1609      2.049     7.53     1023.389      60.7183     204.0245        20     1.810     0.876 -24.27   0
       475    634.7069     27.4702 307.6806947  +6.6765016     1844.482     4210.205     5634.464     86.34818     172.4229     344.4692      2.565     7.58     1030.182      60.7183     216.8108        33     2.168     1.095 -27.38   0
       476    262.5113     26.6462 307.8354399  +6.6643647      1883.94     4031.219     5026.459     86.34818      172.149      344.572      2.381     7.44     1055.216      60.7183      222.839        34     2.082     1.138 -30.41   0
       477    952.0978     20.2199 307.5489957  +6.6900972     628.6699     1135.067      867.356     86.21144     172.0804     344.1951      2.099     5.20     1020.736      60.7183     98.12329         8     1.630     0.469 -18.54   0
       478    703.8897     18.9288 307.6522220  +6.6823424     1331.765     2823.913     3304.396     86.21144     172.5597     344.4692      2.271     7.28     1026.933      60.7183     159.2308        22     1.778     0.961 -31.87   0
       479    993.8453   1020.5214 307.4981881  +6.2784349     655.4906      678.606     710.3357     86.34818      172.286      308.707      1.271     4.78     1067.591      60.7183     87.36365         6     0.925     0.700  74.73  16
       480      5.3247     12.5158 307.9428215  +6.6615493     623.3521     1152.988      1251.91      86.4847      172.628     319.2651      1.954     5.00     1059.609      60.7183     93.23816         6     0.970     0.730 -27.50  16
       481    730.5499   1018.2074 307.6076332  +6.2706073     5439.075      10701.2      11980.5     85.79993     172.0119     334.1427      2.075     7.52     1075.577      60.7183     813.0175        36     2.118     0.892 -25.38  16
       482    445.4068   1018.5254 307.7260617  +6.2609386     2818.301     5963.098     6921.419     85.93732      171.806     331.3773      2.159     7.53     1080.809      60.7183     424.3341        30     2.053     0.914 -25.80  16
       483    722.8735   1017.4274 307.6108479  +6.2706730     964.2891     1881.087     2459.478     86.07449     172.2175     340.3346      2.152     6.72     1075.681      60.7183     135.3832        13     1.619     0.783 -22.97  16
       484    584.3519   1018.3051 307.6683564  +6.2656803     1967.429     3049.131     4183.734     86.21144      172.149     333.7188      1.713     3.99     1080.158      60.7183     320.6611        13     1.222     0.853 -49.16  19
       485    587.5251   1017.0024 307.6670820  +6.2663243     2986.167     5096.702     6665.267     85.79993     171.7373      342.787      1.886     3.99     1080.111      60.7183     427.1344        18     1.420     0.826 -48.26  19
       486    763.7690   1013.2016 307.5940025  +6.2737837      911.524     1683.842     2524.087     85.66232     172.0804     344.2294      2.448     3.48     1073.783      60.7183     143.1469         9     0.999     0.611 -31.34   2
