#   1 NUMBER                 Running object number                                     
#   2 X_IMAGE                Object position along x                                    [pixel]
#   3 Y_IMAGE                Object position along y                                    [pixel]
#   4 ALPHA_J2000            Right ascension of barycenter (J2000)                      [deg]
#   5 DELTA_J2000            Declination of barycenter (J2000)                          [deg]
#   6 FLUX_APER              Flux vector within fixed circular aperture(s)              [count]
#   9 FLUXERR_APER           RMS error vector for aperture flux(es)                     [count]
#  12 FLUX_RADIUS            Fraction-of-light radii                                    [pixel]
#  13 FWHM_IMAGE             FWHM assuming a gaussian core                              [pixel]
#  14 BACKGROUND             Background at centroid position                            [count]
#  15 THRESHOLD              Detection threshold above background                       [count]
#  16 FLUX_MAX               Peak flux above background                                 [count]
#  17 ISOAREA_IMAGE          Isophotal area above Analysis threshold                    [pixel**2]
#  18 A_IMAGE                Profile RMS along major axis                               [pixel]
#  19 B_IMAGE                Profile RMS along minor axis                               [pixel]
#  20 THETA_IMAGE            Position angle (CCW/x)                                     [deg]
#  21 FLAGS                  Extraction flags                                          
         1    590.0557     25.5375 307.6802232  +6.6764054     2271.449     5179.299     6712.183     84.76347     168.8571     337.6136      2.682     6.56     986.3374     59.50988     307.4688        39     1.914     1.729 -43.04   0
         2    169.6003     12.2982 307.8553572  +6.6678251     654.6076     1309.146     1056.519     84.09233      168.454     337.2105      1.975     5.18     1011.594     59.50988     117.4184         7     1.583     0.478 -18.68   0
         3    147.1893      9.1541 307.8647735  +6.6683734     7962.932     15489.58     16945.78     84.09232     168.7228     337.2777      2.070     5.86     1011.725     59.50988     1017.419        47     2.094     1.062 -23.61  16
         4    490.9831      7.4206 307.7219905  +6.6805851     2198.219     4177.769     4185.546     84.36142     168.6557     332.5745      1.982     5.92     988.1492     59.50988     301.9594        28     2.005     0.869 -26.23  16
         5    892.7336      6.9085 307.5550785  +6.6941780     3151.145     5886.887     6437.191     84.62966     169.0583     328.7704      1.945     6.92     976.8481     59.50988     457.4396        25     1.948     0.747 -25.94  16
         6    429.5220      5.8221 307.7475804  +6.6791935     1415.573     2710.579     2874.301     84.22698     168.6557     318.5819      1.982     6.63     992.3237     59.50988     173.9658        18     1.803     0.683 -25.15  16
         7    693.3738      5.4651 307.6379622  +6.6881412     1535.871     2893.432     2829.167     84.22698       168.79     314.4285      1.894     6.71     982.7899     59.50988     205.8895        19     1.737     0.734 -23.79  16
         8    957.2793      2.9456 307.5283902  +6.6979599     1637.815     3146.499     3291.418     84.76347     156.9617     280.6848      2.022     6.89     973.9249     59.50988     231.1312        26     1.892     0.979 -24.25  24
         9    753.3857      2.6075 307.6131218  +6.6913200     374.9947     420.6395     371.3809     84.22698     152.5683     275.3038      1.241     4.94     980.9151     59.50988     69.97626         5     1.167     0.593 -31.65  16
        10    675.2714      1.2133 307.6456252  +6.6892948     2218.259     2606.514     2661.508     71.72854     132.1923     251.9173      1.173     3.73     983.1231     59.50988     576.9863         9     1.248     0.401  -3.95  24
        11    209.3293   1005.4711 307.8056984  +6.2588379     1197.195      1994.96     2406.212     84.62966     168.9913     337.5464      1.887     6.49     1035.032     59.50988     184.4641        16     1.819     0.650 -28.72   0
        12    761.7929   1023.0776 307.5757535  +6.2699905     5497.146     8636.734      8997.07     80.23027     142.7443     264.0844      1.605     6.66     1026.133     59.50988     895.9517        24     1.754     0.709 -18.23  24
        13    552.8388   1023.9462 307.6624747  +6.2626740     8553.229      10637.5     11455.42     69.80689     129.7697     249.1127      1.157     3.37     1031.511     59.50988     2951.332        14     1.704     0.320  -3.38  27
        14    552.3378   1019.3104 307.6628368  +6.2645726        61549     111801.3     122009.8     84.62966     168.9913     317.0844      1.961     7.35     1031.381     59.50988     9609.785        91     2.171     1.030 -25.83  18
        15    407.5080   1004.3621 307.7234613  +6.2659175     777.5722     1109.341     1188.804     84.76347       168.79     337.6807      1.841     5.59     1032.825     59.50988     148.8571         8     1.494     0.590 -21.64   0
        16    700.1130   1002.7554 307.6020354  +6.2763344     825.3898     1445.245     1650.672     84.62966     168.7228     337.6136      1.873     4.86     1026.423     59.50988       148.23         8     1.778     0.376 -24.21   0
        17    331.4316   1000.9368 307.7551589  +6.2647924     1685.623     3164.816     3170.441     84.36142     168.9242       337.58      1.952     6.41     1035.127     59.50988     266.9347        20     1.740     0.844 -26.74   0
        18    484.9959    991.8236 307.6917085  +6.2736833     925.0173     1396.326     910.4138     84.22698     168.5885     337.4457      1.442     4.20     1032.302     59.50988     169.5544        10     1.145     0.610 -31.26   2
        19    718.2538    990.4399 307.5949126  +6.2820262     6814.222        12122     12904.31     84.49565     168.8571     337.6136      1.910     6.54      1025.91     59.50988     1184.135        34     1.980     0.825 -25.80   0
        20    513.6234    991.0051 307.6798506  +6.2749762     3641.761     6553.911     7552.417     84.09232     168.5885     337.4457      1.898     7.23     1031.504     59.50988     538.1021        26     1.894     0.774 -26.77   0
        21    263.9501    989.7092 307.7835482  +6.2671760     12570.81     22857.59     25015.07     84.62966     168.6557     337.8149      1.967     6.42     1035.019     59.50988      1851.56        46     2.198     0.870 -26.31   0
        22    388.0371    990.5148 307.7320058  +6.2709885     853.2477     1482.633     1291.492     84.62966     168.8571     337.6136      1.819     5.67     1033.614     59.50988     151.5121        11     1.751     0.518 -30.13   0
        23    781.0015    989.0831 307.5689061  +6.2846743     813.5731     1339.603     1646.799     83.82236     168.3867     337.3113      1.892     3.50     1024.268     59.50988     157.7549         8     0.962     0.673 -21.97   2
        24    235.4376    987.3187 307.7954650  +6.2672104     726.0781     1368.336     1235.001     84.62966     168.9242     337.5464      1.931     5.97     1035.004     59.50988     115.2416        10     1.544     0.649 -25.96   0
        25    879.4854    983.9205 307.5281885  +6.2900810     7549.399     13739.95     14957.57     84.49565     169.1924     337.7142      1.929     7.15     1022.114     59.50988     1103.491        38     2.036     0.846 -25.47   0
        26    596.0269    986.6080 307.6457853  +6.2795395     412.7057     575.3926     642.8607     84.22698     168.6557     337.4457      1.765     4.29     1028.859     59.50988     82.18896         5     1.608     0.326 -26.92   0
        27    510.8813    983.2562 307.6812467  +6.2780862     7011.746     12617.16     13902.29     84.62966     168.8571     337.6471      1.878     6.29      1031.31     59.50988     1078.597        35     1.966     0.833 -23.52   0
        28    853.0951    980.0649 307.5392731  +6.2907970     10507.84     19417.59     21416.68     84.62966     168.9913     337.6471      1.957     7.04      1022.68     59.50988     1746.468        46     2.109     0.962 -23.32   0
        29    974.8278    979.4785 307.4887506  +6.2950825     4250.198     7892.979     8325.509     84.49565       168.79     337.6136      1.958     6.88     1016.709     59.50988      626.736        29     1.907     0.868 -25.24   0
        30    563.7285    981.2905 307.6593714  +6.2806602     863.4015     1326.527     1569.775     84.49565     169.1254     337.6136      1.345     3.03     1029.727     59.50988     207.6166         6     0.881     0.477 -32.83   3
        31    566.9890    980.2926 307.6580509  +6.2811811     1018.128     1409.705     1635.332     84.36142     168.5212     337.4121      1.497     4.55     1029.596     59.50988     178.0377         8     1.187     0.495 -48.81   3
        32    497.2468    979.0805 307.6870462  +6.2793567     3412.025     6379.122     7213.155     84.62966     168.8571     337.6136      1.957     5.84     1031.539     59.50988     502.8477        29     1.847     0.898 -19.78   0
        33    606.6490    978.5132 307.6416442  +6.2832377     1228.924     2025.068     2234.962     84.62966       168.79     337.6807      1.904     5.97     1028.255     59.50988     220.0923        15     1.857     0.540 -21.73   0
        34     31.6751    977.7938 307.8803745  +6.2643257     688.0699     1142.793     1557.095     84.22698     168.3194     337.4457      1.763     5.58     1037.536     59.50988     121.4103         9     1.626     0.539 -28.44   0
        35    450.3015    975.6187 307.7066516  +6.2792209     1776.697     3316.881     3804.755     84.62966     168.7228     337.3449      2.104     7.04     1032.139     59.50988     276.2557        20     1.915     0.725 -22.72   0
        36    884.8097    967.6299 307.5265176  +6.2969884     37887.55     68158.43     72723.87     84.09232     168.6557     337.4121      1.879     6.29     1020.991     59.50988     6359.823        60     2.035     0.924 -24.40   0
        37    192.5220    965.8077 307.8139991  +6.2746622     1483.021      2632.42      2879.41     84.22698     168.3194     337.3785      2.061     6.63     1034.992     59.50988     244.8645        17     1.779     0.694 -25.51   0
        38     79.1686    964.9466 307.8610869  +6.2712242     583.4386     914.3787     1286.269     84.49565     168.9242     337.5128      1.842     4.52     1036.312     59.50988     105.8119         6     1.401     0.414 -28.64   0
        39    590.2238    964.0751 307.6489433  +6.2886556     722.7297     1241.552     1514.625     84.22698     168.6557     337.5464      2.191     5.23     1028.349     59.50988      122.873         8     1.533     0.503 -34.51   0
        40    731.0518    959.2493 307.5906340  +6.2953386     5701.728     10495.58      11817.5     84.76347     168.7228       337.58      1.976     6.47     1024.584     59.50988     964.2172        36     1.958     0.954 -27.13   0
        41    782.8220    961.4225 307.5690676  +6.2961629     1966.566     3615.418     4002.936     84.36143     168.7228       337.58      1.899     6.03     1023.262     59.50988     368.0844        18     1.899     0.602 -18.38   0
        42    517.1437    958.1592 307.6794813  +6.2886638     725.1827     1427.816     1164.293     84.49565     168.9242     337.6471      1.980     7.55     1030.301     59.50988     149.1442        11     1.533     1.277  35.56   0
        43    200.4738    958.3776 307.8109457  +6.2779979     1405.303     2402.955      2735.74     84.22698     168.6557     337.5464      1.801     6.42     1034.978     59.50988     194.5752        17     1.652     0.701 -24.89   0
        44    164.9140    958.1246 307.8257171  +6.2769128     656.7821     1055.333     1259.467     84.76347     169.1924     337.6807      1.815     5.12     1035.012     59.50988      95.6012         7     1.489     0.497 -18.73   0
        45     25.5736    956.3591 307.8836237  +6.2729767     2474.201     4300.882     4426.254     84.22698     168.6557     337.4457      1.783     6.22     1037.712     59.50988     336.6672        22     1.807     0.725 -24.61   0
        46    919.2579    954.3830 307.5126537  +6.3036058     5930.249     10629.08     11316.72     84.09233       168.79     337.3449      1.897     6.21     1018.705     59.50988     1046.813        33     2.083     0.765 -22.51   0
        47    893.0072    946.0151 307.5238301  +6.3061911     1752.194     2959.264     2888.333     84.22698     168.5885     337.4457      1.752     6.14     1019.451     59.50988     287.3212        18     1.860     0.643 -24.99   0
        48    226.0421    942.2490 307.8008687  +6.2855164     3677.185     6773.101      7309.59     84.62966       168.79       337.58      1.966     7.02      1034.92     59.50988     546.9523        31     2.060     0.831 -26.69   0
        49    752.1597    942.6661 307.5824204  +6.3028923     1157.551     1917.579     1844.461     84.62966       168.79     337.7142      1.865     5.75     1023.419     59.50988     192.1274        12     1.539     0.606 -25.68   0
        50    613.7267    941.8989 307.6399221  +6.2986008     3752.933      6830.69     7204.151     84.22698     168.9913       337.58      1.925     6.24     1026.985     59.50988     581.4092        27     1.902     0.790 -24.13   0
        51    435.7155    940.3330 307.7138816  +6.2933123     1020.657     1842.513     1760.203     84.76347     169.1254     337.6471      1.966     6.68     1031.897     59.50988     163.1958        12     1.900     0.659 -19.08   0
        52    846.6017    938.2701 307.5433542  +6.3078490     753.4656     1142.709     874.7721     84.09233     168.3867     337.4121      1.322     4.63     1020.793     59.50988      155.566         8     1.640     0.371 -58.53   0
        53    260.1799    936.0587 307.7869021  +6.2892152     506.3474     1158.041     1784.962     84.22698     168.7228     337.4121      2.923     4.67     1034.726     59.50988     91.49951         5     1.160     0.533 -57.36   2
        54    916.6585    935.8716 307.5143461  +6.3111676     638.7242     1073.711     1560.788     84.76347     168.8571     337.6136      2.017     4.88      1017.82     59.50988     101.1962         9     1.612     0.419 -22.29   0
        55    969.8777    934.1723 307.4923056  +6.3136368     813.0938     1649.372     2235.373     84.49565       168.79     337.6136      2.597     7.55     1014.856     59.50988     127.2099        12     1.596     1.000 -30.62   0
        56    538.0474    934.4954 307.6715892  +6.2991374      1407.28     2638.111     3326.987     84.49565     168.7228     337.7813      2.020     6.26      1028.95     59.50988     209.3781        18     1.821     0.663 -20.18   0
        57     27.1282    931.7186 307.8838018  +6.2832086     564.4948     824.7218     1561.754     84.89706     169.1924     337.6471      1.729     4.50     1037.721     59.50988     92.59521         6     1.493     0.385 -32.53   0
        58    575.5627    931.5487 307.6561113  +6.3016053     735.9145     972.7712     1119.256     84.36143     168.8571       337.58      1.315     3.03     1027.781     59.50988     132.7142         5     0.746     0.441 -24.14   3
        59    578.6295    930.6522 307.6548678  +6.3020779     810.0691     976.5298      1226.14     84.36143     168.9913     337.5128      1.324     2.45      1027.66     59.50988      152.209         6     0.718     0.581 -38.97   3
        60    257.6094    928.6534 307.7882162  +6.2921888     1197.951     2455.764     2675.704     83.95746       168.79     337.3113      2.136     5.81       1034.7     59.50988     177.5916        14     1.724     0.552 -25.65   0
        61    526.2949    926.4476 307.6767364  +6.3020706     541.1285     868.7704     308.1547     84.49565     168.7228     337.7478      1.464     3.46     1028.997     59.50988      100.771         5     1.027     0.337 -22.14   0
        62    724.3356    924.8820 307.5945630  +6.3093141      735.182     1271.471     1330.536     84.76347     168.9913     337.6136      1.804     6.45     1023.536     59.50988     131.3901        10     1.790     0.653 -19.62   0
        63    861.9270    921.3384 307.5375523  +6.3153537     6031.193     10800.21     11503.31     84.76347     168.8571     337.6471      1.873     6.44      1019.57     59.50988     1086.272        30     2.013     0.759 -25.59   0
        64    397.7422    918.4736 307.7303751  +6.3010760     1708.558     2910.507     2984.752     84.62966     168.8571       337.58      1.863     6.60     1032.741     59.50988     250.6423        20     1.729     0.817 -24.81   0
        65    299.5102    916.8230 307.7712143  +6.2984769     7962.811     14297.45     15525.56     84.62966     168.6557     337.4793      1.921     6.28      1034.48     59.50988      1088.66        38     2.011     0.882 -24.82   0
        66    219.5623    915.7592 307.8044424  +6.2962437     6003.392     10947.46     11599.69     84.36143     168.8571     337.4793      1.920     6.09     1034.913     59.50988     833.5698        38     1.989     0.890 -23.80   0
        67    547.4796    910.3207 307.6684768  +6.3094396     1041.676     1490.435     1899.447     84.89706     169.1254     337.7813      1.859     6.09     1027.976     59.50988     171.2802        13     1.720     0.606 -22.05   0
        68    732.1866    909.7126 307.5918067  +6.3158426      685.244     1049.434     1015.663     84.22698     168.6557     337.5128      1.565     4.49     1022.696     59.50988       136.96         7     1.389     0.413 -26.48   0
        69    877.7835    906.1379 307.5314723  +6.3221608     908.4673     1730.985     1356.192     84.09232       168.79     337.4121      1.987     7.04     1018.353     59.50988     171.3136        13     1.957     0.771 -30.09   0
        70    832.2822    906.2537 307.5503610  +6.3206008      569.291     1367.218     1637.297     84.62966     168.8571     337.6807      2.398     4.18      1019.85     59.50988     142.2604         6     1.269     0.455 -37.03   2
        71    180.7097    905.8911 307.8209023  +6.2990210     556.4443     910.6843     752.3638     84.62966     169.3932     337.7142      1.796     6.09     1035.021     59.50988     92.39758         8     1.180     0.884 -14.59   0
        72    376.8197    904.6270 307.7395229  +6.3060981     574.1079     704.9401     17.54084     84.22698     168.6557     337.5128      1.159     2.33     1033.299     59.50988     115.0337         5     0.704     0.453  18.23   0
        73    713.9799    899.5041 307.5997050  +6.3194544     1310.639     2605.757     3182.808     84.49565     168.6557     337.4121      2.079     6.06     1022.959     59.50988     227.5831        15     1.966     0.525 -23.07   0
        74    945.5557    895.0014 307.5037012  +6.3290131      1303.96      2164.03     3178.523     83.95745      168.454     337.1769      1.688     5.25     1015.192     59.50988     273.0771        16     1.711     0.651 -25.87   0
        75    577.4813    896.2543 307.6564877  +6.3162512     662.2378     1041.029     1434.081     84.62966     168.8571     337.6807      1.973     5.04     1026.512     59.50988     95.89185         8     1.244     0.577 -15.05   0
        76    499.2910    895.2141 307.6889869  +6.3140741     766.6168     1489.933     1619.242     84.36142     168.6557     337.4121      2.316     5.98      1028.78     59.50988     137.9723        11     1.910     0.526 -28.69   0
        77    632.2935    893.0718 307.6338352  +6.3193922     1530.581     3154.097     3740.852     84.49565     168.9242     337.6807      2.268     7.39     1024.865     59.50988     325.5236        19     1.971     0.776 -23.84   0
        78    982.9358    892.1109 307.4882760  +6.3314482     613.6258     767.4645     584.5895     84.49565     169.0583     337.6471      1.328     4.00     1012.821     59.50988     106.1136         6     0.784     0.584 -43.34   0
        79    792.6741    889.4503 307.5673639  +6.3262262      657.508      1168.53     1706.599     84.62966     168.9242     337.6471      2.128     4.20     1020.284     59.50988     129.5786         6     1.732     0.291 -30.44   0
        80     29.2398    888.7267 307.8843618  +6.3010408     2320.764     4431.274     5057.453     84.49565     168.9242     337.6807      2.073     6.62     1036.024     59.50988     328.2998        30     2.009     0.948 -30.54   0
        81    172.7913    887.9728 307.8247878  +6.3061588      1803.88     3540.815     3677.189     84.22698     168.6557     337.4793      2.155     6.12     1035.081     59.50988     282.4856        25     2.033     0.864 -20.37   0
        82     46.6145    888.3599 307.8771606  +6.3017744     1625.027     2923.078     2927.461     84.22698     168.6557     337.3449      1.907     5.67     1035.748     59.50988     272.3351        19     1.733     0.739 -23.49   0
        83    911.2345    887.8345 307.5181893  +6.3308343     573.9591     953.2731      502.412     84.36142     168.5885     337.3449      1.628     3.83     1016.659     59.50988     96.98822         5     0.923     0.457 -43.15   0
        84    627.1769    881.9283 307.6363299  +6.3238258     5790.184     10632.68     11065.23     84.22698     168.6557     337.6136      1.904     6.92      1024.52     59.50988     896.5204        34     2.017     0.839 -26.52   0
        85    311.2414    884.3489 307.7674260  +6.3122853     597.6618      1096.79     1109.757     84.62966     168.8571     337.6136      1.886     5.82     1034.413     59.50988     110.8385        10     1.764     0.541 -24.46   0
        86    206.5604    884.7235 307.8108758  +6.3086309     771.0056     1177.187     924.2857     84.49565     168.8571     337.6807      1.752     5.66     1034.966     59.50988      100.559         8     1.322     0.682 -37.12   0
        87    864.6921    878.2319 307.5378328  +6.3332554     2386.723     4264.779     4281.206     84.76347     168.6557     337.6471      1.828     6.51     1017.642     59.50988     419.0031        21     1.871     0.672 -22.79   0
        88      1.4863    878.3997 307.8962295  +6.3043772     761.3437     860.4158     826.4028     74.82169     136.2451     256.1553      1.102     2.43     1035.782     59.50988     170.6926         6     0.834     0.426 -68.68  24
        89    310.2899    875.0531 307.7681308  +6.3160940     13347.15      24187.4     26283.57     84.62966     168.6557     337.7478      1.932     6.34     1034.406     59.50988     1927.556        45     2.002     0.913 -26.30   0
        90     44.9256    875.9868 307.8782752  +6.3068296     1141.614     2286.374     2168.007     84.09232     168.5212     337.4121      2.114     6.03     1035.394     59.50988     160.4943        14     1.874     0.545 -27.40   0
        91    362.0270    874.5726 307.7466658  +6.3180209     582.1727     1079.605     809.1817     84.09232     168.6557     337.4457      1.846     5.30     1033.713     59.50988     82.15466         7     1.181     0.673  15.34   0
        92    181.4466    874.5660 307.8216416  +6.3119872     923.4127     1760.562     1752.995     84.22698     168.8571     337.5464      1.941     5.94     1035.077     59.50988     173.4138        12     1.627     0.610 -25.18   0
        93    640.0889    866.6724 307.6314754  +6.3305588     600.3013     841.2504     1121.902     84.62966     169.1254     337.6471      1.416     3.36     1023.699     59.50988      137.297         5     0.764     0.428 -17.78   0
        94     73.6955    865.4827 307.8666815  +6.3121329     1289.167     2458.387     2600.594     84.49565     169.2593     337.7142      2.115     7.07     1035.046     59.50988     180.1868        18     1.910     0.733 -27.16   0
        95    387.8843    865.8146 307.7362215  +6.3225027     975.5898     1882.981     1961.133     84.22698     168.5885     337.4793      2.004     6.33     1032.046     59.50988     128.0907        15     1.675     0.672 -12.39   0
        96    468.3868    862.3822 307.7029107  +6.3266077      618.529     1041.771     718.5353     84.36143     168.5212     337.5128      1.745     4.19     1028.698     59.50988     97.17603         7     1.090     0.460  -9.11   0
        97    855.5414    859.9186 307.5422393  +6.3405175     1755.884     2973.218     2719.505     84.62966     168.9242     337.6136      1.810     6.71     1017.246     59.50988     247.4637        19     1.871     0.676 -20.65   0
        98    825.9990    859.4393 307.5545219  +6.3397335     1976.719      3492.64     3884.537     83.68706     168.5885     337.3113      1.829     6.53     1018.118     59.50988       363.39        20     1.832     0.653 -24.09   0
        99     57.0250    859.3071 307.8738091  +6.3141259     2040.709     3823.349      4488.58     84.76347     168.5885     337.4457      2.127     6.02     1035.035     59.50988     316.3048        24     1.910     0.842 -25.37   0
       100    789.1436    858.9866 307.5698402  +6.3386951     2468.082     4596.715     5308.749     83.95746     168.7228     337.3113      1.907     6.75     1019.191     59.50988     422.4146        22     1.885     0.678 -24.65   0
       101    525.2905    850.2782 307.6796863  +6.3335064     273066.3     495624.2     533960.3     84.36143     169.1254     337.6807      1.939     6.33     1026.733     59.50988     41492.49       148     2.133     1.095 -25.25   0
       102    612.9986    853.3821 307.6431653  +6.3351473     962.6857     1638.022     1732.088     84.22698     168.3867     337.3113      1.901     6.10     1023.727     59.50988     165.2117        11     1.762     0.594 -31.18   0
       103    369.5141    852.8535 307.7442805  +6.3272441     6514.875      11260.8     11674.52     84.62966       168.79     337.7813      1.876     5.88     1032.543     59.50988      918.048        33     1.985     0.828 -25.16   0
       104    312.8157    851.2674 307.7678748  +6.3260053     10025.62     18589.97     19849.72     84.09232     168.7228     337.5128      1.957     6.25     1034.016     59.50988      1425.22        45     2.072     0.942 -25.68   0
       105    863.3028    846.4802 307.5394620  +6.3463276     4347.189     8045.667     9555.831     84.36143     169.1924     337.6807      2.107     7.52     1016.722     59.50988     771.8602        38     2.226     0.939 -17.29   0
       106    631.0202    847.6434 307.6358731  +6.3381186     2916.677     5409.684     6053.284     84.09232     168.7228     337.4457      1.948     6.67     1023.231     59.50988     486.5817        21     1.878     0.664 -23.71   0
       107    605.9875    841.5920 307.6464682  +6.3397848     2771.979     5085.204     5773.008     84.22698     168.6557     337.5128      1.881     6.79     1023.575     59.50988     393.8316        26     1.855     0.792 -27.45   0
       108    997.1133    840.6888 307.4840912  +6.3531643     3930.198     7201.517     7642.733     84.36142     169.3263     337.7478      1.895     6.38     1011.062     59.50988     681.7629        29     1.952     0.840 -21.51   0
       109    149.6528    840.9451 307.8359643  +6.3248135     393.5135     669.1423     1032.052     84.89706       168.79       337.58      1.793     4.80     1035.082     59.50988     78.63354         7     1.846     0.354 -32.54   0
       110    794.5094    840.6152 307.5682215  +6.3464638     1403.758     2583.697     2612.014     84.36143     168.6557     337.4793      1.822     6.04     1018.453     59.50988     216.9877        14     1.669     0.615 -23.91   0
       111    597.0198    840.3203 307.6502341  +6.3400115      729.871     1499.218     2575.355     84.36142     168.5212     337.6136      2.220     5.02     1023.838     59.50988      126.218         8     1.777     0.401 -21.06   2
       112    598.6617    836.3508 307.6496842  +6.3417061     1948.207     3485.194     4325.327     84.62966       168.79     337.6807      1.989     6.02     1023.638     59.50988     283.3287        20     1.843     0.753 -29.75   2
       113    919.6717    840.0237 307.5162697  +6.3508679     723.4095     1334.704     1282.709     84.22698     168.7228       337.58      1.971     4.05     1014.571     59.50988     112.0648         7     0.897     0.560 -60.08   2
       114    882.4029    834.2514 307.5319363  +6.3520147     2777.028     5022.953     5372.138     83.95746     168.5885     337.1769      1.931     6.83     1015.738     59.50988     433.2682        23     1.930     0.678 -25.29   0
       115    292.7302    835.0850 307.7767538  +6.3320198     1022.803     1738.638      1628.13     84.76347     169.1254     337.6471      1.864     5.98     1034.228     59.50988     136.4902        14     1.496     0.672 -18.45   0
       116    340.6920    830.2440 307.7570009  +6.3356224     2269.291     4185.635     4474.615     84.62966       168.79     337.7478      1.949     6.90     1032.459     59.50988     327.3424        23     1.755     0.843 -27.53   0
       117    476.8517    820.0620 307.7008042  +6.3443746     2445.119     4413.762     4500.288     84.62966       168.79     337.6136      1.971     6.00     1027.664     59.50988     336.5876        25     1.943     0.762 -26.66   0
       118    821.2874    819.0848 307.5578164  +6.3562496     907.7842     1513.585      2140.01     84.36142     169.0583     337.6807      1.959     5.18     1017.147     59.50988     152.7258        10     1.624     0.466 -13.87   0
       119    524.0582    816.0947 307.6813348  +6.3475882     4922.715     8816.579     10775.44     84.49565     168.8571     337.7478      2.225     6.51     1025.651     59.50988      655.903        38     2.550     0.916 -14.84   2
       120    441.3495    815.1994 307.7157073  +6.3451989     1427.315     2644.159     2320.765     83.82236      168.454     337.1433      1.883     6.60     1028.665     59.50988     215.7451        19     1.855     0.659 -21.23   0
       121    859.3466    814.1940 307.5421748  +6.3595353     1141.553     2097.142     1800.252     84.09232     168.5885     337.3113      1.855     5.74     1016.099     59.50988     189.7854        13     1.797     0.516 -28.73   0
       122     83.0087    813.9248 307.8645371  +6.3337453     1020.421     1893.302     2053.388     84.22698      168.454     337.4121      1.970     7.13     1034.953     59.50988     153.6311        14     1.692     0.843  -5.55   0
       123    494.4603    809.9949 307.6938276  +6.3491212     15970.81     29166.62     31401.61     84.09232     168.7228     337.3785      1.935     5.94     1026.782     59.50988     2320.214        49     2.040     0.938 -26.60   0
       124    908.0339    808.2548 307.5221546  +6.3636069      3131.96     5712.926      6083.85     84.49565     168.8571     337.6136      1.826     6.37     1013.547     59.50988     551.4487        25     1.972     0.717 -23.31   0
       125      4.8515    800.5725 307.8974342  +6.3366430     1265.163     2060.814     1542.238     84.22698     168.9913     307.1725      1.737     5.98     1034.929     59.50988     177.8881        14     1.584     0.635 -31.76  16
       126    287.1736    798.6485 307.7802756  +6.3468875     2624.296     4764.271     4879.119     84.22698     168.9242     337.5464      1.946     6.26     1034.103     59.50988       378.28        28     1.987     0.832 -25.34   0
       127    752.5428    794.5242 307.5871767  +6.3641105     46491.02     81584.63     87211.55     84.62967       168.79     337.5464      1.899     7.14     1017.521     59.50988     7290.438        63     2.055     0.905 -25.07   0
       128    209.7480    792.4460 307.8126309  +6.3468611     4193.639     8029.798     9984.728     84.76347       168.79     337.6807      2.141     5.70     1034.496     59.50988     586.9282        36     2.070     0.937 -29.90   0
       129    396.0418    793.1822 307.7352532  +6.3527828     691.8322     1169.144     990.8496     84.09232     168.6557     337.3785      1.703     5.33     1029.254     59.50988     120.6609         9     1.351     0.593 -23.37   0
       130    877.7747    789.8041 307.5353311  +6.3702246     7243.758     12905.86     13374.62     84.09232     168.5885     337.4457      1.845     7.25     1014.383     59.50988     1154.939        37     2.023     0.790 -23.13   0
       131    680.8266    789.1125 307.6171359  +6.3639595     17621.47     32169.72     35422.13     84.76347     168.6557     337.5128      1.946     6.41     1019.753     59.50988     2564.501        52     2.104     0.927 -24.85   3
       132    674.5051    785.6086 307.6198773  +6.3651967     73572.27     130107.6     140599.7     84.36143      168.454     337.3449      1.911     6.79     1019.827     59.50988     10651.85        80     2.094     0.986 -25.53   2
       133    319.4272    786.5208 307.7672875  +6.3529759     16774.18     30668.04     33228.73     84.49565       168.79     337.6136      1.966     6.21      1031.83     59.50988     2175.453        50     2.069     0.961 -26.80   0
       134    368.4919    787.0041 307.7468984  +6.3544153     1105.834     2083.089      2691.92     84.22698     168.5212     337.3785      2.187     6.21     1029.669     59.50988     168.3783        15     1.710     0.706 -21.68   0
       135    381.3184    784.3231 307.7416618  +6.3559513     17666.44     32497.96     35485.52     84.89706     169.1254     337.7478      1.967     6.31     1029.306     59.50988     2459.333        51     2.067     0.981 -24.15   0
       136    918.4906    783.3405 307.5186379  +6.3742478     1896.439     3216.623     3281.773     84.49565     168.8571     337.7142      1.883     5.76     1012.153     59.50988     340.0882        18     1.639     0.741 -27.47   0
       137    209.4113    770.8295 307.8134920  +6.3557805     736797.1      1880378      2200862     84.09232     168.6557     337.4457      2.540     8.32     1034.267     59.50988     63762.29       519     2.699     1.825 -27.51   4
       138    128.2951    778.1699 307.8469280  +6.3500334      639.683     915.0166     1423.807     84.76347     168.5885     337.6136      1.747     3.51     1034.878     59.50988     111.7603         5     1.133     0.314 -10.89   0
       139    874.7274    781.1974 307.5368817  +6.3736793     5651.982     9793.131     10169.34     84.09232     168.3867     337.4457      1.831     7.09     1014.074     59.50988     912.9302        28     1.930     0.735 -22.78   0
       140    847.7280    781.9016 307.5480699  +6.3724910     567.7585     980.7828     408.5421     84.36142     168.9913     337.6136      1.647     4.47     1015.033     59.50988     102.7694         7     1.541     0.369 -20.26   0
       141    997.4605    772.8762 307.4861917  +6.3811932     576.4207     1049.935     762.4053     84.89706     168.8571       337.58      1.829     5.81     1010.094     59.50988     117.0337        10     2.168     0.439 -20.33   0
       142    568.6044    772.1204 307.6643000  +6.3672413     739.5576     1283.876     1175.798     84.22698     168.3194     337.3449      1.877     6.19      1022.41     59.50988     109.0972        12     1.983     0.544 -20.51   0
       143    615.2819    780.2402 307.6446476  +6.3654421     5119.647     9286.111     10095.35     84.62966     168.9242     337.5464      1.968     6.41     1021.537     59.50988     807.9316        35     2.051     0.825 -25.71   0
       144    119.4251    771.3366 307.8508392  +6.3525595      741.032     1322.945     1242.076     84.22698     168.8571     337.5464      2.095     6.87     1034.852     59.50988     132.2839        11     1.553     0.851 -20.66   0
       145    650.2943    770.4451 307.6304343  +6.3706553     1975.131     3597.372      4053.51     84.49565       168.79     337.7478      1.953     5.60     1019.898     59.50988     306.7623        21     1.841     0.727 -20.63   0
       146     94.3261    771.0104 307.8612716  +6.3518538     1011.534     1535.869     1201.682     84.09232      168.454     337.4793      1.769     5.46     1034.837     59.50988     151.3771        11     1.469     0.572 -16.89   0
       147    384.2393    767.0003 307.7410260  +6.3632057     42198.74     79411.29     86801.97     83.55154     168.6557     337.3113      1.999     6.01     1028.764     59.50988     5572.583        76     2.136     1.048 -27.23   0
       148    926.2701    768.6409 307.5158944  +6.3805794     555.2219     785.0917     710.9773     84.49565     168.8571     337.6807      1.840     4.24     1011.441     59.50988     92.92175         6     1.275     0.402 -30.30   0
       149    502.0246    766.0360 307.6921491  +6.3675351     5701.912      10253.4     10985.24     84.22698     168.6557     337.3449      1.892     5.86     1024.594     59.50988     754.6729        32     1.965     0.839 -26.27   0
       150    418.8293    764.5876 307.7267433  +6.3653574     3497.264     6453.826     7351.906     84.09232     168.5885     337.5128      2.001     6.05      1027.66     59.50988     480.6293        30     1.926     0.855 -25.08   0
       151    747.1360    762.5956 307.5904814  +6.3771221     9607.377     17526.65     18809.62     83.82236     168.5885     337.4121      1.898     6.23     1016.076     59.50988     1587.582        35     1.984     0.804 -24.68   0
       152    255.0805    762.3749 307.7948110  +6.3608008     607.5447     1770.162     4177.956     84.36142     168.6557     337.6136      4.991     7.54     1033.079     59.50988     109.4777        11     1.748     0.910  77.97   0
       153    404.0137    778.3004 307.7324386  +6.3591974     1465.817     2726.652     2792.353     84.36142     168.5885     337.3449      1.984     7.22     1028.571     59.50988     207.4857        18     1.994     0.733 -26.01   0
       154    415.3274    757.9221 307.7284194  +6.3679943     1816.338     3046.155     3523.694     84.89706     169.1254     337.6136      1.882     6.04     1027.516     59.50988     242.5978        19     1.636     0.749 -30.29   0
       155    639.9412    762.6130 307.6349936  +6.3735463     473.0567     474.4529     634.0035     83.95745       168.79     337.2777      1.279     3.91     1020.016     59.50988     92.99316         5     0.903     0.484  -3.84   0
       156    768.8002    756.8004 307.5816775  +6.3802372     1032.134     1789.567     1660.217     83.95745     168.3867     337.2777      1.644     5.15     1015.535     59.50988     183.1239        11     1.750     0.428 -25.07   0
       157     97.1311    751.9301 307.8607443  +6.3598305       2161.6     4220.388     5218.636     84.62966     168.9913       337.58      2.178     7.68     1034.779     59.50988     285.8015        26     1.993     0.828 -31.14   2
       158    112.9371    755.0675 307.8540764  +6.3590637     2380.842     4500.599     5121.079     84.62966     168.8571     337.6471      2.067     6.84     1034.801     59.50988     308.1836        22     1.877     0.731 -27.09   2
       159    104.9687    754.5978 307.8574008  +6.3589909     9279.102     17426.13     19580.98     83.95745     168.6557     337.3785      2.057     6.04     1034.794     59.50988     1242.291        45     2.098     0.965 -25.19   3
       160    941.5372    751.5478 307.5101207  +6.3881486     1148.696     2098.184     2339.754     84.62967       168.79       337.58      2.371     7.22     1010.648     59.50988     256.9281        18     2.157     0.820 -36.96   0
       161    892.6140    751.1932 307.5304485  +6.3866701     5548.349     9585.092     9905.292     84.22698     168.5885     337.4457      1.847     7.16     1011.995     59.50988     880.4824        30     1.913     0.764 -23.87   0
       162    647.8975    748.9265 307.6321445  +6.3794659     1385.913     2432.238       2285.9     84.22698     168.9913     337.6136      1.949     6.56     1019.058     59.50988     192.1628        17     1.764     0.685 -21.25   0
       163    535.1758    748.0458 307.6789816  +6.3760733      1828.59     3302.798     3500.411     84.22698     168.8571     337.4793      1.869     5.94     1022.326     59.50988     295.1804        22     1.843     0.747 -25.19   0
       164    382.7656    747.9703 307.7422718  +6.3710187     913.7726     1980.091     2566.788     84.09232     168.5885     337.4121      2.134     6.44     1028.271     59.50988     137.3547        13     1.892     0.615 -23.97   0
       165     96.9752    745.5861 307.8610209  +6.3624463      1548.96     2973.139     3345.222     84.36142     168.6557     337.5464      1.944     6.93     1034.761     59.50988      192.274        20     1.943     0.730 -24.47   0
       166    946.9208    742.6220 307.5081807  +6.3920152     1699.992     3007.767     2983.761     84.22698     168.5212       337.58      1.845     6.22      1010.31     59.50988       283.26        21     1.982     0.764 -26.35   0
       167    886.6980    743.2874 307.5331672  +6.3897398     2670.211     4416.688      4565.77     84.62966     169.3263     337.6471      1.847     6.82     1011.815     59.50988     414.6424        22     1.926     0.681 -24.70   0
       168    916.4069    742.6055 307.5208527  +6.3910086     2647.678     4380.532     4709.823     83.95746     168.6557     337.4457      1.763     6.43     1011.072     59.50988     396.9991        19     1.872     0.620 -25.67   0
       169    638.7729    742.6581 307.6361418  +6.3817518     1101.075     1956.398     1375.282     84.22698     168.9242     337.4457      1.838     5.64     1019.282     59.50988     171.1336        13     1.702     0.526 -26.97   0
       170    785.9257    740.9064 307.5750933  +6.3873735     861.6145     1526.875     1706.992     84.49565     168.9913       337.58      2.022     5.12     1014.621     59.50988     164.8674        10     1.463     0.506 -25.25   0
       171    861.5967    738.6556 307.5437445  +6.3908193     726.1138     1214.888     1007.502     83.95746     168.6557     337.2777      1.681     4.72     1012.257     59.50988     143.7383         8     1.243     0.508 -22.53   0
       172    211.8319    737.5508 307.8135973  +6.3696103     1461.907     2904.209     3641.034     84.36143     168.8571     337.5464      2.075     5.84     1033.835     59.50988     216.6935        19     1.769     0.725 -28.49   0
       173    127.1957    732.9854 307.8488934  +6.3686640     594.9984     1452.668     1300.763     84.22698     168.5212     337.4457      2.513     6.69     1034.575     59.50988     103.1729         9     2.026     0.619 -44.33   0
       174    904.5913    732.7474 307.5260860  +6.3946890     860.1666     1512.546     1538.237     84.09233     168.7228     337.3113      1.629     4.73     1010.949     59.50988     153.5919         9     1.809     0.351 -26.87   0
       175    931.2551    730.5717 307.5150854  +6.3964736     1881.445     3728.836     4076.833     84.36143     168.9242     337.5128      2.122     7.15     1010.282     59.50988     344.6461        22     1.927     0.743 -24.10   0
       176    877.8704    731.7838 307.5372143  +6.3941993     822.3481     1476.263     1911.651     84.09232       168.79     337.5128      1.770     4.55     1011.489     59.50988     122.8114         8     1.457     0.403 -22.52   0
       177    651.1509    729.5057 307.6314386  +6.3875980     911.6166     1546.925     1231.551     84.49565     168.7228     337.7478      1.718     5.98     1017.997     59.50988     149.6664        13     1.576     0.638 -22.70   0
       178   1005.1054    724.5701 307.4846160  +6.4014050      6150.55     10888.23     11431.87     84.76347     168.5885     337.5128      1.858     6.21     1008.225     59.50988     1053.888        30     1.922     0.741 -24.14   0
       179    974.3136    723.3304 307.4974442  +6.4008951     1120.407     2288.931     2628.053     84.76347     169.1254     337.6471      2.233     4.10     1008.886     59.50988     220.2101         9     1.311     0.492 -41.02   2
       180    371.4241    725.1345 307.7477420  +6.3800744     428.6245     1170.259      1258.78     84.22698     168.8571     337.5128      2.440     5.30      1027.79     59.50988     91.30688         8     1.712     0.463 -22.82   0
       181    774.1652    722.5347 307.5805866  +6.3945727     1027.863     1755.022     2114.371     84.49565     168.8571     337.6471      1.851     6.08     1013.861     59.50988     150.1996        13     1.459     0.713 -26.89   0
       182    598.7924    723.4038 307.6533838  +6.3883747     472.2723     856.6456     800.8373     83.95746     168.5212     337.4793      2.201     4.56     1020.149     59.50988     64.69135         5     1.349     0.439 -31.16   0
       183    860.2485    719.8171 307.5449288  +6.3985578     1052.226     2060.697     1870.281     84.09232     168.9242     337.3785      1.863     6.35     1011.298     59.50988     172.8919        15     1.905     0.594 -21.36   0
       184    833.3460    715.2859 307.5562509  +6.3995356     621.2709     878.3632     1021.953     84.62966       168.79     337.7813      1.545     4.44     1011.896     59.50988     109.3567         5     0.929     0.614 -38.92   2
       185    836.6703    714.3419 307.5549017  +6.4000362     784.5075     934.5159     1417.169     84.76347     168.8571     337.6136      1.350     3.95      1011.71     59.50988     130.6615         6     0.974     0.457 -56.03   2
       186    817.1418    711.2169 307.5631151  +6.4006780     1231.146     2259.844     2214.474     84.09232       168.79     337.3449      1.829     6.28     1012.171     59.50988     211.9805        15     1.786     0.620 -32.32   0
       187     16.7033    710.0040 307.8955411  +6.3744571     2115.972     3827.458     3756.167     84.36142     168.5212     337.2777      1.944     5.85       1034.4     59.50988       281.26        25     1.820     0.875 -30.31   0
       188    629.2919    698.5662 307.6415439  +6.3996526     4957.355     9159.533     10549.04     84.76347     168.7228     337.6807      2.042     6.28     1017.541     59.50988     692.2236        33     2.080     0.815 -25.97   0
       189    575.9642    697.9878 307.6637085  +6.3981146     1127.773     2153.551     2187.802     84.09232     168.6557     337.3785      1.792     6.30     1019.621     59.50988     183.2857        14     1.738     0.642 -26.51   0
       190    486.6909    698.2775 307.7007710  +6.3950179     674.0566     931.2202     560.3551     84.36143     169.1254     337.6471      1.336     4.45     1022.393     59.50988     121.7295         7     1.025     0.550 -27.86   0
       191    965.8970    693.8773 307.5019148  +6.4127845     2108.288     3633.667     3474.493     84.22698     169.0583     337.6807      1.777     6.38     1007.813     59.50988     336.6382        20     1.888     0.605 -25.15   0
       192    602.9865    694.2282 307.6526120  +6.4005684     1617.531     2992.808     3029.836     84.22698     168.5885     337.5128      1.937     5.79     1018.515     59.50988     275.7474        19     1.787     0.790 -22.93   0
       193    278.5742    694.6049 307.7873155  +6.3895850     543.6655     1007.687     652.6393     84.09233     168.6557     337.4457      1.788     4.83     1030.047     59.50988     111.1014         5     1.278     0.518 -44.94   0
       194    746.1348    690.6332 307.5932855  +6.4068204     16381.49     29499.28     31931.29     84.49565     168.8571       337.58      1.933     6.20     1013.116     59.50988     2522.015        48     2.024     0.897 -24.54   0
       195    876.1896    690.4555 307.5392822  +6.4112185     3210.411     5590.293     5957.807     83.95746       168.79     337.2777      1.833     6.66      1009.35     59.50988     542.0703        23     1.801     0.759 -22.12   0
       196    445.1347    691.0234 307.7182692  +6.3966283     1035.582     1785.387     1402.074     84.22698     168.8571     337.5128      1.787     6.20     1023.476     59.50988     143.8538        13     1.697     0.636 -19.87   0
       197     92.2442    694.4067 307.8646951  +6.3834319     2823.435      5308.55     5512.391     84.09233     168.5885     337.2777      2.015     6.00     1033.421     59.50988     388.2676        31     1.932     0.952 -27.74   0
       198    290.5963    690.4519 307.7824618  +6.3917026     551.0852     980.3335     994.9393     83.95746     168.6557     337.1433      2.176     5.63     1029.634     59.50988     92.61768         6     1.089     0.819 -39.01   0
       199    219.7647    684.3262 307.8120792  +6.3918649     4891.161      9157.88     9428.103     84.49565     168.9242       337.58      1.981     5.97     1030.563     59.50988     676.8661        34     2.020     0.904 -28.52   0
       200    626.6173    683.4926 307.6431555  +6.4057912     5611.062     10349.54     11342.46     84.36143     168.5885     337.4793      1.975     6.36     1016.766     59.50988      762.324        36     2.047     0.873 -26.41   0
       201    886.7545    676.0524 307.5353722  +6.4175204     1104.194     1984.802      1881.19     84.62966       168.79     337.6807      1.861     5.56     1008.457     59.50988     168.8138        13     1.808     0.481 -19.81   0
       202    698.5874    671.7468 307.6136580  +6.4130409     2915.152     5792.316     6255.797     83.95746       168.79     337.3113      2.105     7.92      1013.46     59.50988     365.6776        30     1.990     0.961 -28.37   0
       203    653.4260    672.3024 307.6323943  +6.4113075     824.6282     1451.741     1673.504     84.76347     168.5885     337.5128      1.985     5.70     1014.922     59.50988     150.2156        12     1.743     0.525 -17.07   0
       204    964.6993    668.4845 307.5032531  +6.4232360     7650.985     13329.45     14105.12     84.62966     169.3932     337.7142      1.856     7.03     1006.781     59.50988     1384.282        33     1.985     0.760 -23.05   0
       205    903.1624    668.9961 307.5287920  +6.4209808     2036.378     3618.135     3516.244     83.68706     168.5885     337.3785      1.861     5.56     1007.987     59.50988     342.5504        21     1.859     0.707 -25.32   0
       206    400.3936    666.6587 307.7376601  +6.4052009     443.9761     676.5891     991.9969     83.95746     168.7228     337.3113      1.548     4.22     1023.875     59.50988     108.0002         5     1.276     0.398  12.29   0
       207     42.1224    663.2961 307.8865476  +6.3946057     19861.49     37853.18     41010.55     84.36142     169.0583     337.6807      2.011     5.94     1033.301     59.50988      2536.35        57     2.079     1.049 -27.00   0
       208    503.7793    664.2822 307.6948059  +6.4096331     1717.562       3114.1     3496.527     84.36143     168.5212     337.5464      1.815     6.06     1020.846     59.50988     245.5325        18     1.733     0.707 -16.13   0
       209    472.0854    661.5010 307.7080602  +6.4097248     1034.831     1684.125     2191.049     84.62966     169.3263     337.6807      1.973     5.76     1021.579     59.50988     199.0353        13     1.531     0.609 -28.20   0
       210    892.9860    660.5356 307.5332985  +6.4241383     787.6086     1137.842      741.804     84.09232     168.6557     337.4793      1.462     5.13     1007.987     59.50988     156.1617        10     1.716     0.434 -21.45   0
       211    512.6129    657.8280 307.6913523  +6.4125943     844.0005     1399.029     1643.291     84.09232     168.6557     337.5128      2.080     5.66      1020.51     59.50988     113.4537        10     1.469     0.614 -41.68   0
       212    688.2008    655.4229 307.6185135  +6.4194393     2729.794     5294.181      5679.88     84.22698     168.5212     337.3785      1.983     6.43     1013.313     59.50988     401.9156        28     1.927     0.908 -17.71   0
       213    709.9604    653.8307 307.6095299  +6.4208215     3435.811     6320.729     6524.814     84.22698     168.6557     337.4457      1.921     6.04     1012.827     59.50988     493.5673        27     2.010     0.737 -23.83   0
       214    541.6827    651.6437 307.6794859  +6.4161188     2555.554     4420.099     5017.981     84.62966     168.8571       337.58      1.859     5.74     1019.723     59.50988      358.463        23     1.841     0.754 -26.90   0
       215    377.3460    652.4099 307.7477057  +6.4103180     1071.772     1888.736     2344.833     83.95746       168.79     337.3113      1.923     6.67     1024.092     59.50988      143.402        17     1.689     0.739 -24.80   0
       216    202.0843    651.1682 307.8205277  +6.4049724     1431.309     2536.192     2926.578     84.62966     168.6557     337.5128      2.031     6.30     1029.922     59.50988     194.3018        16     1.476     0.810 -25.98   0
       217    982.9208    649.9279 307.4963003  +6.4315078     4137.531     7296.706     7452.242     84.89706     169.1254       337.58      1.859     6.94     1005.873     59.50988     634.6711        26     1.925     0.701 -23.68   0
       218    285.4041    650.6808 307.7859441  +6.4079602     1116.909      2098.59     1966.814     84.09233     168.3867     337.3113      1.963     6.15     1028.047     59.50988     145.1667        14     1.585     0.670 -24.85   0
       219    948.3429    648.8085 307.5106976  +6.4308222     6521.172     11994.67     12476.95     83.95746       168.79     337.3449      1.897     7.57     1006.651     59.50988     984.4838        34     1.988     0.806 -25.82   0
       220    668.3721    647.3597 307.6270160  +6.4221104     781.9056     1073.031      1009.23     84.22698     168.6557     337.4457      1.619     3.96      1013.74     59.50988     146.9167         7     1.113     0.465  -6.72   0
       221     61.0146    645.4133 307.8793003  +6.4026267     538.4156     1030.177     628.9271     84.49565     168.5212     337.5464      1.950     2.70     1032.387     59.50988     124.8319         5     0.770     0.429 -19.86   2
       222    106.8676    642.2403 307.8603655  +6.4054735     18485.81      34980.8     37766.38     84.49565       168.79     337.6807      2.024     5.83     1031.209     59.50988     2295.352        55     2.088     1.046 -26.10   0
       223    774.6781    643.0699 307.5830104  +6.4274211     988.8016     1633.597     1546.638     84.89706     169.1254       337.58      1.903     5.79     1010.686     59.50988     143.1216        12     1.710     0.553 -23.68   0
       224    393.5769    642.9749 307.7412797  +6.4147581     2207.151     4513.374     5209.448     84.09232     168.7228       337.58      2.195     6.28     1023.318     59.50988     296.3948        27     1.961     0.950 -34.48   0
       225    326.3064    637.2527 307.7694062  +6.4148750     738.3981     1288.441     645.7858     84.49565       168.79      337.882      1.739     5.88     1025.445     59.50988     118.0083         9     1.434     0.680 -26.48   0
       226    943.3168    631.8356 307.5133472  +6.4376678     5600.833     10840.22     11835.55     84.62966     168.8571     337.5464      2.045     6.73     1006.324     59.50988     804.5579        41     2.066     1.060 -12.03   0
       227    998.5571    626.9058 307.4905688  +6.4415386     78495.73     137769.1     146930.4     84.62966       168.79     337.7478      1.878     6.92     1004.818     59.50988     11345.21        79     2.056     0.937 -24.75   0
       228    536.8104    627.0241 307.6823282  +6.4261279     36956.34     69317.31     76293.85     84.22698     168.6557     337.4793      2.018     5.89     1019.253     59.50988     4651.892        69     2.133     1.063 -27.38   0
       229    144.4168    623.8004 307.8453886  +6.4143491     2177.135     3651.174     3196.658     84.22698     168.3867     337.2777      1.788     6.04     1030.057     59.50988     283.4073        27     2.016     0.854 -23.80   0
       230     36.9537    617.9945 307.8902083  +6.4131481     1130.488     2068.122     2027.403     83.95746     168.6557     337.2441      1.905     5.84     1032.317     59.50988     144.8016        13     1.538     0.624 -30.17   0
       231    434.1052    610.8179 307.7255200  +6.4293968     47819.66     89949.61     98959.09     84.49565     168.6557     337.4121      2.049     5.76     1021.322     59.50988      5841.19        79     2.164     1.109 -26.90   0
       232    108.5722    606.0051 307.8608682  +6.4205008     1309.152     2231.173     2721.495     84.09232     168.6557     337.4121      2.042     6.86     1029.884     59.50988     191.6694        19     1.732     0.805 -34.16   0
       233    702.2598    602.7943 307.6144228  +6.4416511     6644.654     8137.931     8307.188     84.09232     168.7228     337.3785      1.412     4.37     1011.875     59.50988     2066.487        13     1.420     0.461  45.16   0
       234    387.5990    603.6560 307.7450721  +6.4308029     784.5593     1334.391     976.0259     83.95746     168.5212     337.2777      1.845     6.06     1022.288     59.50988     147.5571         9     1.570     0.658 -14.51   0
       235    579.9824    602.5204 307.6652141  +6.4376909     677.5377     1301.531     1190.362     84.22698     168.5212     337.5464      1.794     4.36     1017.139     59.50988     110.5536         8     1.881     0.288 -12.69   0
       236   1012.4293    610.2543 307.4853588  +6.4488787     3016.996     5237.125     5113.722     84.36143     168.9242     337.5128      1.848     6.96     1003.974     59.50988     458.1926        23     1.801     0.753 -26.82  16
       237    279.7182    600.0374 307.7899943  +6.4286931     1560.432     3185.839     3299.544     84.62966     168.9242       337.58      1.955     6.23     1025.398     59.50988     220.8406        24     1.769     0.895 -28.14   0
       238    431.7013    599.0933 307.7269088  +6.4341606     639.4886     1235.062     1330.716     84.62966     169.4601     337.5464      1.858     5.45     1021.036     59.50988     119.2324         8     1.673     0.500 -30.65   0
       239    706.0610    594.4470 307.6131213  +6.4452263     4149.036     7902.094     8360.811     84.49565       168.79     337.6807      2.010     6.25     1011.617     59.50988     580.8065        31     2.034     0.866 -30.14   0
       240    759.7332    589.6008 307.5909916  +6.4490149     10942.18     19893.78     21268.58     83.82236     168.3867     337.3449      1.934     6.43     1010.139     59.50988     1655.333        44     2.068     0.892 -24.00   0
       241    501.9241    589.5107 307.6980645  +6.4404630     933.1214     2057.257     2099.502     84.62966     169.1924     337.6807      2.180     7.06     1019.128     59.50988     122.5453        15     1.882     0.741 -29.84   0
       242    976.9119    590.2235 307.5007731  +6.4559756     1037.314     1627.225     1575.453     84.62966     168.6557     337.4793      1.582     5.11     1003.726     59.50988     186.5905        10     1.549     0.477 -21.89   0
       243    583.2731    587.8887 307.6643340  +6.4438457     2251.474     4119.719     3697.658     84.62966     169.1254     337.6471      1.950     6.51     1016.458     59.50988     306.7245        22     1.868     0.780 -28.86   0
       244    999.2675    588.6617 307.4915400  +6.4573630     1694.402      3027.02     3116.709     84.62966       168.79     337.6136      1.914     6.13     1002.966     59.50988     299.6123        17     1.913     0.553 -23.03   0
       245    900.6511    584.0192 307.5326513  +6.4560062      1132.07     1804.782     2330.134     84.09232     168.9242     337.4121      1.704     5.76     1005.761     59.50988     173.1194        13     1.681     0.555 -23.82   0
       246    341.7980    581.2103 307.7648409  +6.4385463     732.1962     1492.309     1033.363     84.22698     168.5212     337.4121      2.006     7.02      1022.86     59.50988     112.7587        13     1.780     0.776 -33.63   0
       247    195.7867    581.2808 307.8254756  +6.4336349     1104.014      2394.55     3369.998     84.22698     168.5885     337.4121      2.603     7.66     1028.196     59.50988     159.8677        19     1.888     0.878 -21.64   0
       248    835.6290    572.9269 307.5600241  +6.4584280     2314.895     4128.929     5100.279     84.49565     168.8571       337.58      1.898     6.75     1007.521     59.50988     362.1525        23     1.987     0.686 -24.46   0
       249    792.3730    571.2987 307.5780431  +6.4576623     1282.681     1695.253     2280.879     84.76347     168.5885       337.58      1.212     4.67     1009.111     59.50988     244.4149         8     1.098     0.625 -46.66   3
       250    795.6401    569.7085 307.5767390  +6.4584279     1816.918      2587.92     3047.698     84.62966       168.79     337.6807      1.576     3.39     1009.001     59.50988      269.619        12     1.080     0.750 -38.32   3
       251    222.4674    565.3354 307.8149276  +6.4411152     6017.279     11065.09     12276.98     84.62966     168.8571     337.6471      2.009     5.67     1026.447     59.50988     817.0233        42     2.068     1.012 -26.02   0
       252    765.2552    566.4220 307.5894675  +6.4587750     2096.457     3826.343     4293.681     84.09233     168.8571     337.4121      1.862     6.46     1009.721     59.50988     287.6423        18     1.734     0.676 -20.22   3
       253    775.0598    561.5242 307.5855581  +6.4611248     125238.1     228075.9     247743.1     84.89706     168.8571       337.58      1.968     6.24      1009.43     59.50988     18234.73       114     2.153     1.076 -25.92   2
       254    707.2032    566.6150 307.6135713  +6.4567633     724.5977      1330.84     2283.559     84.22698      168.454     337.4457      1.883     5.79     1011.149     59.50988     115.3093        11     1.429     0.661 -23.04   0
       255    156.7668    559.8341 307.8423961  +6.4411894     44162.57     85139.48     93276.23     84.22698     168.5885     337.3449      2.059     5.75     1028.824     59.50988     5306.192        76     2.135     1.151 -26.28   0
       256     80.7293    556.0781 307.8740991  +6.4401948     4769.987     9214.028     10000.96     84.89706     169.1254       337.58      2.090     5.95     1029.591     59.50988     609.0773        38     1.979     1.037 -26.51   0
       257    946.1155    553.2564 307.5147882  +6.4702263      1116.65     1872.594     1928.682     84.62966     168.8571     337.7478      1.801     6.45     1002.863     59.50988      195.628        16     1.770     0.661 -23.86   0
       258    811.5670    548.8085 307.5708176  +6.4675926     3570.523     6364.119     6769.939     84.09233     168.6557     337.4457      1.906     6.04     1008.123     59.50988     488.0996        25     1.911     0.748 -24.41   0
       259    330.0949    546.9701 307.7708426  +6.4523014     12728.71     24222.38     27045.97     84.76347     168.5885     337.5464      2.074     5.75      1022.06     59.50988     1486.876        51     2.141     1.065 -25.78   0
       260    419.4098    547.4651 307.7337329  +6.4550802     558.2151     946.8336     1106.942     84.09233     168.6557     337.4793      2.020     5.88     1019.822     59.50988     87.78986         7     1.144     0.851  32.30   0
       261    132.8567    545.6141 307.8528007  +6.4462638     1457.909     3007.823     4042.284     83.95746     168.7228     337.2777      2.676     7.92     1028.841     59.50988     223.9335        24     2.335     0.758 -31.10   0
       262    765.5461    542.1425 307.5901526  +6.4688159     4654.169     8142.258     9104.369     84.76347     168.8571     337.6136      1.885     6.06     1009.343     59.50988     650.9889        31     1.954     0.840 -26.50   0
       263    496.5648    541.8954 307.7018749  +6.4599564     4820.221     9497.979     10179.19     84.76347     168.7228     337.7142      2.093     6.17     1017.876     59.50988     602.8882        38     2.026     1.027 -27.64   0
       264    207.4693    543.6213 307.8218810  +6.4495845     538.9708     1197.257     1299.828     84.22698       168.79     337.5464      2.210     6.58     1025.919     59.50988     79.83936         8     1.688     0.719 -15.83   0
       265     69.2716    543.0230 307.8792936  +6.4452045     682.6974     1359.369     1206.004     84.22698     168.7228     337.6136      2.299     5.18     1029.522     59.50988     113.0581         8     1.289     0.589 -18.28   0
       266    354.6283    538.6450 307.7609312  +6.4565606     917.2086     1913.646     1900.367     84.22698     168.9242     337.5128      2.120     6.29     1021.231     59.50988     120.2509        14     1.639     0.677 -15.34   0
       267    143.4603    535.0560 307.8487498  +6.4509807     4957.927     9604.471     10507.66     84.76347     168.8571     337.6471      2.083     5.66     1028.365     59.50988     619.5088        41     2.047     1.026 -28.05   0
       268     15.0409    533.7686 307.9021245  +6.4472103     3804.002     7543.913     8679.309     84.09232     168.7228     337.4793      2.102     5.88      1030.09     59.50988     456.7307        37     2.007     1.059 -27.39   0
       269    541.1594    534.9414 307.6835853  +6.4643168     2029.993      3874.49     4225.147     84.62966     168.8571     337.6807      2.109     6.31     1016.043     59.50988     281.7108        27     2.107     0.843 -22.79   0
       270    238.7168    531.4982 307.8093084  +6.4556384     64482.96     124705.4     137648.1     84.62966     169.2593     337.6807      2.080     5.76     1023.758     59.50988     7282.904        89     2.184     1.206 -26.41   0
       271    781.6268    534.5878 307.5837246  +6.4724721     1091.154     1943.615     2156.999     84.22698     168.6557     337.5464      1.982     6.34      1008.63     59.50988     171.1171        13     1.811     0.623 -30.31   0
       272    528.2407    528.8815 307.6891524  +6.4663896     721.9809     996.1261      1812.94     84.62966     168.8571     337.5464      1.600     5.55     1016.174     59.50988     97.67267        10     1.317     0.658 -11.13   0
       273    222.3806    526.4275 307.8162622  +6.4571868     1005.898     1798.574     1497.543     84.22698     168.6557     337.5128      1.958     5.82     1024.307     59.50988     156.9049        14     1.604     0.713 -26.04   0
       274    938.1591    525.2330 307.5190212  +6.4815401     1232.222     2132.928     2349.533     84.36142     168.8571     337.4457      1.968     5.16     1001.836     59.50988     212.5538        11     1.692     0.444 -26.49   0
       275    761.8015    523.8463 307.5923152  +6.4762504     12382.84     23303.71     25491.78     83.95745     168.5212     337.1433      2.012     6.38     1008.878     59.50988     1684.054        51     2.104     0.979 -23.81   0
       276    465.4833    522.3021 307.7154358  +6.4670142     30822.36      62435.5     71120.05     84.62966     169.2593     337.6807      2.183     5.60      1017.42     59.50988     3445.533        85     2.264     1.279 -22.40   0
       277    616.0678    520.7714 307.6529452  +6.4726682     639.7385     1290.116     1890.617     84.36142     168.8571     337.5464      2.311     5.95     1012.714     59.50988     104.5214        10     1.596     0.625 -26.86   0
       278     13.5253    519.2195 307.9032405  +6.4531701     1087.415     1841.486     2279.531     84.22698     168.7228     337.5464      1.812     5.86     1029.895     59.50988     148.2657        13     1.712     0.564 -22.33   0
       279    625.5201    517.2910 307.6491351  +6.4744211     2409.997     4692.001     5962.099     84.36143     169.1254     337.6807      2.111     6.41     1012.217     59.50988     315.1163        28     1.968     0.879 -31.50   0
       280    177.8390    518.5191 307.8350245  +6.4589636     1360.654      2489.45     2861.725     84.62966     168.9242     337.5464      2.036     6.85     1026.401     59.50988     178.2717        16     1.604     0.821 -28.46   0
       281    635.9514    517.2430 307.6448042  +6.4747885     983.2878     2048.947     2148.946     84.62966       168.79     337.5464      2.267     6.63     1011.863     59.50988     153.1205        17     1.970     0.625 -22.99   0
       282    687.4453    516.2534 307.6234500  +6.4769124     979.5464     1884.631     2069.062     84.62966     168.8571     337.6471      1.765     5.91      1010.33     59.50988     150.5274        14     1.852     0.530 -30.32   0
       283    363.3392    512.8193 307.7581742  +6.4675213     1306.656     2270.535     2587.046     84.22698       168.79     337.4793      1.971     6.93     1019.373     59.50988     193.0681        19     1.928     0.698 -26.01   0
       284    294.7261    511.2361 307.7867231  +6.4658824     2912.168     5587.058     6102.296     84.49565     168.9242     337.6136      2.093     5.65     1020.196     59.50988     381.2158        30     1.789     0.992 -29.12   0
       285    109.8342    509.8446 307.8635570  +6.4602705     19050.35     36604.78     40003.82     84.22698       168.79     337.4793      2.064     5.86     1028.478     59.50988     2376.765        57     2.096     1.105 -27.25   0
       286    474.5364    510.6511 307.7120638  +6.4721299     1554.784     3006.452     3381.492     84.62966       168.79     337.6471      2.101     7.01     1016.439     59.50988     207.0356        22     1.957     0.832 -23.44   0
       287   1011.2543    511.3694 307.4891208  +6.4896948     896.1303     1108.099     1328.179     84.49565     168.9242     337.5464      1.867     3.81     996.5938     59.50988     164.7239         6     1.177     0.353 -41.82   3
       288   1014.3363    510.2301 307.4878784  +6.4902678     999.9258     1392.206     1287.051     84.36143     168.9242     337.5464      1.385     2.38     996.3188     59.50988     202.8992         7     0.879     0.571 -36.33   3
       289    837.7564    510.0594 307.5612257  +6.4844728     1297.039      2251.81     2198.644     84.49565     168.8571     337.7142      1.735     6.57     1005.231     59.50988      201.075        16     1.691     0.716 -23.88   0
       290     75.0384    508.2174 307.8780621  +6.4597771     1975.198     3773.204     4450.611     84.22698     168.7228     337.3449      2.067     5.87     1029.097     59.50988      242.066        25     1.678     1.017 -21.34   0
       291    312.2659    506.4726 307.7795974  +6.4684367     728.7596     1154.163     1421.677     84.62966     168.9242     337.6136      1.977     5.18     1019.657     59.50988     98.67529         9     1.519     0.500 -28.38   0
       292    935.3297    504.4361 307.5208856  +6.4900386     4103.158     7456.893     7737.656     84.49565     168.8571     337.6471      1.912     7.35     1000.995     59.50988      661.853        29     1.921     0.787 -25.63   0
       293    509.6488    496.6906 307.6979453  +6.4790691     1110.268     1668.823     1507.407     84.62966     168.6557     337.7813      1.739     5.97     1014.914     59.50988     152.8542        10     1.508     0.666 -26.39   2
       294    506.6421    497.3264 307.6991729  +6.4787061     689.3946     965.8099     807.6212     84.49565     168.9242     337.6471      1.053     3.42     1014.955     59.50988      133.205         5     0.780     0.433  28.85   3
       295    406.8230    490.9872 307.7408418  +6.4779935     30890.84     60135.84     66902.39     84.36142     168.6557     337.5128      2.089     5.94     1017.037     59.50988     3731.564        72     2.182     1.154 -26.43   0
       296    614.8234    490.6817 307.6544624  +6.4850584     9323.646     17477.77     19500.62     84.49565     168.5212     337.5128      2.019     5.90     1011.688     59.50988     1156.647        46     2.069     0.991 -26.79   0
       297    256.4644    491.1461 307.8032841  +6.4729031     638.3337     1029.251     1350.162     84.62966       168.79       337.58      1.818     4.38     1020.842     59.50988     94.36548         7     0.918     0.596  -7.37   0
       298    172.0528    488.5852 307.8384271  +6.4711367     14119.56     28537.86     31831.83     83.95745       168.79     337.3113      2.162     5.58     1025.337     59.50988     1500.461        65     2.141     1.278 -22.37   0
       299    138.0090    489.7642 307.8525266  +6.4695100     1218.456     2466.565     2282.031     84.09232     168.5885     337.3785      1.978     7.31     1026.947     59.50988     151.5074        18     1.877     0.797 -27.79   0
       300    948.7455    489.1319 307.5158204  +6.4968072     872.1946     1445.467     1393.112     84.62966       168.79     337.5128      1.997     5.61     999.2467     59.50988      150.896        12     1.636     0.543 -25.77   0
       301    877.0068    488.5159 307.5456377  +6.4946783     651.2867     1039.008     999.1066     84.22698     168.5212     337.4457      2.075     4.87     1002.975     59.50988     118.9091         8     1.526     0.441 -29.63   0
       302    788.5278    488.5933 307.5823848  +6.4917045      739.236     1386.601     1301.751     84.22698     168.3867     337.5128      1.994     5.64     1006.185     59.50988     138.3541        10     1.684     0.531 -25.17   0
       303    536.6429    487.4063 307.6870426  +6.4838053      1996.46     4041.656     4241.153     84.09233     168.5212     337.3113      2.170     6.82     1014.116     59.50988     227.1469        27     1.895     0.969 -24.84   0
       304    910.4126    484.5767 307.5318931  +6.4974159     3872.967     6778.486     6857.858     84.36143     168.6557     337.5128      1.854     7.08     1001.376     59.50988     518.2271        26     1.880     0.748 -27.04   0
       305    583.6816    483.0344 307.6676511  +6.4871799     4728.875     9307.117      10811.7     84.49565     168.8571     337.6136      2.106     6.09     1012.505     59.50988     622.1727        40     2.094     0.977 -24.90   0
       306     71.3410    483.4263 307.8804263  +6.4698953      887.787     1739.461     2008.206     84.22698     168.8571     337.4121      1.960     5.84     1028.884     59.50988     155.6863        12     1.374     0.798   2.93   0
       307    933.0721    476.7999 307.5227391  +6.5013817     2667.774       4733.7       5238.4     83.82236     168.3194     337.4457      1.822     6.73     999.8804     59.50988     372.9158        23     2.039     0.662 -27.65   0
       308    495.7923    474.2946 307.7044458  +6.4878597     5578.824     10784.21     12110.54     84.36142     168.5212     337.4121      2.101     6.00     1013.644     59.50988     669.8215        37     2.051     0.949 -25.91   0
       309    341.7717    474.6366 307.7684045  +6.4825757     1979.053     3688.466     3823.708     84.22698     168.5885     337.4121      1.879     6.01     1017.152     59.50988     248.2905        25     1.806     0.887 -24.47   0
       310    852.3298    470.0994 307.5564981  +6.5014670     2558.271     4826.873     5493.146     84.49565     168.9913     337.6471      1.989     6.38     1003.139     59.50988     365.3115        25     1.952     0.759 -22.85   2
       311    859.6078    464.4701 307.5536618  +6.5040347     1813.293     3347.911     3551.697     84.09233      168.454     337.5128      2.010     6.66      1002.63     59.50988     259.7214        19     1.826     0.688 -28.69   3
       312    200.8439    469.3187 307.8271129  +6.4800601     619.4636     876.3784     530.8723     84.62966     168.8571       337.58      1.583     5.46     1022.768     59.50988     89.46259         6     1.366     0.615 -46.47   0
       313    899.0807    463.6921 307.5372922  +6.5056680     899.5866     1605.386     1247.517     84.36142     169.1254     337.6807      1.782     6.55     1000.946     59.50988     165.7675        12     1.758     0.684 -21.68   0
       314    683.5705    460.5803 307.6269090  +6.4997849     2269.421     4281.338     4584.819     84.22698     168.6557     337.4793      2.048     6.83     1008.382     59.50988     338.5239        27     2.049     0.841 -27.22   0
       315    354.4098    458.7203 307.7636860  +6.4895737     2661.334     4911.115     6098.796     84.22698      168.454     337.4793      2.090     6.92     1015.486     59.50988     358.4735        33     2.214     0.937 -23.43   0
       316     43.7252    460.6219 307.8926579  +6.4783911     1056.152     1466.142     1870.063     84.22698     168.7228     337.5464      1.481     3.93     1028.758     59.50988     200.5471         8     1.045     0.635 -62.28   3
       317     46.5158    459.0225 307.8915524  +6.4791454     1319.727     2063.318     2037.874     84.49565     168.5212     337.5128      1.649     5.08     1028.647     59.50988     186.4163        11     1.226     0.832 -75.87   3
       318    395.3694    458.3661 307.7466858  +6.4910883     802.1573     1366.053     1675.601     84.09233     168.5885     337.3449      2.001     5.98     1014.695     59.50988      142.067        11     1.726     0.848 -25.04   0
       319    582.2750    455.2822 307.6691583  +6.4985989     7530.901     14353.38     16511.09     84.89706     169.1924     337.6807      2.079     5.85     1010.872     59.50988     951.6788        45     2.149     0.991 -26.96   0
       320    745.2057    451.4974 307.6016102  +6.5055894      12339.2     23502.44     26668.79     84.36143     168.5212     337.3785      2.090     7.03      1006.83     59.50988     1682.154        61     2.494     1.045 -36.62   0
       321    264.7425    452.2365 307.8011442  +6.4892550     1987.267      3821.49     4294.887     84.62966     168.8571     337.6136      2.077     6.48     1017.931     59.50988     248.8423        28     1.910     0.937 -27.82   0
       322    347.7120    448.7045 307.7668018  +6.4934878     1276.542     2560.916     3292.945     84.62966     169.2593     337.6807      2.124     7.35     1014.696     59.50988     157.6902        19     1.778     0.871 -24.93   0
       323    774.2802    448.5873 307.5896304  +6.5077591      989.252     1578.417     1717.457     84.22698     168.5212     337.4457      2.010     5.92     1005.373     59.50988     161.1324        12     1.746     0.565 -26.71   0
       324    930.1044    446.8020 307.5249660  +6.5136769     1662.612     2928.278     3213.496     84.09232     168.5212     337.2441      1.928     5.94     998.7941     59.50988     286.1155        19     1.885     0.712 -23.65   0
       325    720.6465    442.6984 307.6121032  +6.5084073     1846.671     3497.006     3679.566     84.62966     168.6557     337.8149      2.038     7.58      1006.97     59.50988      233.289        23     1.967     0.818 -25.59   0
       326    984.2452    441.4880 307.5026536  +6.5176703     3417.646     6504.092     7211.559     84.62966     168.7228     337.6471      2.054     6.39     995.7884     59.50988     364.0453        35     2.100     0.975 -16.07   0
       327    240.1434    440.8605 307.8117406  +6.4931322     1169.746     2256.864     2510.426     84.76347     168.8571     337.6471      2.300     7.55     1018.801     59.50988     157.1946        17     2.094     0.763 -14.12   0
       328    318.4875    438.4425 307.7792820  +6.4967508      2285.18     4397.528     4837.229     84.62967     168.7228     337.6471      2.148     6.25     1014.647     59.50988     269.6371        28     1.935     0.955 -25.28   0
       329    674.3299    436.3987 307.6315506  +6.5094678     1268.869     2353.441     2561.534     84.09233     168.3867     337.4457      1.943     6.75     1007.507     59.50988     157.5727        16     1.538     0.830 -28.52   0
       330     82.3227    443.8187 307.8771894  +6.4866265     3288.883     6311.662     7412.221     84.09232     168.5885       337.58      2.105     5.77     1027.058     59.50988     396.4901        34     1.930     1.004 -27.56   0
       331    206.1080    434.3369 307.8260945  +6.4946886     543.4385     1099.825     1004.602     84.62966     168.9913     337.6807      2.071     4.21     1020.427     59.50988     95.83838         5     1.611     0.313 -29.40   0
       332    516.3281    429.0920 307.6974208  +6.5072201     740.9417     1346.051     793.8856     84.49565     169.0583     337.6136      1.772     5.18     1010.205     59.50988     95.13391         9     1.340     0.565 -21.70   0
       333    437.9820    427.0822 307.7300291  +6.5054360     994.4889     2037.346     1900.932     84.22698     168.5212     337.5464      2.104     7.50     1011.423     59.50988       131.33        18     1.950     0.808 -14.10   0
       334    800.6127    426.3523 307.5794309  +6.5178216     1119.752     2231.813     1900.604     83.95746     168.7228     337.3113      2.024     7.04     1003.483     59.50988     174.7937        18     1.844     0.753 -18.96   0
       335    786.1080    425.3769 307.5854880  +6.5177421     1469.578     2826.515     3136.309     84.62966     168.6557     337.4457      1.996     7.06     1003.944     59.50988     198.9146        21     2.036     0.687 -25.58   0
       336    683.4769    423.4969 307.6281800  +6.5151028     11084.33     21128.42     23284.62     84.22698     169.0583     337.6807      2.038     6.06     1006.772     59.50988     1412.633        50     2.104     1.021 -24.03   0
       337    604.4908    419.6495 307.6611158  +6.5140609     1840.099     3687.684     4434.563     84.62966     168.6557     337.7813      2.203     6.46     1008.591     59.50988     223.0073        25     1.936     0.913 -20.27   0
       338    579.8734    416.7059 307.6714389  +6.5144566     3861.074     7450.841     8710.686     84.49565     168.9913     337.6136      2.024     6.14     1008.493     59.50988     492.8753        28     1.949     0.843 -24.36   3
       339    575.9484    414.0139 307.6731587  +6.5154379     10642.43     20995.65     23747.83     83.95746       168.79     337.3449      2.123     5.78     1008.215     59.50988     1295.863        52     2.167     1.086 -25.07   3
       340    908.5631    413.4233 307.5350200  +6.5267519     2939.529      5278.03      5517.75     84.22698     168.5885     337.3785      1.877     7.17     998.2544     59.50988     446.1491        24     1.804     0.798 -24.19   0
       341    347.9268    409.3749 307.7680237  +6.5097438     20828.28     40909.12        46002     84.22698     168.7228     337.5464      2.094     5.71      1011.42     59.50988     2487.845        61     2.165     1.140 -25.71   0
       342    864.2542    409.0300 307.5535706  +6.5270945     1149.088      2203.17     2777.613     84.36142     168.9242     337.5128      2.241     6.78     1000.045     59.50988     179.0501        15     1.814     0.710 -18.80   0
       343     93.9296    408.6938 307.8735428  +6.5015267      1698.92     3266.728     3567.597     84.62966     168.9242     337.6136      2.064     7.02      1024.85     59.50988     207.5469        23     1.732     0.967 -21.28   0
       344    877.5492    403.7724 307.5482225  +6.5297086     4101.962     7476.859     8356.483     84.22698     168.9913     337.5464      1.980     6.64     999.2295     59.50988     574.1268        30     2.020     0.791 -25.91   0
       345     27.5224    404.5887 307.9012612  +6.5009971     1113.896     2172.159     2420.596     84.22698      168.454     337.4457      2.266     7.23     1028.169     59.50988     155.1379        17     1.761     0.831  -8.39   0
       346    205.4553    399.9164 307.8275148  +6.5088872      10177.7     19715.83     21552.62     84.62966     168.8571     337.7142      2.076     5.75     1018.684     59.50988     1248.614        51     2.084     1.156 -25.64   0
       347    700.4505    393.6965 307.6221198  +6.5279801     608.8413     1120.739     1200.538     84.49565       168.79     337.8149      1.949     4.36     1004.426     59.50988     88.05798         7     0.995     0.545 -32.27   0
       348     41.5776    393.6479 307.8957895  +6.5059883     594.4625     923.2009     741.0191     84.22698     168.8571     337.4793      1.685     3.75     1026.815     59.50988     103.3368         5     0.951     0.433  13.76   0
       349   1010.2144    390.4721 307.4935563  +6.5396099     7366.519     13108.08     13758.16     84.09233     168.7228     337.4793      1.852     6.75     992.5656     59.50988     1244.156        36     1.987     0.815 -26.14   0
       350    928.4500    392.2319 307.5274618  +6.5361679     816.8287     1316.307      1271.71     84.49565     168.8571     337.5464      1.697     5.03     996.6918     59.50988     123.0574         9     1.589     0.451 -17.65   0
       351    318.2825    390.0974 307.7809795  +6.5167174     940.4518     1911.239     2109.919     84.62966     169.2593     337.6807      2.229     5.30     1011.876     59.50988     161.6132        11     1.466     0.674 -21.88   0
       352    105.5971    388.5686 307.8693694  +6.5102320     3786.564     7538.323     8498.981     83.95746     168.6557     337.3785      2.064     5.93     1023.664     59.50988     448.4012        33     2.052     0.938 -24.67   0
       353    210.7289    387.4986 307.8257389  +6.5141939     1057.278     2062.843     2453.688     84.49565     169.0583       337.58      2.141     7.92     1017.626     59.50988     139.9702        21     1.966     0.893 -20.70   0
       354    127.7251    384.3764 307.8603188  +6.5127051     1952.117     4133.755     4581.499     84.22698     168.6557     337.5464      2.159     6.76     1022.605     59.50988     199.3352        30     1.868     1.116 -32.47   0
       355    523.6188    382.9940 307.6959268  +6.5265086     659.5696     1106.296     1467.534     84.22698      168.454     337.4121      1.789     4.30     1005.507     59.50988     112.8075         8     1.121     0.569  22.07   0
       356    351.1424    379.2766 307.7676916  +6.5222861     1426.002     2602.485     2740.497     84.62966       168.79     337.5464      1.935     7.13     1009.965     59.50988      170.486        20     1.745     0.815 -29.08   0
       357    217.9765    379.4186 307.8229984  +6.5177746     8519.148     9052.286      10278.8     84.36142       168.79     337.5464      0.627     1.06     1016.687     59.50988     4174.215         8     0.565     0.347 -87.79   2
       358    939.7422    378.0673 307.5232407  +6.5423952     819.6591     1381.258     1373.614     84.76347       168.79     337.6136      1.864     5.28      995.548     59.50988     132.7818         9     1.476     0.534 -31.19   0
       359    405.0364    372.7702 307.7455228  +6.5267746     5308.426     10539.64     11785.64     84.22698     168.5885     337.4457      2.116     6.01     1007.197     59.50988     609.6816        43     2.076     1.062 -27.15   0
       360      2.6318    372.9494 307.9126575  +6.5132338     2364.108     3741.308     4064.493     84.49565     153.3093     275.7973      1.717     5.26     1027.132     59.50988     302.1775        24     1.623     0.940 -51.79  24
       361    745.6456    370.1152 307.6041299  +6.5392273     9909.623     18385.16     20620.99     84.62966       168.79     337.6136      1.985     6.14     1001.356     59.50988     1305.408        50     2.112     0.984 -22.95   2
       362    737.4193    371.8198 307.6074904  +6.5382492     1504.101     3034.337     3407.479     84.36143       168.79     337.5464      2.104     6.98     1001.678     59.50988     217.3365        18     1.855     0.752 -27.30   3
       363    309.5998    368.4827 307.7853068  +6.5253570     751.1071     1217.352     1206.897     83.82236     168.3194     337.2441      1.892     6.44     1011.276     59.50988     99.90875        12     1.695     0.688 -29.32   0
       364    989.4575    365.2254 307.5030148  +6.5493518       2901.8     5225.142     5527.937     84.22698     168.8571     337.4793      1.890     6.80     991.9163     59.50988     437.6375        22     1.943     0.666 -26.14   0
       365    153.0863    361.4953 307.8505494  +6.5230074     690.3511     1391.475     1454.912     84.62966     169.2593     337.6807      2.179     4.09     1020.899     59.50988     113.9319         5     1.192     0.400 -15.49   0
       366    358.3728    360.2208 307.7653236  +6.5304005     409.1186     723.9754      341.124     84.22698     168.6557     337.5464      2.174     6.53     1008.752     59.50988     91.25043         7     1.489     0.804 -37.74   2
       367    425.2124    357.3676 307.7376554  +6.5338119     1718.069     3219.513     3396.302     84.09233     168.5885     337.5128      1.965     5.91     1004.822     59.50988     267.7961        22     1.814     0.812 -34.92   0
       368    453.0442    356.4783 307.7261244  +6.5351085     2398.264     4413.258     4912.069     84.49565     168.8571     337.6471      1.975     5.94     1003.706     59.50988     308.7769        26     1.840     0.878 -25.17   0
       369    882.1278    356.0121 307.5479045  +6.5495931     734.0383     999.9102     804.9702     84.09232      168.454     337.4121      1.722     5.05     997.0539     59.50988     113.3922         9     1.339     0.538 -16.01   0
       370    811.0388    353.0152 307.5775339  +6.5484678     25617.06     48909.24     53386.04     84.36142     168.6557     337.3449      2.051     6.02     998.9661     59.50988      3438.82        65     2.101     1.108 -28.16   0
       371    582.9071    345.3093 307.6725536  +6.5440551      2056.92     3922.847     4786.922     84.62966     169.3932     337.6471      2.051     6.65     1001.646     59.50988     255.7919        30     1.927     1.056 -26.14   0
       372    667.4739    339.0066 307.6376350  +6.5494771     60715.13     113001.6     123554.5     84.22698     168.3867     337.4457      2.015     5.82     1001.135     59.50988     7857.784        85     2.154     1.115 -25.43   0
       373    825.4990    340.3953 307.5719460  +6.5541627     860.6464     1507.695     2125.556     84.36143     168.5212     337.2441      1.877     5.54     997.7647     59.50988     137.9098        11     1.896     0.456 -26.03   0
       374     46.7202    338.8385 307.8954865  +6.5288042     1074.782     2169.767     2275.784     84.49565     168.9242       337.58      2.131     7.41      1024.26     59.50988     175.0273        20     1.894     0.812 -17.86   0
       375    529.7369    335.7538 307.6949577  +6.5462298     1955.333     3706.029     4576.609     84.49565       168.79     337.6471      2.367     7.71     1000.875     59.50988     218.6166        25     1.950     0.908 -26.74   0
       376     67.3262    334.5692 307.8870704  +6.5312587     4563.831     8988.238     9592.179     84.49565     168.8571     337.6471      2.070     5.82      1023.54     59.50988     593.6335        37     1.957     1.049 -28.87   0
       377    908.8161    335.9344 307.5374840  +6.5587752     641.8527     1223.526     894.7835     84.09232     168.7228     337.5128      1.787     5.17     994.7733     59.50988     107.4401         9     1.420     0.533 -24.13   0
       378    513.2307    331.9558 307.7019406  +6.5472483     5220.459      10021.1     11131.15     84.22698     168.9242     337.4793      2.043     5.47     1000.739     59.50988     614.8948        39     2.074     0.984 -24.81   0
       379    242.2512    329.5485 307.8145803  +6.5391900     2064.642     3990.676     3667.567     84.62966     168.7228     337.6136      2.025     6.58     1013.323     59.50988     276.9093        28     1.997     0.914 -29.06   0
       380    376.1236    327.0675 307.7590556  +6.5446906     18924.55     37137.38      41413.4     84.76347     168.9913       337.58      2.129     5.71     1005.882     59.50988     2315.822        64     2.151     1.196 -26.47   0
       381    481.9653    327.0000 307.7150929  +6.5482526       649.34     829.9816     770.4906     83.55154     168.5885     337.3785      1.441     3.78     1000.825     59.50988      118.194         5     0.839     0.490 -27.21   3
       382    484.6722    325.3454 307.7140235  +6.5490265      830.017     1248.287     1253.198     84.49565     168.7228     337.5464      1.836     4.35     1000.662     59.50988     108.6625         7     1.165     0.462  -3.69   2
       383    356.6198    325.0836 307.7672232  +6.5448585     890.6791     1633.881     2753.461     84.22698     168.5212       337.58      2.768     5.35     1006.767     59.50988     98.57562        11     1.101     0.733 -15.28   0
       384    455.7392    322.5582 307.7261348  +6.5492123     845.8495     1635.466     2040.367     84.62966     168.8571     337.7142      2.104     5.68      1001.76     59.50988     120.9438        11     1.728     0.526 -29.00   1
       385    465.2085    317.5758 307.7223673  +6.5515869     6238.163     12012.16     13482.12     84.22698     168.6557     337.4457      2.090     5.62     1001.085     59.50988     748.6328        41     2.078     1.006 -26.82   0
       386    734.3156    316.3173 307.6106230  +6.5610768     2350.952     4634.891     5198.735     84.36143     169.1254     337.6807      2.082     6.17      998.071     59.50988     346.4521        26     1.962     0.783 -20.85   0
       387    890.0561    316.2321 307.5459303  +6.5662919     706.4285     1144.088     1089.874     84.49565     168.8571       337.58      1.709     5.53      994.115     59.50988     117.2284        10     1.618     0.532 -18.57   0
       388    291.5358    314.3831 307.7946148  +6.5471038     801.3427     1748.186     1633.341     84.09233       168.79     337.4457      2.072     8.29     1009.668     59.50988     107.5524        16     1.777     1.082 -19.47   0
       389    126.9304    308.2017 307.8631943  +6.5441489      837.777     1800.167     1777.611     84.09232     168.3867     337.4457      2.642     6.55     1020.757     59.50988     139.6413        11     1.653     0.728 -29.86   0
       390    355.1588    301.6838 307.7686103  +6.5544771     5429.958     10583.41     12246.74     84.62966     168.7228     337.5128      2.113     5.97     1005.451     59.50988     650.3679        41     2.129     1.059 -27.51   0
       391    210.8370    302.2033 307.8285419  +6.5494363     1592.016      3202.43     3473.124     83.68706     168.5885     337.4121      2.124     7.22     1015.043     59.50988     214.5063        26     1.854     0.936 -29.09   0
       392    708.9018    301.2933 307.6216791  +6.5664380     685.9917     1375.406     1594.412     84.62966     169.4601     337.5464      2.208     7.11     997.3011     59.50988     114.0997        14     1.811     0.782 -24.42   0
       393    722.9648    297.6010 307.6159599  +6.5684316     40942.88     77200.18     83877.84     83.68706     168.6557     337.4121      2.010     5.99      997.007     59.50988     5424.664        71     2.094     1.079 -24.97   0
       394    394.6122    297.1851 307.7523717  +6.5576539     1679.575     3303.709     3925.953     84.49565     168.5212     337.5464      2.040     6.33     1003.458     59.50988     213.4001        25     1.949     0.864 -33.50   0
       395    957.6196    294.5851 307.5185811  +6.5774800     1325.953     2517.881     2524.464     84.36143     168.5885     337.5128      1.850     6.68     989.6148     59.50988     187.4791        16     1.905     0.658 -23.71   0
       396    896.6761    294.6480 307.5438960  +6.5754295     1490.035     1925.616     2494.238     84.49565     168.9242       337.58      1.305     3.04     992.3649     59.50988     241.6892         9     0.845     0.775   6.64   3
       397    899.5251    293.4571 307.5427520  +6.5760162      1610.44     2452.902     2596.808     84.49565       168.79       337.58      1.722     3.49     992.0914     59.50988     247.1271        12     1.194     0.685 -22.97   3
       398    541.2715    294.5452 307.6915378  +6.5636398     816.9731     1534.483      1269.59     84.49565     168.7228       337.58      1.898     4.10     997.0311     59.50988     127.5602         8     1.056     0.496  -2.66   0
       399    380.9568    292.8459 307.7581887  +6.5589904     1552.122      3072.55     3207.934     84.62966     168.8571     337.5464      2.149     7.81     1003.838     59.50988     182.4814        24     1.888     0.909 -23.62   0
       400    431.6204    292.8658 307.7371427  +6.5606743     589.6376     1312.069     1596.787     84.22698     168.8571     337.4793      2.108     6.75     1001.562     59.50988     101.0767         9     1.741     0.733  -2.71   0
       401    801.7261    287.2871 307.5835840  +6.5753138     832.9137     1389.333     1415.063     84.76347     169.1924     337.6136      2.029     6.18     995.0824     59.50988      131.373        10     1.509     0.711  -7.80   0
       402    158.0081    283.9234 307.8510966  +6.5552199     1594.685     3017.914     3303.388     84.22698     168.3194     337.4121      1.985     7.38     1018.909     59.50988     215.0076        22     1.636     0.932 -30.50   0
       403    721.3210    282.1813 307.6171550  +6.5747475     4558.565      8476.28     9415.618     84.22698     168.5212     337.5464      2.006     6.22     995.9663     59.50988     583.5778        35     1.999     0.913 -25.48   0
       404    411.8581    284.3062 307.7456371  +6.5635507     733.9467     1502.384     1700.957     84.49565     168.8571     337.8149      2.217     5.73     1002.144     59.50988     112.8463        10     1.555     0.595 -16.88   0
       405     53.7017    281.3611 307.8945089  +6.5527840     839.0596      1456.12     1833.713     84.62966     168.7228     337.8484      2.094     5.97     1023.422     59.50988     118.7631        12     1.629     0.615 -24.36   0
       406    737.6368    280.2719 307.6104406  +6.5760795     2076.545     3721.331     3623.079     84.49565     168.8571     337.6471      1.935     6.22     995.8274     59.50988     309.2054        24     1.938     0.780 -20.29   0
       407     42.3727    275.3333 307.8994163  +6.5548945      876.592     1898.099     2464.306     84.22698     168.7228     337.5464      2.353     5.36     1023.858     59.50988     144.2821         9     1.505     0.538 -37.54   2
       408    976.0403    270.9711 307.5117113  +6.5878479     4797.409     8770.293     9495.191     84.22698     168.5885     337.4792      1.906     6.34     987.5743     59.50988     719.7522        31     1.995     0.819 -24.14   0
       409    453.9190    271.0487 307.7286067  +6.5704324     1562.891     2978.836     3120.927     84.62966     168.8571     337.6471      2.020     6.33     998.9567     59.50988     188.9275        19     1.678     0.786 -26.90   0
       410    216.6614    266.5182 307.8273141  +6.5643740     4313.221     8344.793     9911.711     84.76347     168.8571     337.6136      2.169     5.97     1014.365     59.50988     478.9774        40     2.019     1.086 -26.10   0
       411    884.9342    264.8487 307.5497622  +6.5873509      428.632     631.9951     493.5389     84.49565     168.7228     337.6471      1.116     3.40     991.2075     59.50988     91.93823         5     1.552     0.216 -26.78   0
       412    327.4590    274.7854 307.7810136  +6.5646642     1464.368     2788.034     3770.434     83.95746     168.8571     337.3449      2.230     7.77     1005.977     59.50988     212.1332        25     2.192     0.865 -16.77   0
       413    350.9790    257.3612 307.7718245  +6.5726489     1076.172     2617.582      3360.67     84.22698     168.6557     337.3449      2.660     8.39     1003.628     59.50988     134.8618        23     2.054     0.957 -27.62   0
       414    937.3622    256.1954 307.5282690  +6.5926681      792.433     1134.084      1904.37     83.68706     168.5885     337.3449      1.625     5.10      988.223     59.50988     103.2236        10     1.349     0.545 -23.65   0
       415    273.1197    253.3781 307.8043003  +6.5716915     843.2534     1786.043     1467.745     84.22698     168.5212       337.58      2.140     6.46       1009.8     59.50988     112.0187        12     1.640     0.715 -33.61   0
       416    120.8067    253.0893 307.8675799  +6.5667126     1357.344     2869.172     2481.389     84.09232     168.5212     337.3785      1.989     7.46     1019.471     59.50988     163.5425        22     2.090     0.746 -27.50   0
       417    530.2775    248.5746 307.6976349  +6.5822656     1719.581     3297.044      3209.71     84.22698       168.79       337.58      2.058     6.82      994.615     59.50988     207.4426        24     1.825     0.929 -23.16   0
       418    873.7794    248.2188 307.5549478  +6.5938508     1289.544     2620.658     2728.148     84.36142       168.79     337.5128      2.092     6.35     990.8668     59.50988     220.7797        16     1.805     0.627 -29.28   0
       419    693.7053    246.3947 307.6298162  +6.5886132     3849.569     7263.407     7929.586     84.36143     168.5212     337.3449      1.994     5.97     993.7598     59.50988      481.112        32     1.967     0.909 -27.54   0
       420    634.6956    246.1616 307.6543379  +6.5867438     1551.093     3148.543     3363.441     84.62966     168.7228     337.7478      2.062     6.50     994.1535     59.50988     211.7653        21     1.784     0.807 -25.91   0
       421    932.7255    245.6295 307.5305455  +6.5968793     582.1567     865.7201     1074.629     84.49565     168.8571     337.6136      1.254     3.13     987.7721     59.50988     109.6277         5     0.712     0.473  10.34   0
       422    890.9349    238.2051 307.5481530  +6.5985582     787.7386     1503.421       1938.9     84.09232     168.5212     337.3785      2.210     3.43     989.4443     59.50988     130.5949         7     0.950     0.574   6.61   2
       423    192.9848    231.8611 307.8383067  +6.5778996     1527.883     3139.544     3784.159     84.09232       168.79     337.3785      2.241     7.91     1015.395     59.50988     183.5369        25     2.040     0.857 -23.16   0
       424    836.1045    230.5231 307.5711864  +6.5999093     1426.557     2406.403     3126.282     84.36142     168.9913     337.7142      2.020     6.33     991.4406     59.50988     199.7344        17     1.808     0.622 -24.18   0
       425    726.0834    230.1485 307.6169053  +6.5964034     1272.047     2169.082     2546.832     84.62966       168.79     337.7142      1.900     6.44     992.7792     59.50988     206.8179        20     1.824     0.756 -24.89   0
       426    427.5586    221.2212 307.7412172  +6.5901381      16627.4     32665.62     37852.24     84.22698     168.6557     337.4121      2.189     6.21     997.5689     59.50988     2015.611        78     2.611     1.205 -32.26   0
       427    288.7925    223.0630 307.7988013  +6.5847399     556.6652     925.5332     595.7455     83.95745     168.5885     337.4121      1.640     4.23     1008.288     59.50988      86.8717         6     1.191     0.428  61.78   0
       428    753.2719    220.6487 307.6059258  +6.6012333     10264.61     19285.98     21387.55     84.62966     168.9242     337.6471      2.032     6.09      992.228     59.50988      1287.26        45     2.174     0.960 -23.44   0
       429    115.6134    214.7846 307.8710175  +6.5823635     1642.688     3207.751     3238.838     84.36143     168.5212     337.5464      2.086     7.30     1018.439     59.50988      207.236        22     1.775     0.840 -27.47   0
       430    693.7672    215.3608 307.6308219  +6.6014369     590.8384     956.9968     1826.462     84.36143     168.6557     337.4121      1.489     3.47      992.162     59.50988     96.65875         5     0.758     0.459 -13.47   0
       431     90.3664    213.4901 307.8815485  +6.5820524     792.1693     1352.108     1633.935     84.76347     168.7228     337.6136      1.864     6.82     1019.719     59.50988     113.6262        11     1.599     0.817 -19.64   0
       432    889.5148    211.1210 307.5496413  +6.6097008     1252.338      2182.88     2735.398     84.49565     169.1924     337.7142      1.897     5.66     987.7631     59.50988     176.2825        13     1.406     0.642 -27.16   0
       433    551.2045    207.1883 307.6903189  +6.6000621     3468.038     6764.233     7339.174     84.22698     168.5885     337.4793      2.033     6.08     992.5614     59.50988     451.1849        33     2.015     0.965 -27.49   0
       434    272.0964    208.4690 307.8062241  +6.5902109     861.6369      1688.17     1343.595     84.49565     168.9913     337.6136      1.857     5.94     1010.375     59.50988     117.3235        12     1.759     0.565 -30.71   0
       435    514.2278    207.3430 307.7056750  +6.5987647     1510.436     2973.224       3571.7     84.22698     168.9242     337.5128      2.055     8.28     992.9326     59.50988     206.0504        24     2.176     0.881 -23.00   0
       436    355.4677    206.7375 307.7716480  +6.5937136     1077.453     1971.383     1787.505     84.62966       168.79     337.6471      1.944     7.07     1001.801     59.50988     161.5264        15     1.645     0.853 -22.34   0
       437    912.1940    204.2778 307.5404463  +6.6132818     2126.951     4022.361     4283.272     84.22698     168.3194     337.3785      1.951     6.45     986.2375     59.50988      369.239        23     1.864     0.800 -22.73   0
       438    858.2916    203.7816 307.5628563  +6.6116953     9083.017     16271.27     17519.56     84.49565     168.5885     337.4793      1.899     6.26     988.6841     59.50988     1266.163        34     1.953     0.840 -25.35   0
       439    286.9927    203.5663 307.8001996  +6.5927346     746.4879     1280.766     1658.313     84.09232     168.6557     337.4121      2.460     4.62     1009.512     59.50988     106.2719         7     0.983     0.615 -53.86   0
       440    945.0009    201.6177 307.5269049  +6.6154707     7858.823     14435.78     15373.31     84.22698     168.3867     337.2777      1.905     6.30     984.9737     59.50988     1203.012        36     1.964     0.851 -24.77   0
       441    656.6536    201.4379 307.6467030  +6.6059529     2285.731     4366.586     4438.582     84.49565     168.9242     337.6136      1.962     5.58     992.1058     59.50988     300.3724        26     1.748     0.900 -21.96   0
       442    230.8653    201.2250 307.8235940  +6.5918243     775.2955     1581.649     1565.048     84.22698     168.8571     337.4793      2.159     5.21     1013.212     59.50988     106.8416        10     1.292     0.592 -19.53   0
       443    465.0634    196.5427 307.7264590  +6.6015860     1438.322     2541.272     2487.303     84.76347       168.79     337.6471      1.896     5.55     993.9735     59.50988     201.8929        21     1.687     0.947 -20.63   0
       444    796.5648    193.3028 307.5888483  +6.6139718     1494.769     2759.902     2578.578     84.62966     168.7228     337.7813      1.948     6.00     990.3615     59.50988     206.8141        21     1.788     0.816 -28.32   0
       445    476.9286    192.5849 307.7216617  +6.6036172     1822.649     3443.118     3598.091     84.09232     168.7228     337.4793      1.954     6.46     993.2241     59.50988     254.0914        22     1.832     0.801 -23.75   0
       446    849.0870    192.2814 307.5670619  +6.6161406     1603.002     3240.541     3325.102     84.36142     169.1254     337.7478      2.175     6.50     988.1033     59.50988      255.875        22     1.922     0.766 -22.25   0
       447    311.6165    189.0366 307.7904552  +6.5995607     4532.332     11088.81     13889.46     84.22698     168.7228     337.3785      2.588     6.90     1007.161     59.50988      463.312        62     2.328     1.505 -46.55   0
       448    708.5030    189.7312 307.6255518  +6.6125164      30997.1      57758.7     63168.31     84.49565     168.9913     337.6136      1.981     5.86     991.1617     59.50988       4024.7        66     2.103     1.078 -25.40   0
       449    942.1498    188.6170 307.5285204  +6.6207473     2242.093     4317.838     4698.335     84.09232     168.9242     337.3449      1.939     6.89     984.3467     59.50988     343.9986        23     1.938     0.744 -20.52   0
       450    980.5808    187.2354 307.5125998  +6.6225944     1384.788     2523.754     2832.874     84.09233     168.6557     337.3785      1.966     6.65     983.4631     59.50988     270.4058        17     1.827     0.679 -24.54   0
       451    876.3481    186.8633 307.5559160  +6.6192853     5821.805     10946.54     11620.11     84.62966       168.79       337.58      1.975     6.56     986.5375     59.50988     813.4348        36     1.995     0.892 -21.96   0
       452    419.9252    185.9103 307.7455651  +6.6044716     3624.792     7179.995     7765.045     84.62966     169.1924     337.6807      2.090     5.92     995.5636     59.50988     443.9412        35     1.960     1.016 -24.43   0
       453    194.4164    182.8444 307.8393493  +6.5981980     597.8411     925.2902     754.8126     84.09232     168.7228     337.3785      1.436     3.60     1014.068     59.50988     110.6086         5     1.047     0.356   3.84   0
       454     77.4074    177.1994 307.8881452  +6.5966109     3536.302     7016.723     7354.095     83.95746     168.5212     337.4121      2.073     5.75     1018.795     59.50988     443.8083        34     2.004     0.975 -25.48   0
       455    894.7970    176.5967 307.5485919  +6.6241401     613.3669     1032.228     1362.006     83.95746     168.3867     337.4121      1.945     5.19     985.0935     59.50988     92.79138         8     1.105     0.689  40.22   0
       456    247.6514    173.8915 307.8175333  +6.6036784     24943.71     48871.36     54682.62     84.49565     168.6557     337.8149      2.126     5.66      1012.26     59.50988     2878.303        71     2.193     1.198 -25.49   0
       457    222.9092    174.9662 307.8277759  +6.6024064     4786.149     9588.249     10611.16     84.76347     168.7228     337.6136      2.124     6.00     1012.996     59.50988      543.623        43     2.111     1.092 -24.73   0
       458    575.4158    175.2095 307.6813249  +6.6140814     566.3724     959.9528     1070.812     84.36143     168.5885     337.5128      1.715     3.51     991.5898     59.50988     85.77344         5     0.799     0.446  71.53   0
       459    677.0005    173.3971 307.6391822  +6.6182156     776.0548     1344.952     1386.674     83.95745     168.3867     337.3449      1.942     4.94     991.2332     59.50988     127.4883         7     1.298     0.532 -20.12   0
       460    388.6786    170.0984 307.7590730  +6.6099604     1069.061     2263.841     2047.629     84.22698     169.1254     337.6471      2.090     6.67     997.4979     59.50988     153.6096        17     1.814     0.845 -37.83   0
       461    371.6985    169.3951 307.7661505  +6.6096836     37117.36     72612.81     80214.65     84.36143     168.5212     337.2441      2.100     5.72     999.3013     59.50988     4368.355        73     2.160     1.207 -23.33   0
       462    127.8245    170.6491 307.8674202  +6.6010064     2996.411     5890.447     6284.208     84.22698     168.9242     337.5128      2.060     6.14     1016.074     59.50988     357.0743        29     1.915     0.957 -19.20   0
       463    276.4227    167.1234 307.8058069  +6.6074369     12903.89     25832.06     31420.73     84.22698     168.7228     337.5128      2.375     6.85     1011.752     59.50988     1556.262        80     2.936     1.280 -10.22   0
       464    710.9581    165.6336 307.6253326  +6.6225540     25231.65     47301.25     51290.18     84.36142     168.8571     337.4457      2.007     6.03     990.2125     59.50988     3264.441        60     2.122     1.020 -26.58   0
       465    658.8905    167.6137 307.6468983  +6.6200018     861.7126     1612.125     1588.785     84.36142     168.5885     337.4121      2.016     7.16     991.2473     59.50988     122.0861        15     1.731     0.894 -33.54   0
       466    759.0353    166.2490 307.6053383  +6.6239002     1054.406     1902.188     2429.668     84.49565     168.9242     337.5464      2.026     5.76     989.2396     59.50988     148.6604        13     1.434     0.652 -27.29   0
       467     27.8903    162.8995 307.9091936  +6.6008586     6970.393     13472.02     14738.44     84.62966     169.3263       337.58      2.070     5.77     1021.018     59.50988     825.1712        48     2.134     1.058 -25.13   0
       468     62.1237    160.8991 307.8950394  +6.6028328      1086.22     2182.058     2131.464     84.22698     168.9913     337.6136      2.148     7.49     1018.956     59.50988     153.6273        15     1.735     0.904 -24.92   0
       469    969.3247    160.1835 307.5181729  +6.6333972     872.0735     1462.079     1505.167     84.09232     168.5885     337.5128      1.766     5.62     982.4161     59.50988     142.2424        11     1.758     0.507 -29.77   0
       470    970.3995    146.1338 307.5181920  +6.6392375      1799.14     3366.018     4510.245     83.82236     168.3867     337.3449      2.009     6.81     981.7962     59.50988     282.3586        21     1.883     0.732 -22.45   0
       471    552.5847    144.0437 307.6918472  +6.6261960     834.2261     1513.285     1042.624     84.09232     168.6557     337.3449      2.391     5.49     990.5049     59.50988     129.8832        10     1.577     0.539 -10.14   0
       472    561.9718    142.0540 307.6880136  +6.6273311     1434.763     2565.387     2494.341     84.36142     168.9242     337.5128      2.039     7.03     990.4158     59.50988     182.1864        19     1.893     0.731 -28.00   0
       473    305.4451    142.3502 307.7945767  +6.6186423     757.0394     1464.753     2025.955     84.62966     168.7228     337.6136      2.177     5.53     1009.099     59.50988      108.858         7     1.524     0.565 -15.17   0
       474    246.5122    140.2112 307.8191310  +6.6175547      22323.2     44001.03     49647.63     84.22698     168.5885     337.4793      2.129     5.68     1012.128     59.50988     2602.353        71     2.274     1.177 -24.92   0
       475    678.1614    136.8455 307.6399150  +6.6333555     6262.199     11694.94     13170.04     84.36142     168.8571     337.5128      1.990     5.68     989.4659     59.50988     787.5248        38     1.950     0.992 -27.51   0
       476    155.3187    138.3927 307.8570765  +6.6152534     675.6386     1244.695     1440.333     84.22698      168.454     337.4457      1.867     5.09     1014.276     59.50988     94.96954         8     1.127     0.649   8.60   0
       477     89.1067    133.8941 307.8847333  +6.6148937     3816.551     7368.693     8004.641     84.62966     169.3932       337.58      2.032     5.90     1016.573     59.50988     472.0843        38     1.971     1.073 -26.51   0
       478    615.6899    131.5244 307.6660464  +6.6334723     622.3298      1223.67     1498.465     84.62966     169.1254     337.6471      2.296     5.35      989.844     59.50988     91.74646         6     1.091     0.741  47.64   0
       479    359.6009    130.0049 307.7724899  +6.6255529     2774.596     6042.441     7016.374     83.95745     168.3867     337.3449      2.327     5.91     1000.842     59.50988     314.1486        41     2.017     1.298 -18.60   0
       480    428.0641    131.4608 307.7439985  +6.6272386     891.6508     1579.377      1949.66     84.62966       168.79     337.6471      1.885     5.38     993.1102     59.50988     151.1107        10     1.539     0.531 -12.98   0
       481    535.5976    129.2581 307.6993968  +6.6317379     507.6276     868.2397     1360.391     83.95746     168.5885     337.3449      2.011     4.90     990.1196     59.50988     94.58887         6     1.436     0.473 -51.13   0
       482    324.1266    128.8132 307.7872673  +6.6248595     2399.927     4841.968     5096.278     84.09232     168.5212     337.3785      2.137     5.99     1006.151     59.50988     281.7537        30     1.877     1.043 -23.77   0
       483     79.0074    129.1040 307.8890890  +6.6165342     1147.642      2504.97     2907.929     84.36142      168.454     337.3785      2.342     8.01     1017.101     59.50988     147.2294        20     1.792     1.001 -11.33   0
       484    640.1517    126.9015 307.6560372  +6.6361975     620.1863     999.7673     872.3224     84.62966       168.79     337.8149      1.823     4.11     989.3627     59.50988     100.7557         7     1.482     0.325 -28.30   0
       485    970.6553    123.2111 307.5188455  +6.6487165     1177.387     2076.727     1682.106     83.95746       168.79     337.2777      1.847     5.98      980.785     59.50988     191.4476        14     1.571     0.641 -24.08   0
       486    176.0958    117.7109 307.8491361  +6.6244934     4124.829     8085.247     8915.883     84.62966     169.2593     337.6471      2.120     5.85     1013.452     59.50988     485.8527        36     2.033     1.013 -25.67   0
       487     58.5425    117.7879 307.8979692  +6.6205232     1687.456     3305.136     3641.876     83.95746     168.7228     337.3113      2.086     7.00     1018.224     59.50988     207.2809        23     1.677     0.946 -23.56   0
       488    637.6290    116.6117 307.6574275  +6.6403646     4647.957     8733.373      9610.91     84.09233     168.6557     337.4793      2.011     5.93     988.8831     59.50988     575.1323        35     2.017     0.928 -25.44   0
       489    786.3270    116.2034 307.5956617  +6.6454846     927.5577     1597.246     1251.592     84.09232     168.3867     337.4457      1.723     5.21     985.5851     59.50988     124.1442        11     1.481     0.518 -23.05   0
       490    589.8126    113.8425 307.6773857  +6.6399148      6962.73     13760.26     15883.26     83.95745     168.6557     337.3449      2.133     6.17       989.25     59.50988     868.0426        50     2.176     1.092 -24.32   1
       491    225.7817    113.7464 307.8286270  +6.6277946     444.2219     861.9086     809.5353     84.09232     168.8571     337.3785      1.617     4.38     1012.177     59.50988     108.3478         5     1.678     0.326 -29.75   0
       492    317.0049    109.6361 307.7908658  +6.6325441     2783.507     5940.787     7232.867     83.68706     168.5885     337.4121      2.386     6.41     1007.214     59.50988     338.7883        39     2.238     1.046 -34.05   0
       493   1012.6287    110.6838 307.5018216  +6.6552858     644.4676     1027.108     641.2515     84.62966     168.5885     337.4793      1.720     5.41     979.5532     59.50988     143.1289         8     1.512     0.546 -24.78   0
       494    962.9518    108.5477 307.5225322  +6.6545189     696.0567     1469.163     1697.873     84.76347     168.7228     337.6136      2.352     6.58     980.3152     59.50988     107.9672        10     1.597     0.761 -37.32   0
       495    498.9906    108.9706 307.7152810  +6.6388981     1230.098     2546.116     2498.393     84.09232     168.6557     337.4457      2.111     7.50     989.8492     59.50988     170.7809        18     1.674     1.112 -23.60   0
       496    593.4591    105.3342 307.6761538  +6.6435515     41403.47     78169.31     85978.01     84.76347       168.79     337.6471      2.034     5.74     988.8756     59.50988      4865.48        78     2.136     1.151 -24.77   0
       497    272.6992     99.0977 307.8096243  +6.6354162     2705.757      5286.42     5934.639     84.62966     169.2593     337.4457      2.079     6.35     1011.337     59.50988     327.3715        31     1.957     0.969 -22.79   0
       498    672.6680     93.7664 307.6436295  +6.6509704     867.7268     1389.969     1405.284     84.49565     168.9242     337.6807      1.839     6.54     987.0632     59.50988      146.736        13     1.629     0.737 -17.18   0
       499    644.1026     92.5400 307.6555385  +6.6505254     992.3577     1870.099     2064.298     84.36142     168.8571     337.7478      2.193     6.28     987.6146     59.50988     139.5322        14     1.507     0.736 -23.18   0
       500    657.8254     89.3752 307.6499423  +6.6522901     2397.896     4340.943     4847.178     84.09232     168.6557     337.4793      2.015     6.26     987.1716     59.50988     310.0272        26     1.880     0.845 -21.13   0
       501    399.6967     80.2990 307.7574893  +6.6474281     3052.909     5973.848     5999.009     84.62966     169.3932     337.4457      2.105     5.73      995.666     59.50988     366.7437        32     1.868     1.032 -29.12   0
       502    872.0388     75.7524 307.5613929  +6.6650474     3237.464     5726.587     6034.529     84.49565     168.8571     337.4121      1.896     5.49      981.046     59.50988     422.9933        29     1.927     0.860 -24.78   0
       503    854.0696     76.5660 307.5688319  +6.6641139     1744.188     3197.056      3532.09     84.49565     168.8571     337.6807      1.943     6.45     981.5775     59.50988     268.3422        20     1.845     0.705 -23.18   0
       504    552.5817     76.1938 307.6941070  +6.6542275     574.5167     980.5143       592.86     84.22698     168.5212     337.4457      1.663     5.28     988.1137     59.50988     83.98395         6     1.523     0.517 -17.78   0
       505    564.2537     74.2163 307.6893234  +6.6554338     1365.094     2666.547     2543.845     84.09232     168.8571     337.3113      2.028     7.20     987.9886     59.50988      181.561        20     1.826     0.796 -24.36   0
       506    209.5612     74.0075 307.8366931  +6.6436691     650.5956     1040.972     1191.887     83.82236     168.5885     337.3113      1.970     5.20     1012.018     59.50988     108.5535         7     1.250     0.612 -20.43   0
       507    362.9333     72.3482 307.7730284  +6.6494844     1369.427     2559.951     2708.257     84.49565       168.79       337.58      1.865     6.70     1000.855     59.50988     175.6455        18     1.804     0.698 -24.78   0
       508    110.9017     69.0035 307.8778487  +6.6424322     2366.162     4630.125     4611.222     84.36142     168.5212     337.2777      2.086     5.78      1013.71     59.50988     319.0752        31     1.938     1.017 -20.47   0
       509    258.3988     67.8904 307.8166074  +6.6478306     978.2653     2125.078     2545.196     83.82236     168.3867     337.3449      2.375     6.98      1011.28     59.50988     155.8456        17     1.710     0.882 -21.17   0
       510    728.0814     65.8110 307.6215356  +6.6643655     524.0005     1078.007     1707.764     84.22698     168.5885     337.4457      1.935     4.95     984.3148     59.50988     106.7449         5     1.478     0.470 -23.08   0
       511    794.4402     61.5560 307.5941056  +6.6683320     5007.881     9342.221     10062.58     84.36143     168.8571     337.5128      2.008     6.53     982.4156     59.50988     659.0938        37     2.021     0.924 -24.78   0
       512    739.4658     61.8298 307.6169378  +6.6663893     2762.979     5087.378      5513.14     84.36143     168.8571     337.5464      1.940     6.54     983.8414     59.50988     321.2291        30     1.978     0.929 -27.79   0
       513    384.7705     62.3859 307.7642880  +6.6543299      872.599     1676.169     2129.057     84.22698     168.6557     337.5464      2.093     5.37     997.7697     59.50988     115.3116        11     1.480     0.549 -10.98   0
       514    862.1616     61.4862 307.5659702  +6.6706131     531.8616     932.3965     867.8005     84.62966       168.79     337.6136      2.071     4.77     980.2716     59.50988     97.42218         5     1.342     0.481   6.16   0
       515    502.5666     59.7504 307.7154346  +6.6593522     974.3066     1717.684     1744.069     84.49565     168.8571     337.5464      1.794     6.52     988.6295     59.50988     139.2112        16     1.717     0.758 -14.51   0
       516     33.0528     58.8483 307.9105306  +6.6440180     2438.741       4471.9     5146.468     84.76347       168.79     337.6136      2.096     5.45     1017.662     59.50988     290.4131        27     1.834     0.874 -24.09   0
       517     17.9816     59.7003 307.9167634  +6.6431606     829.6252     1664.146     1881.131     84.62966     168.7228     337.3785      2.184     5.93     1018.678     59.50988     110.4169        12     1.483     0.667 -28.64   0
       518    394.8496     58.3877 307.7602337  +6.6563185     742.2255      1174.54     1916.483     83.95746       168.79     337.3113      2.106     4.54     996.3672     59.50988     137.7427         8     1.536     0.381 -34.92   0
       519    557.0261     55.7118 307.6929423  +6.6628377     883.8387     1761.135     1862.589     84.76347     168.6557     337.4793      2.457     6.20     987.4319     59.50988     123.2013        13     2.026     0.533 -27.28   0
       520    734.0226     49.2807 307.6196164  +6.6713927     1561.631     2772.454     2977.543     84.22698     168.5212     337.5464      1.933     5.55     983.4481     59.50988     267.4746        22     1.819     0.833 -20.65   0
       521     48.7851     49.5415 307.9043060  +6.6483904     658.4671     1184.135     1632.238     83.95746       168.79     337.3449      2.051     5.80     1016.192     59.50988       96.112         9     1.372     0.690 -20.22   0
       522    375.3055     49.2853 307.7686573  +6.6594260      846.946     1698.308     1669.825     84.62966     169.2593     337.6807      2.109     6.08     999.1722     59.50988     107.3977        11     1.363     0.762 -23.15   0
       523     72.6083     47.9106 307.8944632  +6.6498629     523.8587     1111.992     1054.877     84.09232     168.5212     337.3449      2.232     7.63     1014.657     59.50988     89.46594        12     2.400     0.678 -27.81   0
       524     60.8994     43.0754 307.8994894  +6.6514679     7091.905     14086.42     15142.88     84.09232     168.9913     337.5128      2.100     5.91     1015.145     59.50988       812.15        46     2.018     1.105 -24.76   0
       525    390.0619     42.7940 307.7627429  +6.6626008     1903.243     3916.202     3904.566     83.95745     168.6557     337.3785      2.142     6.09     997.0685     59.50988     258.3947        27     1.875     0.999 -25.93   0
       526    228.3742     36.8718 307.8301174  +6.6596407     1022.376     2054.231     1944.096     84.22698     168.7228     337.5464      2.085     6.73     1011.119     59.50988      132.236        16     1.615     0.787 -34.40   0
       527    603.6305     34.9807 307.6742687  +6.6729566     13970.23     26688.76     29572.11     84.22698     168.6557     337.4793      2.041     6.11      986.571     59.50988      1820.28        50     2.061     1.064 -24.74   0
       528    503.4221     31.1179 307.7160328  +6.6712100      3776.39     7216.922     8219.711     84.36142     168.5212     337.5464      2.080     5.92     988.0861     59.50988     467.6913        32     1.930     0.966 -20.95   0
       529    221.6281     31.4639 307.8331008  +6.6616490     1561.153     2909.634     3695.875     84.22698     168.8571     337.5464      2.024     5.78     1011.091     59.50988     201.3285        21     1.554     0.942 -19.45   3
       530    229.6326     27.1207 307.8299202  +6.6637113     6774.345     13021.47     14851.31     84.49565     168.8571     337.6136      2.098     5.90     1010.967     59.50988     778.4899        43     2.155     1.021 -25.30   2
       531    859.5349   1020.1516 307.5352710  +6.2744490     1247.653     2317.409     1826.729     84.49565     168.7228     307.3569      1.855     6.69     1024.642     59.50988     219.3038        16     1.882     0.666 -19.24  16
       532    408.9397     26.7445 307.7554346  +6.6698621     17154.54     33218.07     36509.68     84.76347     168.8571     337.6471      2.076     5.81     994.4037     59.50988     2002.618        58     2.104     1.135 -23.73   0
       533    886.5546     26.7119 307.5569888  +6.6857909     1587.373     2917.778      3233.41     84.62966     168.7228     337.6471      1.875     6.80     977.9013     59.50988      231.245        18     1.918     0.705 -27.07   0
       534    288.5777     27.5003 307.8054174  +6.6655266     691.7495     1308.301     1527.123     84.62967     168.5885     337.3785      1.721     4.00     1010.841     59.50988     120.2989         5     1.092     0.418 -15.77   0
       535    217.4277     23.6524 307.8351069  +6.6647356     2234.992     4374.176     4786.583     84.36143     168.9913     337.5128      2.010     6.71     1011.065     59.50988     294.9782        27     1.833     1.109 -24.09   0
       536    270.7948     21.7151 307.8129989  +6.6673218     724.9407     1308.482     1186.895     84.09232     168.5212     337.3113      2.507     5.65     1010.844     59.50988     127.0648         7     1.528     0.589 -24.06   0
       537    907.3790     16.9131 307.5486612  +6.6905314     848.3367     1624.363     2262.365     84.62966     168.5885     337.4793      2.347     6.01     977.5049     59.50988     121.9907        13     1.609     0.632 -25.92   0
       538    658.5598     16.5511 307.6520589  +6.6824014     1438.654     2689.418     2634.551     84.49565     168.8571     337.5464      1.970     6.55     984.3182     59.50988     244.4999        17     1.651     0.730 -17.81   0
       539    182.0289   1018.8228 307.8165866  +6.2524087     1955.091     3383.575     3905.264     84.09232     168.6557     321.9435      1.853     6.60     1035.031     59.50988     269.5737        19     1.761     0.693 -24.11  16
       540    541.2880   1015.0800 307.6675648  +6.2659521     3432.804     6775.915     8436.849     84.36142     169.1254     337.7478      2.230     6.86       1031.6     59.50988     418.5968        31     1.877     1.019 -26.80  16
       541    685.3939   1015.7556 307.6077149  +6.2704734     6339.782     11515.17     13135.45     84.09233     168.6557     337.2441      1.919     7.32     1026.741     59.50988     941.4108        31     1.976     0.769 -25.17  16
       542    400.2006   1015.9707 307.7261085  +6.2608776     3353.042     6046.819      7114.67     83.95746     168.6557     337.4121      1.920     6.17     1033.199     59.50988     527.1511        26     1.925     0.747 -25.70  16
       543    677.4321   1014.9913 307.6110457  +6.2705241     1034.301     1882.251     2676.753     84.09232     168.6557     337.4457      2.058     5.65     1026.719     59.50988     183.3102        13     1.578     0.570 -20.40  16
       544    716.8834   1011.5520 307.5947809  +6.2732581      1060.02     1822.528     1936.109     84.62966     168.8571     337.6136      1.865     6.00     1026.635     59.50988     171.6713        14     1.604     0.632 -16.37   0
       545    924.8546   1005.3264 307.5086430  +6.2827441     5881.258     10600.92     11071.42     84.49565     168.7228     337.5464      1.888     5.98     1021.206     59.50988     924.9699        34     1.936     0.886 -24.78   0
       546    683.5405   1004.0251 307.6088737  +6.2752581     2359.052     4719.237     6410.862     84.22698     168.8571     337.4457      2.433     8.93     1026.518     59.50988      426.084        35     3.101     0.718 -24.14   0
