#   1 NUMBER                 Running object number                                     
#   2 X_IMAGE                Object position along x                                    [pixel]
#   3 Y_IMAGE                Object position along y                                    [pixel]
#   4 ALPHA_J2000            Right ascension of barycenter (J2000)                      [deg]
#   5 DELTA_J2000            Declination of barycenter (J2000)                          [deg]
#   6 FLUX_APER              Flux vector within fixed circular aperture(s)              [count]
#   9 FLUXERR_APER           RMS error vector for aperture flux(es)                     [count]
#  12 FLUX_RADIUS            Fraction-of-light radii                                    [pixel]
#  13 FWHM_IMAGE             FWHM assuming a gaussian core                              [pixel]
#  14 BACKGROUND             Background at centroid position                            [count]
#  15 THRESHOLD              Detection threshold above background                       [count]
#  16 FLUX_MAX               Peak flux above background                                 [count]
#  17 ISOAREA_IMAGE          Isophotal area above Analysis threshold                    [pixel**2]
#  18 A_IMAGE                Profile RMS along major axis                               [pixel]
#  19 B_IMAGE                Profile RMS along minor axis                               [pixel]
#  20 THETA_IMAGE            Position angle (CCW/x)                                     [deg]
#  21 FLAGS                  Extraction flags                                          
         1    338.3212     25.4451 307.8047756  +6.6810016      14883.4     20399.27     21849.21     81.11728      161.849     323.6016      1.483     2.96     917.5929     57.04004     2073.618        37     1.368     1.022  74.45   0
         2    665.2761     18.9314 307.6691386  +6.6946525     12543.44      17189.6     18665.15     81.24553     161.9777     323.6016      1.403     2.86     901.5753     57.04004     1890.481        36     1.349     0.988  70.92   0
         3    542.8796     18.6369 307.7200076  +6.6906749     1551.013     2011.446     2275.203     80.98883     161.9134     323.6016      1.334     3.15     904.4858     57.04004     286.5848        15     1.154     0.814  86.64   0
         4    265.3394     15.8836 307.8354228  +6.6824970     7195.155     10630.62     11465.46     81.24553     161.9134     323.6338      1.542     3.14     919.6427     57.04004      1017.67        33     1.324     1.121  72.27   2
         5    686.6880     13.7365 307.6604159  +6.6975138     9155.278     12329.17     13448.01     80.98883     162.0419     323.6016      1.391     2.61     901.4244     57.04004     1662.624        28     1.343     0.887  68.42   3
         6    690.0959     10.9984 307.6590919  +6.6987582      14801.1     20701.99     21995.27     80.60224     161.5915     323.2153      1.423     2.87      901.332     57.04004     2509.935        34     1.295     1.005  73.09   3
         7    656.8928     14.3599 307.6727759  +6.6962592     10339.97     14083.06     15733.99     81.24553     161.7847     323.6981      1.426     2.80     901.3625     57.04004     1785.151        30     1.314     0.933  72.40   0
         8    426.8222     14.4041 307.7683745  +6.6885306     9289.859     12855.09     13203.16     80.73131     161.5915     323.3763      1.468     2.84     908.9055     57.04004       1480.6        33     1.360     0.996  68.45   0
         9    742.4365     13.2079 307.6372682  +6.6995970     2018.103      2612.43     2160.094     80.34349     161.6559     323.3441      1.360     3.11     901.4982     57.04004     305.9648        14     1.150     0.719  70.20   0
        10    666.3101     10.2660 307.6690004  +6.6982646     3627.914     4904.659     6634.415     81.11728     161.9777     323.6338      1.497     2.95     901.1607     57.04004     572.8895        18     1.196     0.784  75.37   0
        11    205.2511     11.1953 307.8605482  +6.6824123     1210.628     2150.856     2478.619     80.47297     161.5915     323.2153      1.975     5.79     920.0567     57.04004     170.6399        15     1.372     1.016   6.29   0
        12     73.1701      7.4568 307.9155542  +6.6795107     3589.351     5295.468      5344.69     80.98883     161.9134     319.0655      1.537     3.12     921.0472     57.04004      508.627        23     1.241     1.004  70.17  16
        13    955.7011      6.9446 307.5488579  +6.7093071     808.3759     1110.902     1341.075     80.86017      161.849     315.5877      1.523     4.22     894.7341     57.04004     128.9283         7     0.800     0.633  70.40  16
        14    163.8615      4.9586 307.8779565  +6.6835947     5742.085     8091.637     8941.062     81.11728      161.849     295.7294      1.448     3.12     919.9882     57.04004     937.2423        28     1.332     0.946  80.27  16
        15     95.4605      4.9452 307.9063776  +6.6812981     765.2993     1020.331     856.6867     81.24553     161.7847     295.5181      1.394     4.32        920.5     57.04004     126.9415         8     1.092     0.561  55.59  16
        16    791.0961      3.2815 307.6173818  +6.7053220     1265.818     1961.775     1871.178     80.86018      154.139     274.1722      1.573     3.37     898.5776     57.04004     256.8723        13     1.221     0.757 -70.65  24
        17    898.1819      1.8558 307.5729306  +6.7094881     2111.033     2550.711     2742.269     76.49323     136.5153     251.9285      1.212     2.46     896.6758     57.04004     397.1127        13     0.913     0.795 -26.51  24
        18    235.1870      1.4163 307.8484400  +6.6874560     859.0167     1141.209     1110.014     71.71637     129.6303     244.8021      1.104     2.66     919.7742     57.04004     197.6166         6     0.687     0.640  15.30  24
        19    644.2249      1.2631 307.6784804  +6.7012421     893.3833      1093.99     1558.953     69.50465      127.525     242.2369      1.061     2.65     900.7846     57.04004       270.09         7     0.973     0.440   0.63  24
        20    244.9497    993.9308 307.8108880  +6.2780317     1678.365     2280.138     2539.318     80.98883     161.7847     323.6016      1.461     3.20     940.9247     57.04004     266.7159        11     1.012     0.692 -86.61   0
        21    762.0959   1023.7497 307.5951698  +6.2830442     1754.044     2045.998     2112.948     69.20441      127.198     242.2369      1.024     2.76     934.3181     57.04004     464.6586         9     1.081     0.432  -1.68  24
        22    555.3367   1018.7339 307.6811841  +6.2781996     9233.009     12974.26     14422.22     81.11728      161.849     309.5924      1.512     2.88     938.3787     57.04004     1351.269        40     1.434     1.092  69.18  18
        23    307.9142   1023.7234 307.7837422  +6.2678458      5221.42     6593.659      7089.57     69.80359     127.9326     242.6234      1.095     2.15     940.6435     57.04004     1588.369        20     1.356     0.628   7.83  27
        24    312.2912   1022.3265 307.7819720  +6.2685694     1325.897     2095.669      2450.57     81.11728      147.371     265.1767      1.808     6.29     940.7255     57.04004     187.8288        15     1.716     0.764  47.89  19
        25    279.4657   1022.5044 307.7955944  +6.2673942     1159.413     1307.818     1212.356     81.11728     145.1644     262.3346      1.304     3.46     940.3963     57.04004     220.3411        11     1.088     0.716  62.65  24
        26    209.1898    993.3774 307.8257535  +6.2770591     834.3782      1037.97     557.3013     80.73131     161.5915     323.4407      1.361     4.94     941.1238     57.04004     128.6155         9     1.233     0.560  66.99   0
        27     69.8190    992.0598 307.8836612  +6.2729178     2962.922     4101.882     4162.794     80.73131     161.7203     323.4407      1.445     3.12     941.0175     57.04004     505.2317        19     1.226     0.885  77.68   0
        28    963.6902    989.9791 307.5125974  +6.3037162     7180.288      10744.3     10996.59     80.98883     161.6559     323.4729      1.583     3.31     928.4635     57.04004     964.1622        35     1.431     1.123  68.51   0
        29    219.9889    986.0601 307.8215167  +6.2804428     694.3907     717.9113     302.3924     80.47297     161.7203     323.3119      1.034     2.63     941.1502     57.04004     143.8218         5     0.662     0.530  89.76   0
        30    646.4094    984.0688 307.6445355  +6.2955592      774.712     1061.387      885.282     80.60224     161.6559     323.4729      1.464     3.75     936.0638     57.04004     133.2839         6     0.829     0.487 -84.25   0
        31    937.4858    981.5052 307.5237618  +6.3063407     2211.972     3183.879     3469.268     81.11728     162.2346     323.6659      1.562     3.15     929.6768     57.04004     297.5959        20     1.206     0.927  84.54   0
        32    270.4319    977.7990 307.8008521  +6.2855474     4999.884     6953.204     7549.067     80.47297     161.6559     323.3441      1.409     2.81     940.5791     57.04004     787.6182        25     1.295     0.909  76.54   0
        33    796.9470    977.9925 307.5822342  +6.3030999      1366.22     1954.202      2780.22     80.60224     161.6559     323.2797      1.494     2.94     933.1368     57.04004     282.8313        15     1.080     0.890 -80.53   0
        34    658.1906    977.5478 307.6398628  +6.2986455     5249.461     7137.549     7097.869     80.47297     161.7203     323.3441      1.391     2.66     935.5594     57.04004     807.8115        22     1.246     0.883  71.60   0
        35   1007.1423    977.4758 307.4949736  +6.3103270     731.0145     1398.633     1625.543     81.24553      161.849     323.5694      1.771     4.35     926.0887     57.04004     107.0349         7     0.907     0.595  78.07   0
        36    480.5461    976.2017 307.7136674  +6.2932542     1116.249     1436.113     1477.178     80.47297     161.6559     323.2153      1.323     3.37     939.1075     57.04004     169.4493         8     0.861     0.655 -80.26   0
        37     39.1082    975.2921 307.8969779  +6.2788069     2529.122     3456.348     3601.461     81.11728     162.3629     323.6338      1.441     2.94     940.9448     57.04004     395.3501        17     1.143     0.883 -78.97   0
        38    889.9341    974.5566 307.5437392  +6.3076231     1078.638     1566.889      1386.38     81.11728     161.7847     323.6338      1.638     4.08     931.2253     57.04004     153.3043         9     0.934     0.672 -68.53   0
        39    982.2446    972.0487 307.5054935  +6.3117377     710.5213     871.0508     672.0117     81.11728     161.7203     323.6016      1.301     3.48     927.2467     57.04004     107.9747         6     0.914     0.745  26.94   0
        40    961.6098    971.2873 307.5140871  +6.3113640     900.0423       1117.2     1185.759     80.73132     161.5271     323.4407      1.396     3.21     928.1569     57.04004     128.7385         8     0.895     0.631 -73.39   0
        41    306.3659    971.3157 307.7861512  +6.2894303     981.7914     1265.545     1001.868     81.11728     161.7203     323.5694      1.255     3.11     940.5008     57.04004     162.8301         8     0.903     0.641 -88.06   0
        42   1014.3577    969.5215 307.4922438  +6.3138516     800.7014     1438.543     1503.723     80.98883      161.849     323.6338      2.178     6.42     925.7589     57.04004     113.5031        10     1.314     0.882  83.12   0
        43    582.8332    970.1078 307.6714020  +6.2991957      1811.34     2454.315     2664.776     81.24553     161.7203     323.6338      1.364     2.82     937.1006     57.04004     356.4196        12     1.086     0.662  86.71   0
        44    622.0570    966.4461 307.6552389  +6.3020201     1556.742     2157.041     2729.094     81.11728      161.849     323.6981      1.469     3.32     936.4108     57.04004     250.7294        13     1.140     0.715  78.85   0
        45     71.9227    966.8600 307.8836390  +6.2833921     721.3889     1212.617     1343.931     81.24553     161.9134     323.5694      1.493     3.80     940.9106     57.04004     122.4262         5     0.856     0.483  64.75   0
        46    302.1070    964.3401 307.7881545  +6.2921672     1590.213     2113.401     1691.455     80.98883     161.7847     323.6981      1.362     3.24     940.4615     57.04004     256.5776        14     1.134     0.789  77.89   0
        47    768.8502    960.2355 307.5944962  +6.3094924     1119.995     1637.824     1663.449     80.98883      161.849     323.5372      1.483     3.61     933.4467     57.04004     184.0071        12     1.166     0.684  85.43   0
        48    906.4001    956.8333 307.5374959  +6.3154898     7542.462     10819.77     10962.77      80.0839     161.6559     323.3441      1.517     3.00     929.9969     57.04004     1019.566        30     1.354     1.023  59.23   0
        49    144.2354    958.7635 307.8538895  +6.2891664     557.9995     811.8672     1168.267     80.86018     161.6559     323.3441      1.454     3.72     940.7178     57.04004     99.92108         5     0.873     0.457 -45.03   0
        50    442.4867    954.1688 307.7302113  +6.3010751     2269.168     3283.449     3194.297     81.24553     161.6559     323.5372      1.477     4.08     939.1998     57.04004     384.3963        21     1.336     0.985  64.95   0
        51    611.3363    953.7776 307.6601159  +6.3068917     547.7194     817.8267     402.8446     80.73132      161.849     323.4729      1.416     3.53      936.394     57.04004     101.6083         5     0.798     0.451 -77.73   0
        52    343.9793    952.2744 307.7711758  +6.2985537     11065.55     15264.03     16254.35     80.73131     161.7203     323.5372      1.437     2.85     940.5955     57.04004       1856.2        37     1.335     1.083  79.31   0
        53    264.0295    951.3422 307.8044023  +6.2962550     8059.544     11412.44     12044.55     80.86017     161.9134     323.4729      1.446     2.80     940.6545     57.04004     1382.864        33     1.320     1.059  76.44   0
        54    182.9705    949.7825 307.8381102  +6.2941761     625.9172     802.3514        851.5     80.73131     161.6559     323.5372      1.515     4.15     940.7501     57.04004     94.21838         6     1.112     0.443 -72.75   0
        55    592.3300    945.7606 307.6682771  +6.3095655     1334.939     1713.475     2180.782     80.98883      161.849     323.6659      1.325     3.81     936.3965     57.04004     221.1791        10     1.079     0.700  61.12   0
        56    776.4509    945.0569 307.5918494  +6.3160131     866.3506     837.6776     529.9415     81.11728      161.849     323.6016      1.186     3.70     933.1559     57.04004     125.7924         6     0.793     0.495  85.39   0
        57    922.3893    942.0892 307.5313506  +6.3221106     1243.627     1936.178     2240.075     80.86017     161.5915     323.4085      1.610     3.38     928.8653     57.04004     166.3478        13     1.046     0.819  60.34   0
        58    154.7095    941.5386 307.8501222  +6.2966296     775.2431     947.1169     1279.388     81.11728     161.9777     323.6659      1.292     3.50     940.5744     57.04004     140.6137         6     0.896     0.454  89.48   0
        59    878.7998    940.5967 307.5495005  +6.3212723     691.9359     1092.314     1177.294     80.47297     161.3981     323.3441      1.337     1.95     930.4042     57.04004     158.9224         5     0.683     0.446  23.18   0
        60    420.9923    939.9614 307.7396142  +6.3062201     727.3531     896.9402      1121.15     80.34349     161.5915     323.3119      1.258     3.70     939.2925     57.04004     126.4965         5     0.693     0.567 -89.89   0
        61    989.4464    937.4493 307.5036614  +6.3262627     783.4169     1018.515     1131.574     81.11728     161.7203     323.6338      1.425     3.84     926.5839     57.04004      115.968         9     0.886     0.807  22.87   0
        62    851.5015    935.5727 307.5610041  +6.3224353     1014.297     1146.501     1169.107     81.24553     161.5915     323.5694      1.373     4.32     931.1255     57.04004      134.241        12     1.014     0.887 -76.32   0
        63    758.4716    935.0549 307.5996505  +6.3195418     1922.535     2404.303     2383.499     80.98883     161.7203     323.5694      1.348     2.83     933.3452     57.04004     305.9082        15     1.075     0.772  84.90   0
        64    582.1426    935.5850 307.6728491  +6.3134256     815.3011     1028.994      910.736     80.47297     161.7847     323.3119      1.474     4.50     936.2495     57.04004     110.3542        10     1.002     0.759  70.16   0
        65    622.7028    931.7430 307.6561367  +6.3163692     1010.562     1073.631     660.2587     80.98883     161.7847     323.7946      1.143     3.68     935.5211     57.04004     155.3099        11     1.086     0.682 -84.62   0
        66      9.1803    931.9125 307.9108694  +6.2957084     1160.615     1701.448     1968.309     80.86017     161.5915     323.4729      1.770     5.06      940.761     57.04004     150.2705        15     1.310     0.905  76.18   0
        67    989.8918    930.7523 307.5037006  +6.3290425     1348.374     1866.177     2478.604     81.11728     161.7847     323.7303      1.488     4.31     926.4983     57.04004     218.8242        15     1.240     0.857  80.04   0
        68    634.0063    931.5510 307.6514496  +6.3168267     689.7745      821.259     625.4838     80.60224     161.6559     323.2153      1.380     3.20     935.2899     57.04004     114.2523         6     0.921     0.492  76.50   0
        69    543.5517    930.6340 307.6890394  +6.3141776     1380.005      1857.14     2078.435     80.86018      161.849     323.5372      1.437     3.87     936.6063     57.04004     248.1575        12     1.301     0.634  70.23   0
        70    677.1138    928.4213 307.6336554  +6.3195608     2933.345     3894.717     3625.219     81.11728     161.5915     323.4729      1.393     3.00     934.3665     57.04004     466.7491        16     1.169     0.808  73.88   0
        71    485.2014    928.6331 307.7133349  +6.3130491     534.4374     569.3559     418.4528     80.34349     161.6559     323.3441      1.200     3.43     937.8428     57.04004     81.89154         5     0.759     0.448 -16.83   0
        72    967.1274    925.8425 307.5133177  +6.3303106     663.4039     964.0014     768.8678     80.98883     161.9134     323.6338      1.730     5.33     927.0068     57.04004     93.56671         7     1.294     0.620  81.93   0
        73     73.6345    924.3194 307.8843654  +6.3010121     3352.479     4679.566     4692.189     80.98883     161.9134     323.6338      1.514     3.15     940.6863     57.04004     499.7132        24     1.395     0.952  76.85   0
        74    837.8190    924.7179 307.5670495  +6.3264600     926.2649     1106.422     900.1499     80.73131     161.5271     323.5372      1.374     3.95     931.2242     57.04004     137.4587         9     0.928     0.717 -89.01   0
        75    574.6099    924.6783 307.6763435  +6.3176763     575.6769     745.4903     537.8154     80.73132     161.5271     323.4729      1.356     3.88     936.0955     57.04004     80.47339         5     1.011     0.426  75.03   0
        76     91.0374    923.7791 307.8771581  +6.3018206     2258.104     3077.219     3373.121     80.73131     161.5915     323.3441      1.406     2.85     940.6696     57.04004     377.2508        17     1.168     0.881 -78.96   0
        77    955.2708    923.1992 307.5183296  +6.3310065     763.4255     1223.066     1266.158     80.47297     161.3981     323.4085      1.673     4.94     927.2462     57.04004     118.4691         9     1.016     0.824 -63.84   0
        78    217.2173    923.2444 307.8247864  +6.3062828     2690.096     3634.021     3463.923     80.73131     161.7203     323.3763      1.445     3.04     940.8816     57.04004     395.5694        18     1.170     0.924  68.68   0
        79    356.2720    919.5844 307.7671731  +6.3124622     1149.403     1559.339     1265.398     80.60225     161.7203     323.5051      1.327     2.83     940.0908     57.04004     192.1763         9     0.866     0.670  78.61   0
        80    251.3243    919.7770 307.8107420  +6.3088600      901.321     1223.426     1214.641     80.73132     161.7203     323.5372      1.287     4.24     940.7865     57.04004     148.4023         8     0.982     0.566  76.21   0
        81    671.6868    917.4188 307.6362783  +6.3239218     8009.909     10825.59     10921.19     80.86018     161.5915     323.4729      1.417     2.87     934.2974     57.04004     1275.061        27     1.266     0.931  74.11   0
        82    809.0295    918.2587 307.5792205  +6.3281653     870.0445     976.2758     1158.743     80.86018     161.9134     323.5051      1.160     2.55     931.8835     57.04004     158.5071         7     0.729     0.617  78.97   0
        83     31.8025    915.7750 307.9020224  +6.3031320     1435.895     1988.537      1987.33     80.73131     161.5271     323.4085      1.447     3.34      940.694     57.04004      230.131        14     1.053     0.909  68.19   0
        84    909.6242    913.6452 307.5376041  +6.3334283      3071.93     4345.035     4746.725     80.60225      161.849     323.4729      1.515     3.18     928.4037     57.04004      436.298        24     1.279     1.017  79.24   0
        85     44.7697    914.0206 307.8966978  +6.3042927     1315.069     1877.418     1726.544     80.60224     161.6559     323.5051      1.455     3.79     940.6475     57.04004     206.8574        11     1.118     0.734 -68.62   0
        86    784.5562    914.2274 307.5895180  +6.3290122     412.0718     383.0521       192.44     80.73132     161.9134     323.5372      0.985     3.45     932.2857     57.04004     92.63489         5     0.806     0.427 -68.24   0
        87    354.6492    910.5654 307.7681507  +6.3161313      18986.4     25942.38     27499.49     80.98883      161.849     323.5372      1.459     2.71     939.9499     57.04004     3247.508        47     1.410     1.068  81.15   0
        88     89.2751    911.6439 307.8782996  +6.3067712     1431.292     2038.656     2330.708     80.98883     161.9134     323.6338      1.473     2.83     940.4878     57.04004     240.0648        11     1.022     0.690  85.31   0
        89    225.5018    910.0530 307.8217916  +6.3120072     1410.417     1949.163     1897.663     80.98883      161.849     323.8267      1.373     3.57     940.9429     57.04004     259.0399         9     1.022     0.658  71.21   0
        90    405.5444    909.5882 307.7470510  +6.3182418     662.5718     1051.912     570.7026     80.47297     161.7847     323.2797      1.674     4.60     939.0781     57.04004     112.7767         7     0.937     0.642 -70.81   0
        91    432.5905    901.6903 307.7360868  +6.3224093     1327.802     1572.338     1178.414     80.86018     161.5271     323.3763      1.179     2.68     938.4192     57.04004     228.2208        10     0.862     0.736  85.91   0
        92    117.9177    901.1410 307.8667619  +6.3120705     1881.079     2683.507     2523.956     81.11728     161.9134     323.6338      1.472     2.86      940.266     57.04004     328.6379        14     1.108     0.754  81.05   0
        93    513.4309    898.3202 307.7026331  +6.3265097     710.1729     843.3236      1280.61     80.98883     161.7847     323.5694      1.345     5.12     936.7036     57.04004     86.05524         9     0.928     0.797  64.06   0
        94    686.4092    897.5182 307.6308333  +6.3326303     871.5899     1301.413     1832.313     80.73132     161.4626     323.4407      1.695     2.78     933.7811     57.04004     170.9017         7     0.839     0.630  81.51   0
        95    899.9249    895.4303 307.5422420  +6.3406249      2335.61     3261.575     2946.108     80.98883     161.9134     323.6016      1.510     3.12     928.1964     57.04004     377.0449        18     1.232     0.977  71.08   0
        96    870.6325    895.0828 307.5544173  +6.3397908      2277.17     3211.438     2874.577     81.11728     161.6559     323.5372      1.355     3.11     929.1628     57.04004     382.5795        18     1.261     0.795  76.72   0
        97    834.0249    894.3455 307.5696433  +6.3388730     3528.072     4918.955      5113.64     80.73131     161.9134     323.4085      1.439     3.00     930.2318     57.04004      586.752        19     1.235     0.916  87.91   0
        98    101.5919    894.7729 307.8737555  +6.3141505     2863.558     3705.216     3569.467     80.73132     161.6559     323.4407      1.338     2.84     940.1762     57.04004     472.9816        20     1.163     0.929  82.74   0
        99    569.7607    885.7739 307.6796649  +6.3335759     373259.2     509034.3     530900.5     80.73131     161.6559     323.4407      1.438     3.27       935.54     57.04004     63796.55       164     1.535     1.233  79.04   4
       100    464.5389    892.3323 307.7231359  +6.3273436     715.2172     775.6288     1020.196     81.24553     161.7847     323.6016      1.248     3.99      937.504     57.04004     131.6511         6     1.071     0.426  56.18   0
       101    349.5209    892.4886 307.7708891  +6.3234222     857.4705     1268.704     911.0248     80.86018     162.1062     323.7303      1.695     3.48     939.7024     57.04004     141.7987         7     0.858     0.624 -77.19   0
       102    657.5858    888.8000 307.6430948  +6.3352656     1465.299     1878.815     1704.427     80.60225     161.4626     323.3441      1.270     3.34     934.1505     57.04004     274.2699        12     1.148     0.744  70.67   0
       103    414.0057    888.3231 307.7442537  +6.3273048     8772.104     12080.83     12763.95     80.73131     161.3336     323.4407      1.430     2.88     938.6204     57.04004     1431.689        32     1.279     1.010  79.72   0
       104    357.2409    886.6836 307.7678792  +6.3260778     14527.35     19899.96      20831.1     81.11728      161.849     323.5372      1.417     2.81     939.4969     57.04004     2307.503        40     1.369     1.023  78.66   0
       105    908.0500    881.8699 307.5393224  +6.3464946     5605.024     7957.907     8517.592     81.11728     161.7847     323.6338      1.495     2.92     927.5571     57.04004     922.1469        28     1.285     1.017  70.31   0
       106    675.5704    882.9528 307.6358232  +6.3382812     4027.331     5393.593      5348.74     80.73131     161.9134     323.5051      1.394     3.04     933.7783     57.04004     677.8467        21     1.228     0.887  74.99   0
       107    747.5815    880.0818 307.6060172  +6.3418741      798.081      907.963      496.273     80.73131     161.5271     323.5372      1.094     3.95     932.0005     57.04004     150.9786         7     0.972     0.481  82.62   0
       108    650.4713    877.1149 307.6464415  +6.3398519     3934.627     5398.034     5756.265     81.24553     162.1062     323.6338      1.436     2.69     934.0836     57.04004     661.0586        22     1.205     0.923  82.97   0
       109    838.9014    876.3736 307.5682209  +6.3464557     1789.214     2319.035     2457.043     81.24553     161.5915     323.5694      1.357     2.95     929.4442     57.04004     288.1812        14     1.088     0.800  84.76   0
       110    640.7905    876.0363 307.6504977  +6.3399734     1017.183     1512.023     2077.357     80.60224     161.5915     323.3763      1.442     4.23     934.1888     57.04004     183.5166        10     1.237     0.629  81.53   3
       111    643.3981    871.6539 307.6495621  +6.3418699     2406.354     3295.869     3590.516     80.47297     161.6559     323.2153      1.419     3.16     934.0957     57.04004     350.1407        17     1.231     0.799  78.61   2
       112    193.4912    876.8884 307.8362017  +6.3246235     644.6164     800.6364     481.4398     81.11728     162.3629     323.6981      1.461     4.20     940.5026     57.04004      105.278         5     0.888     0.566 -47.00   0
       113    966.1826    874.8943 307.5154161  +6.3513138     1154.392     1563.484     2093.082     80.98883     161.6559     323.4729      1.580     4.77     925.4282     57.04004     122.8564        12     1.003     0.873  35.51   0
       114    926.9952    869.7363 307.5318618  +6.3521363     3622.877     5012.558     5222.083     80.47297     161.5915     323.4085      1.477     3.03     926.6304     57.04004     532.9106        19     1.197     0.885  75.12   0
       115    337.2572    870.3882 307.7767260  +6.3321348     1193.469     1596.648     1198.793     80.47297     161.7847     323.3119      1.390     2.94      939.699     57.04004     215.0826         8     0.907     0.596 -84.87   0
       116    385.1320    865.7574 307.7570029  +6.3356528     2938.954     4039.008      4830.51     81.11728     161.7847     323.6659      1.382     2.85     938.7206     57.04004      524.036        19     1.263     0.791  83.08   0
       117    866.1186    854.4525 307.5576537  +6.3564149     1303.002     1810.196     2209.215     81.11728      161.849     323.6338      1.422     3.29     928.1241     57.04004     218.4792        10     0.979     0.704  44.64   0
       118    586.5677    853.1760 307.6737818  +6.3475968     778.2728     885.2581     1217.473     80.47297     161.7203     323.4085      1.365     3.71     934.4033     57.04004        152.7         6     0.804     0.492  85.09   0
       119    568.1757    851.5250 307.6814745  +6.3476627     7171.386     9594.715     10169.24     80.73132     161.6559     323.5372      1.400     2.83     934.8247     57.04004     1121.243        29     1.286     0.981  78.50   0
       120    574.9808    851.0922 307.6786633  +6.3480693     1398.549     2050.711     2209.622     80.98883     161.5915     323.4407      1.512     3.19     934.6216     57.04004     230.4171        13     1.095     0.819 -89.65   0
       121    486.0189    850.7345 307.7156165  +6.3452373     1742.538     2429.182       2695.3     80.73131      161.849     323.5051      1.422     2.96     936.1138     57.04004     299.6768        14     1.130     0.730 -89.91   0
       122    280.1407    851.6177 307.8010752  +6.3379670     918.8748     1259.489     1297.728     80.73131     161.7203     323.3441      1.522     3.65     940.6817     57.04004     141.9974        10     0.910     0.805  74.46   0
       123    127.7047    849.6896 307.8644357  +6.3336410     1523.859     2155.193     2064.185     81.11728     162.2346     323.6659      1.496     2.97      939.658     57.04004     264.2323        12     1.048     0.721  77.31   0
       124    904.0118    849.6899 307.5420776  +6.3596459     1477.095     1871.931      1890.95     80.86017     161.5271     323.4085      1.349     2.66     926.8226     57.04004     250.4697        11     0.937     0.694  77.35   0
       125    704.1898    848.8637 307.6250837  +6.3533123     815.3694     910.4789     598.2776     80.60224     161.6559     323.4407      1.149     2.39     932.2785     57.04004     153.8319         6     0.702     0.566 -55.17   0
       126    538.8815    845.4274 307.6938439  +6.3491992     22957.38     30547.54     31039.72     80.98883     161.6559     323.5372      1.392     2.58     935.2695     57.04004     3985.119        40     1.320     1.001  70.35   0
       127    521.3966    855.5302 307.7007647  +6.3444426     3544.238     4916.396     4985.607     80.47297     161.4626     323.4085      1.373     2.59     935.7953     57.04004       564.71        18     1.145     0.812  78.10   0
       128    952.4304    843.7158 307.5221711  +6.3637277      4327.03     6027.327     6479.015     81.11728     161.6559     323.4729      1.529     2.91     925.1655     57.04004     647.7227        26     1.313     0.969  80.55   0
       129    185.5633    845.0603 307.8405677  +6.3374972      754.007     992.7352     663.7332     81.11728     161.9134     323.5694      1.401     3.89     940.0652     57.04004     123.6838         7     0.890     0.654  22.83   0
       130    424.5670    841.0759 307.7414591  +6.3471651     683.4524     823.3135     1141.491     80.98883      161.849     323.5694      1.160     4.15     937.1933     57.04004     140.8156         6     1.009     0.487  84.06   0
       131     72.8246    841.2847 307.8875069  +6.3352649     611.1731     729.4337     866.5126     81.11728     161.5915     323.5051      1.275     2.92      939.522     57.04004     130.6473         5     0.899     0.348  48.90   0
       132    331.4586    834.3545 307.7803481  +6.3468167     3684.677     5140.861     5215.788     80.98883      161.849     323.6981      1.444     2.90     939.2101     57.04004     632.5999        25     1.574     0.872  84.50   0
       133    178.9533    836.4490 307.8436029  +6.3408302     538.1295      654.095     259.7693     81.11728     161.7203     323.6338      1.305     4.63     939.8609     57.04004     89.04395         5     1.104     0.553  74.96   0
       134     49.3139    836.0251 307.8974467  +6.3366452     1748.657      2205.72     1651.589     81.24553     161.6559     323.4407      1.343     3.02     939.4813     57.04004     290.6414        12     1.033     0.807 -80.94   0
       135    797.0278    830.0065 307.5871644  +6.3642005     61899.85     84387.81     88128.88     80.60224     161.7203     323.4085      1.388     2.78     929.2401     57.04004     10959.42        69     1.409     1.103  70.71   0
       136     31.3204    832.1901 307.9050476  +6.3376229     2493.029     3677.984       3004.5     80.73131     161.5271     323.4407      1.487     3.16     939.3863     57.04004     418.1666        23     1.329     0.978  70.42   0
       137    735.6876    831.7953 307.6125769  +6.3614122     781.2816     1021.924     1104.869     80.60224     161.5271     323.2797      1.189     2.59     930.9598     57.04004     148.0517         5     0.720     0.446  77.20   0
       138    253.6881    806.3155 307.8135870  +6.3557816     755431.4      1610628      1774099     80.86018     162.0419     323.6659      2.200     4.85     939.5643     57.04004     62971.98       587     2.797     2.030  83.14   4
       139    440.4752    828.6074 307.7352731  +6.3528461     990.7018     1260.404     1219.535     80.73132     161.3336     323.4729      1.255     3.52     936.4628     57.04004     161.6023         8     1.005     0.498 -87.58   0
       140    922.2961    825.2310 307.5353043  +6.3703542     9573.514     13103.44     14095.52     81.24553     161.6559     323.6659      1.428     2.82      925.567     57.04004      1434.37        32     1.281     0.995  72.20   0
       141    725.3465    824.6367 307.6171115  +6.3640220     24508.55     33337.09      35757.5     80.98883      161.849     323.6338      1.411     2.72     931.0269     57.04004     3732.987        46     1.405     1.052  73.76   3
       142    719.0056    821.1304 307.6198624  +6.3652576       100513     136228.1     142050.7     80.60224     161.4626     323.4407      1.384     2.74     931.0531     57.04004     18184.88        77     1.439     1.079  74.70   3
       143    363.8796    821.9836 307.7673023  +6.3530120     23547.46     32183.04     33840.61     80.73131     161.5915     323.4407      1.404     2.69      938.226     57.04004      4483.08        46     1.374     1.021  76.86   0
       144    413.1239    822.2549 307.7468446  +6.3545517     1633.939     2036.968     1988.415     81.11728      161.849     323.6016      1.336     3.35     936.8083     57.04004     252.5927        15     1.239     0.734 -86.67   0
       145    223.2367    824.0231 307.8256343  +6.3474482     570.6859     821.5328     1345.651     80.73131     161.5915     323.3763      1.197     2.11     940.1094     57.04004     143.6066         7     0.709     0.632 -89.45   0
       146    652.8715    821.8408 307.6473017  +6.3627526      990.058     1179.705     1508.308     80.98883      161.849     323.6659      1.197     2.38     932.3035     57.04004     198.3198         8     0.794     0.637 -53.18   0
       147    425.7350    819.7354 307.7416927  +6.3560147     25482.05     34369.31     35441.98     81.11728      161.849     323.6016      1.411     2.67     936.4448     57.04004     4805.332        51     1.384     1.057  77.11   0
       148    962.9151    818.9422 307.5186468  +6.3743056      2412.59     3439.463     3393.334     81.11728      161.849     323.6981      1.489     3.07     924.3839     57.04004     413.5145        19     1.170     0.948  73.62   0
       149    919.2570    816.7025 307.5368521  +6.3737739     7859.351     10648.16     11430.73     80.98883     161.7847     323.7946      1.428     2.81     925.4612     57.04004      1141.56        28     1.261     0.964  73.56   0
       150    892.3732    817.7377 307.5479816  +6.3724494     788.9449      938.231     895.4493     80.73132     161.9134     323.5372      1.132     3.42     926.4776     57.04004     146.2986         5     0.738     0.459 -74.70   0
       151    659.8103    815.7545 307.6446248  +6.3654975     7384.399     9961.042     10005.43     80.60224     161.7203     323.2797      1.367     2.69     932.0516     57.04004     1323.544        27     1.273     0.909  74.29   0
       152    448.5414    813.7034 307.7324253  +6.3592697     1903.361     2481.496     2682.067     80.98883      161.849     323.7624      1.376     3.33     935.8092     57.04004     299.8044        17     1.241     0.793  71.55   0
       153    400.1898    815.3712 307.7524473  +6.3569599     605.2441     733.2409     544.2314     80.60224     161.6559     323.4407      1.294     3.44     936.9726     57.04004     92.16113         5     0.753     0.454  15.89   0
       154    173.8431    813.0316 307.8465153  +6.3503262     871.2107     1146.886      1044.35     80.60224      161.849     323.4407      1.310     3.24     939.5224     57.04004     149.2006         7     0.730     0.667  35.49   0
       155    497.5230    811.6079 307.7121559  +6.3617763      482.515     731.3776     354.6767     80.73132     161.3336     323.4085      1.781     4.38     934.9337     57.04004     106.2653         5     1.148     0.542  59.05   0
       156    888.2701    807.6112 307.5500249  +6.3764933     727.4163     1222.338     1257.865     80.60225     161.5915     323.4085      1.600     3.30     926.4012     57.04004     145.1899         6     0.902     0.443 -87.88   0
       157    694.8475    805.9801 307.6304032  +6.3707049     2682.973     3801.308     3892.615     80.73131      161.849     323.4085      1.433     2.87     931.1528     57.04004     513.9716        20     1.293     0.937  75.50   0
       158    613.1435    807.3532 307.6642862  +6.3674047     988.5666     1472.138     1553.922     81.11728      161.849     323.6981      1.514     2.95     931.9072     57.04004     198.7178         9     0.960     0.625  84.62   0
       159    164.0122    806.7382 307.8508099  +6.3525939     1034.227     1622.562     1671.292     80.60224     161.6559     323.3441      1.526     2.59     939.3819     57.04004     190.4106        10     0.913     0.673  84.51   0
       160    138.9543    806.4721 307.8612238  +6.3518613     1259.819     1736.165      1049.03     80.98883     161.9134     323.6016      1.394     3.82     939.2567     57.04004       201.98        10     0.965     0.758 -77.73   0
       161    428.6714    802.4504 307.7410553  +6.3632494     62293.18     83606.68     87394.59     81.11728      161.849     323.6338      1.427     2.65     935.7725     57.04004     10877.03        65     1.401     1.113  74.55   0
       162    971.4034    804.1678 307.5156166  +6.3806885       751.26     807.7479     620.1417     80.34349     161.6559     323.3763      1.392     5.01     923.9656     57.04004       118.73         6     1.014     0.701  82.21   0
       163    546.3412    801.5011 307.6922236  +6.3675843     8060.236     10903.28        11036     80.86018      161.849     323.7303      1.376     2.68     933.9998     57.04004     1320.907        30     1.298     0.971  82.32   0
       164    791.5994    798.1357 307.5904879  +6.3771774     13318.38     18214.07     18485.92     80.34349     161.5915     323.3441      1.407     2.74     928.4987     57.04004     2374.404        36     1.326     1.002  74.88   0
       165    463.2680    800.0984 307.7267679  +6.3653801     5206.184     7146.398     7682.219     81.11728     161.9777     323.6338      1.372     2.85     935.1565     57.04004     837.9657        24     1.193     0.966  56.23   0
       166    686.2590    797.2098 307.6342643  +6.3740385     566.9925     866.1935     1292.212     80.47297     161.7203     323.3119      1.681     3.32     930.9853     57.04004     97.54828         5     0.823     0.634  47.78   0
       167     21.0373    794.4000 307.9105948  +6.3528780     1281.191     1909.991     1747.242     80.08389     161.5915     323.3763      1.561     3.11     938.2556     57.04004     219.0514        13     1.036     0.861 -47.91   0
       168    459.8947    793.4382 307.7283929  +6.3680168     2633.307     3674.689      3743.66     81.24553     161.7203     323.7303      1.459     2.62     935.0833     57.04004     490.8585        17     1.090     0.833  76.66   0
       169    813.3571    792.6085 307.5816378  +6.3801862     1489.518     1932.767     2360.641     80.60225     161.6559     323.3441      1.371     3.40     927.8623     57.04004     249.3925        10     1.032     0.624 -78.59   0
       170    157.5143    790.3964 307.8540598  +6.3591220     3338.709     4585.818     5076.847     80.60225     161.4626     323.3119      1.459     2.76      939.103     57.04004     561.0823        21     1.244     0.873  85.49   0
       171    149.3773    790.0698 307.8574496  +6.3589833     12831.73     17894.88     18772.81     80.73131     161.7847     323.5694      1.428     2.82     939.0715     57.04004     2153.256        40     1.330     1.090  70.14   0
       172    141.4583    787.5108 307.8608243  +6.3597735     3224.741     4432.107     4721.531     80.98883     161.7847     323.7303      1.434     2.63     939.0126     57.04004     568.2466        21     1.197     0.876  69.02   0
       173    986.4329    786.6671 307.5099611  +6.3884152     1727.329     2317.116     3128.983     80.98883     161.9134     323.5694      1.445     3.45     922.9954     57.04004     239.3671        17     1.243     0.880 -73.86   0
       174    937.1553    786.7083 307.5304242  +6.3867546     7174.479     9765.092     9631.561     81.11728     161.7847     323.7303      1.427     2.91     924.0422     57.04004     1092.997        25     1.285     0.910  68.74   0
       175    229.1917    786.9534 307.8244122  +6.3629523     678.7432     1665.717     3544.718     80.60224     161.7847     323.2475      4.400     6.50     939.3065     57.04004     98.30664        11     1.545     0.767  57.78   2
       176    579.5822    783.6805 307.6790189  +6.3760547     2721.436     3585.083     3796.438     80.73132     161.5271     323.5051      1.352     2.71     932.1187     57.04004      475.354        15     1.137     0.740  78.95   0
       177    692.7895    784.4684 307.6319803  +6.3795174     2079.873     2638.835     2640.857     80.60225     161.6559     323.4407      1.407     3.35     930.1599     57.04004     308.1879        11     1.014     0.681 -84.12   0
       178    427.6904    783.3143 307.7421070  +6.3711169     1438.211     1876.125     1566.298     80.86018     162.2987     323.7303      1.445     3.57     935.3308     57.04004     215.9712        10     1.033     0.652 -81.41   0
       179    141.7132    780.9788 307.8609391  +6.3624788     2303.318     2990.171     3360.487     81.11728     161.5915     323.4729      1.346     3.04      938.907     57.04004     433.7759        15     1.174     0.747  76.82   0
       180    931.4430    778.7723 307.5330623  +6.3898406     3364.112     4714.122     4469.165     80.73132     161.9134     323.5051      1.477     2.94     923.9187     57.04004     478.6456        20     1.237     0.867  85.83   0
       181    991.8141    778.0462 307.5080150  +6.3921538     2181.953     3081.793     2914.152     80.47297     161.6559     323.3763      1.417     3.02     922.4255     57.04004     354.0252        14     1.128     0.700  84.52   0
       182    960.8334    778.1423 307.5208779  +6.3910811     3414.601     4648.471     4069.175     80.98883      161.849     323.5694      1.414     2.99     923.1683     57.04004     593.4996        18     1.185     0.843  81.47   0
       183    683.8468    777.8479 307.6359163  +6.3819516     1685.371     2121.187     1922.602     81.11728     161.7203     323.6016      1.300     2.94     930.0216     57.04004     366.7356        13     1.131     0.708  71.23   0
       184    444.0009    779.0529 307.7354773  +6.3734230     569.9678     338.9054    -129.0584     80.47297     161.4626     323.1508      1.288     3.78     935.0374     57.04004     100.4285         5     0.819     0.501 -63.91   0
       185    831.2216    776.1763 307.5747702  +6.3875670     1118.861     1559.468     1160.828     80.73131     161.6559     323.5694      1.383     2.31     926.8943     57.04004     256.6034         8     0.888     0.522 -78.40   0
       186    256.3953    772.9561 307.8135880  +6.3696449     2072.351     2972.457     3825.973     80.47297     161.4626     323.2797      1.436     3.12     938.5934     57.04004     344.2434        16     1.196     0.876  85.87   0
       187    906.5004    774.1883 307.5435744  +6.3909009     797.1337     1161.676     780.7396     80.86018     161.5915     323.3763      1.409     2.84     924.5944     57.04004     151.5099         5     0.735     0.445  67.06   0
       188    693.6207    770.0582 307.6321190  +6.3854946      583.392     859.5388     406.0602     80.73131     161.7203     323.4085      1.480     3.30     929.4175     57.04004     115.9261         5     0.865     0.485 -89.61   0
       189    276.6713    768.6913 307.8053121  +6.3720865       898.89     1256.352      1242.67     80.98883     162.0419     323.6016      1.285     3.29     938.1575     57.04004     140.0465         9     0.976     0.663 -51.39   0
       190    949.3261    768.2458 307.5259883  +6.3947831     1109.991     1398.725     1335.825     80.98883     161.9134     323.6016      1.351     3.21     923.0894     57.04004     172.0791         9     0.834     0.760  29.81   0
       191    923.0525    767.1276 307.5369370  +6.3943683     1248.542     1528.493     1439.135     80.98883      161.849     323.6338      1.334     3.34     923.8036     57.04004     169.2362        10     0.889     0.759 -82.56   0
       192    172.0549    768.0229 307.8487771  +6.3688476     798.6854     1084.464     554.6967     80.73131      161.849     323.4085      1.363     3.50     938.7716     57.04004     158.8479         7     0.980     0.609  70.66   0
       193    975.9033    765.9561 307.5150276  +6.3966149      2684.25     3996.296     3790.101     81.11728     161.7847     323.7624      1.482     3.48     922.2755     57.04004     439.0817        21     1.243     1.021  52.26   0
       194    695.4191    764.8659 307.6315466  +6.3876984     1034.288     1182.468     893.1635     80.73131      161.849     323.5051      1.092     4.20     929.1422     57.04004     200.4487         8     0.951     0.535  69.55   0
       195   1017.4462    759.4978 307.4979911  +6.4006664     1871.046     2637.495     2921.389     81.11728     161.7203     319.8477      1.596     3.71     920.7569     57.04004     259.7006        17     1.295     0.863  68.67  16
       196    486.4980    760.7034 307.7184472  +6.3824231     571.0818     637.2987      521.056     81.11728      162.427     323.4407      1.188     3.43     934.1852     57.04004     108.6172         5     0.778     0.438 -67.93   0
       197    416.0537    760.9053 307.7476939  +6.3799783     738.7032     912.2265     902.6385     80.98883     161.7847     323.8589      1.252     3.21     934.9308     57.04004     132.4819         7     0.888     0.508 -48.64   0
       198    819.0363    757.9760 307.5804411  +6.3946744     1236.669      1505.03     1346.261     80.73131     161.6559     323.3763      1.245     2.74      926.524     57.04004     233.4263        11     0.978     0.698  79.76   0
       199    643.9110    758.6303 307.6531465  +6.3885499     767.0067     986.0561      657.206     81.24553     161.6559     323.5372      1.163     3.17     929.6885     57.04004     174.8418         7     0.958     0.572  24.88   0
       200    905.0264    755.0527 307.5448278  +6.3987521     1835.865     2576.844     2561.191     80.73132     161.9776     323.5051      1.444     3.30     924.0209     57.04004     300.4705        14     1.183     0.707  68.14   0
       201    879.6543    750.3698 307.5555217  +6.3998387     1214.185     1595.515     2017.311     80.98883     161.9134     323.5051      1.370     3.97     924.6646     57.04004     207.8976        12     1.214     0.747  76.24   0
       202    665.5776    750.4913 307.6444222  +6.3926350     583.5488     742.0676      800.752     81.11728     161.6559     323.4407      1.423     3.15     928.8442     57.04004     113.9136         6     0.884     0.437  72.00   2
       203    862.0372    746.7516 307.5629594  +6.4007444     1675.347     2312.504     2135.544     80.86017      161.849     323.5051      1.281     3.15     925.1076     57.04004     304.8654        15     1.236     0.702  72.57   0
       204     61.2276    745.5159 307.8955585  +6.3744120     2948.515     4015.838      4077.89     81.11728     161.5915     323.4729      1.450     2.77     938.3452     57.04004     442.8459        19     1.088     0.957  75.32   0
       205    125.1953    744.1968 307.8690403  +6.3771085     1096.436     2053.549     1909.757     80.47297     161.3981     323.4407      1.971     6.07     938.3282     57.04004     176.0912        15     1.772     0.585  79.55   0
       206    473.4993    744.6082 307.7243869  +6.3886324     601.5847     757.8708     682.2313     80.86018     161.4626     323.4407      1.368     3.76     934.1653     57.04004     130.9674         5     0.938     0.500 -88.86   0
       207     12.2782    744.0679 307.9159336  +6.3733621     656.2876     687.0052     650.3248     81.24553     161.9134     323.6016      1.066     3.48     938.3485     57.04004     122.7734         6     0.899     0.453  48.74   0
       208    578.8083    740.7169 307.6807848  +6.3937666     587.8993     586.3253     784.9626     80.73131     161.5271     323.4407      1.093     3.25     930.6074     57.04004     121.0817         7     0.966     0.621  74.96   0
       209    673.7055    734.0561 307.6415989  +6.3996923     7345.691     9751.233     10060.97     80.98883      161.849     323.7946      1.343     2.64     927.8833     57.04004     1417.836        22     1.203     0.864  78.91   0
       210    620.5569    733.5140 307.6636893  +6.3981379     1674.701     1911.458     2170.834     81.11728     161.7203     323.6016      1.115     3.03     929.1871     57.04004     286.9523        10     0.995     0.660 -82.97   0
       211    542.2263    734.0797 307.6962001  +6.3952818     807.6988     992.5503     1363.773     80.98883     161.7203     323.6016      1.289     2.47     931.5076     57.04004     137.3275         6     0.717     0.555  54.36   0
       212    531.5503    733.8445 307.7006416  +6.3950213     807.9932     1000.413     711.5897     81.11728     161.7203     323.6016      1.202     3.37     931.8915     57.04004     144.7654         6     0.800     0.497  89.65   0
       213    136.7244    729.9154 307.8647350  +6.3833922     4190.436     5539.394     5321.483     81.24553     162.1704     323.6659      1.397     2.79     938.0556     57.04004     738.2637        23     1.252     0.917  88.46   0
       214    647.7018    729.7465 307.6525428  +6.4006017     2304.442      2815.42     2619.898     80.98883      161.849     323.8267      1.286     2.90     928.3981     57.04004     412.2563        14     1.067     0.770  65.20   0
       215    323.3541    730.2130 307.7872237  +6.3895395     703.1149     1027.083     1092.406     80.47297     161.6559     323.3763      1.442     4.52     935.5775     57.04004     121.6001         7     0.982     0.591 -69.40   0
       216   1010.7779    729.2935 307.5017717  +6.4129144     3039.812       3927.5     3902.989     81.11728     161.6559     323.4085      1.371     2.81      919.712     57.04004     474.9865        19     1.150     0.862  65.74   0
       217    259.2964    729.5278 307.8138481  +6.3876716     874.7236     1053.065     875.3244     80.98883     162.0419     323.5694      1.243     3.49     937.1385     57.04004     142.8738         9     0.951     0.747 -56.07   0
       218    790.6559    726.1074 307.5932965  +6.4068837      22884.5     30746.91     32287.07     80.98883     161.7847     323.7624      1.363     2.74      926.008     57.04004     4227.362        41     1.302     1.018  75.49   0
       219    920.7235    725.9182 307.5392851  +6.4113045     4333.641     6049.816       6298.8     81.37357     162.1062     323.7303      1.452     2.82     922.5917     57.04004     731.6721        23     1.242     0.938  75.11   0
       220    489.7995    726.5255 307.7182264  +6.3966442     1635.958     2035.453     2333.418     80.34349     161.2045     323.4085      1.324     2.58      933.152     57.04004     310.9341        13     0.922     0.878  20.98   0
       221    335.7132    726.5166 307.7822158  +6.3914804       737.16     1075.842     821.1559     80.86018     162.0419     323.6338      1.436     3.44     935.1562     57.04004      171.139         6     1.011     0.572 -50.67   0
       222    518.3876    726.0179 307.7063712  +6.3978117     1074.388      1130.81      936.735     80.86017     161.5271     323.5051      1.147     2.40     932.1026     57.04004     210.3894         7     0.793     0.570  64.34   0
       223    292.2784    725.0417 307.8003029  +6.3906312     598.2771     1045.036     1057.653     80.98883      161.849     323.6016      1.645     4.31     936.2271     57.04004     130.5017         7     1.221     0.432 -84.09   0
       224    671.1937    718.9435 307.6431497  +6.4058476     7917.808     10915.05      11588.3     80.60224     161.7203     323.3119      1.381     2.65     927.4597     57.04004     1415.721        29     1.316     0.911  76.54   0
       225    653.8672    720.0354 307.6503087  +6.4048172     1000.537     1394.817     1743.971     80.98883     161.9134     323.6659      1.526     3.04     927.9425     57.04004     157.4988         9     0.926     0.639 -81.38   0
       226    264.2083    719.6760 307.8121407  +6.3919038     6992.027     9386.233     9599.596     80.73132     161.3336     323.3763      1.358     2.80     936.5899     57.04004     1180.548        24     1.258     0.837  79.54   0
       227    366.6803    718.8920 307.7696128  +6.3956674     812.7161     1199.284     696.6845     80.86018     162.1062     323.6659      1.443     4.23     934.4404     57.04004     130.6913         7     0.867     0.589 -70.52   0
       228    931.0386    711.5435 307.5354829  +6.4175835     1439.023     1939.454     1745.293     81.11728     161.9134     323.6016      1.408     3.40     921.8815     57.04004     222.4207        12     1.069     0.718  83.86   0
       229    742.8781    707.3959 307.6137668  +6.4130122     4243.858     5898.424     6840.918     80.73131     161.3336     323.4085      1.477     3.18     926.3056     57.04004     671.8851        23     1.399     0.852  71.53   0
       230    947.8625    704.6501 307.5287267  +6.4209908     2675.562     3763.961     3870.762     81.11728     161.7847     323.6659      1.498     3.08     921.2491     57.04004     443.4451        20     1.375     1.034  68.97   0
       231   1009.2882    703.9780 307.5032380  +6.4233167      9947.11     13742.32     14239.08     81.11728     161.6559     323.5051      1.418     2.79     919.6958     57.04004     1567.977        34     1.307     1.013  70.81   0
       232    698.2158    707.6734 307.6323060  +6.4114044     1246.655     1668.233     1694.926     80.60225     161.5915     323.5051      1.426     3.71      926.813     57.04004     198.5024        12     1.153     0.668  80.84   0
       233     28.4349    703.7285 307.9105884  +6.3905597     2150.769     3138.188     3537.319     80.98883     161.7847     323.6016      1.492     3.08     938.2332     57.04004     402.9811        18     1.210     0.898  64.89   0
       234    445.0545    702.0370 307.7376328  +6.4052546     614.9519      827.451     1069.226     80.98883      161.849     323.6338      1.564     4.52     932.9548     57.04004     102.4731         6     1.031     0.563  78.51   0
       235     86.5638    698.7333 307.8866183  +6.3945782     29285.72     39929.46     41452.89     80.98883      161.849     323.6659      1.437     2.67     937.7802     57.04004      5285.58        50     1.386     1.082  76.76   0
       236    547.9918    699.7841 307.6949593  +6.4096341     2329.114     3027.246     3118.598     80.73131     161.5915     323.4407      1.372     2.78      930.237     57.04004     431.0376        16     1.212     0.719  75.99   0
       237    516.6482    696.9228 307.7080725  +6.4097654     1511.608     2043.382      1859.28     80.98883     161.9134     323.5694      1.353     3.17     930.9455     57.04004     283.1243        12     1.084     0.741  71.77   0
       238    937.6156    696.2305 307.5332645  +6.4241251      1289.62     1447.481     1375.211     80.73132     161.5915     323.5372      1.230     3.70     921.2659     57.04004     213.1258        11     1.109     0.680  68.75   0
       239    556.9644    693.2434 307.6914530  +6.4126349     1325.234     1776.241     1685.232     80.86017     161.7847     323.4085      1.381     4.16     929.7876     57.04004     215.9202        11     1.101     0.678  75.23   0
       240    732.6609    691.0345 307.6185594  +6.4194257     4004.634     5202.415     5147.068     81.11728      161.849     323.5694      1.313     2.47     926.0685     57.04004     798.3956        20     1.158     0.855 -85.48   0
       241    754.5602    689.3030 307.6095225  +6.4208726     4714.195     6336.476     6707.534     81.11728     161.7203     323.7946      1.392     2.74      925.578     57.04004     817.6454        25     1.317     0.890  75.05   0
       242    586.0008    687.2574 307.6795954  +6.4160786     3523.693     4722.547     4374.608     80.34349     161.4626     323.2797      1.381     2.80     928.8823     57.04004      589.149        20     1.257     0.831  73.91   0
       243    422.5396    687.7864 307.7474630  +6.4103830     1510.499     2141.212     2164.054     80.60225     161.7203     323.3119      1.422     3.46     933.1229     57.04004      267.782        12     1.065     0.842  48.54   0
       244    246.6471    686.6371 307.8205480  +6.4049540     2019.862     2740.167     2423.231     80.98883      161.849     323.5372      1.417     3.32     935.3629     57.04004     329.9897        15     1.209     0.773  77.89   0
       245    330.2463    686.0856 307.7858490  +6.4079888     1560.848     2112.257     1670.763     81.11728     161.7847     323.6016      1.388     3.84     934.2996     57.04004      256.889        13     1.236     0.732  59.62   0
       246    992.8411    684.3020 307.5107277  +6.4308919     9189.875     12425.22     12676.36     81.11728     161.7203     323.8267      1.413     2.85     919.9271     57.04004     1562.154        32     1.268     0.989  73.80   0
       247    546.7831    684.9360 307.6959607  +6.4157237     679.1905     834.1898     824.7025     80.60224     161.7847     323.4407      1.396     2.72     929.7914     57.04004     142.6851         6     0.871     0.450  51.58   0
       248    712.7609    682.8898 307.6270976  +6.4221230      1231.57     1496.358     1564.434     81.11728     161.7847     323.6338      1.270     2.91     925.9921     57.04004     237.6221        10     1.003     0.641  73.51   0
       249    151.3143    677.6584 307.8604410  +6.4054567      27217.8     36688.59     38064.17     81.11728      161.849     323.7303      1.413     2.78     936.5918     57.04004     4365.787        48     1.398     1.024  76.96   0
       250    104.3140    680.9790 307.8798470  +6.4025051      837.727     980.4748      818.269     80.98883     161.5915     323.5051      1.323     4.65     937.3538     57.04004     128.4995         8     0.996     0.630  89.28   0
       251    438.2954    678.6120 307.7412286  +6.4146990     3268.703     4354.358     4851.623     80.86018     161.5915     323.3763      1.443     2.96     932.3965     57.04004     502.7262        19     1.189     0.863  81.07   0
       252    819.8791    678.5138 307.5827566  +6.4275095     1360.975     1635.703     1794.067     80.98883     162.1704     323.6981      1.392     2.83     923.7725     57.04004     225.1405        11     0.948     0.731  78.01   0
       253    656.0680    678.2299 307.6507994  +6.4221506     624.6689     518.4808     717.8955     80.86017      161.849     323.5694      1.124     3.03     926.6033     57.04004     111.0873         6     0.869     0.474  37.81   0
       254    370.7479    672.6047 307.7694833  +6.4149136     914.0458     1226.498     1626.122     80.47297     161.5915     323.2153      1.483     3.17     933.6021     57.04004     144.4836         9     0.998     0.609  85.69   0
       255    612.6782    672.1133 307.6690252  +6.4232239      504.243     603.5493     90.98431     81.11728     162.1704     323.7303      0.935     4.04     927.7938     57.04004     117.1714         5     1.009     0.463  29.29   0
       256    987.7677    667.2746 307.5134051  +6.4377528     7553.714     11070.58     11642.36     80.98883     161.9134     323.5694      1.577     3.42     919.6584     57.04004      1169.66        32     1.455     1.001  61.00   0
       257     32.4732    666.4380 307.9101721  +6.4060906     1350.624     1668.469     1774.229     80.98883     161.7847     323.6659      1.563     4.83      938.002     57.04004      169.552        12     1.235     0.685 -81.72   0
       258    581.3107    662.4873 307.6823761  +6.4261480     55325.02     74076.28     76499.95     80.86018     162.2987     323.7303      1.392     2.63     928.2077     57.04004     8476.019        63     1.377     1.085  75.17   0
       259    449.7669    664.9944 307.7369230  +6.4207057     551.5627     615.7554     646.3265     80.47297     161.6559     323.4085      1.151     3.76     931.4755     57.04004      91.9057         5     0.825     0.493 -41.97   0
       260    945.9194    663.7809 307.5309030  +6.4377994     662.4221     854.6699     895.2325     80.73131     161.5271     323.5372      1.501     3.31      920.335     57.04004     147.2201         7     1.082     0.590  85.67   0
       261    224.4736    663.8882 307.8305239  +6.4136008       725.42     1048.776     878.6987     81.11728     162.1062     323.6338      1.549     3.40     934.8139     57.04004     131.5161         5     0.764     0.438 -67.52   0
       262    540.9295    662.6516 307.6991414  +6.4247279      573.582     566.3044     495.2353     80.98883     161.7847     323.6338      1.128     2.85     929.1704     57.04004     131.7265         5     0.764     0.581  79.04   0
       263    188.8323    659.2122 307.8454832  +6.4143335     3078.246     4204.075     4396.626     80.60224     161.5915     323.5051      1.400     2.84     935.3663     57.04004     524.4384        18     1.204     0.900  89.45   0
       264    992.4474    659.0070 307.5117384  +6.4413222     630.2184     658.0719     953.5175     80.60224     161.6559     323.2153      1.086     4.16     919.2393     57.04004     101.7514         7     0.948     0.597 -32.02   0
       265     81.5060    653.1613 307.8902586  +6.4132220     1534.414     2115.735     2247.947     81.24553     161.7203     323.6981      1.531     4.82     937.1902     57.04004     246.3638        13     1.401     0.716  62.34   0
       266    478.5546    646.2669 307.7255977  +6.4294024     71215.27     95811.35     99938.71     81.11728     161.7847     323.6338      1.406     2.76     930.1623     57.04004     11973.27        69     1.409     1.108  75.47   0
       267     22.1987    647.7744 307.9150699  +6.4134498      1938.23     2820.179     3403.891     80.73131     161.5271     323.3763      1.504     3.19     937.9375     57.04004     313.2601        14     1.163     0.715 -87.61   0
       268    664.2946    643.7795 307.6485403  +6.4366490     809.2896     1120.227     922.7856     80.98883     161.6559     323.4407      1.376     2.34     925.2539     57.04004      148.254         6     0.707     0.562 -40.01   0
       269    153.0506    641.5844 307.8609382  +6.4204080     1875.732     2605.851     1838.121     80.47297     161.9134     323.3119      1.389     2.91     935.5569     57.04004     328.6342        16     1.195     0.834  88.50   0
       270    948.4651    639.3048 307.5306658  +6.4479897     839.3592     964.9291     442.7795     81.11728     161.9777     323.6338      1.130     2.91     919.7065     57.04004     170.1438         6     0.817     0.529  51.38   0
       271    432.1811    638.8502 307.7451069  +6.4309098     923.5059     1485.158     1482.505     80.60224     161.9134     323.3763      1.612     4.77     930.8743     57.04004     121.7856         8     0.976     0.661  62.87   0
       272    624.8013    637.8715 307.6651413  +6.4377667     938.5085     1417.539      1837.55     80.60224     161.3981     323.4407      1.788     3.89     926.1995     57.04004     176.2529         9     0.943     0.843 -69.21   0
       273    506.7819    637.6461 307.7141647  +6.4339075     613.5173     794.6865      1006.88     80.60225     161.7203     323.3441      1.320     2.80     929.2353     57.04004     107.4344         6     0.708     0.624 -58.55   0
       274    324.1654    635.8499 307.7900679  +6.4285245       2296.2     3333.853     3668.333     80.98883      161.849     323.5051      1.492     2.88     932.2958     57.04004     428.2726        18     1.249     0.811  88.32   0
       275    333.0423    637.0850 307.7863396  +6.4283125     556.6239       661.78     513.3498     81.11728     161.7203     323.6016      1.493     3.52       932.24     57.04004      112.043         5     0.980     0.365  56.79   0
       276     25.3707    637.1989 307.9141103  +6.4179225     512.6793     894.4785     1138.084     80.60225     161.6559     323.4085      1.745     3.37       937.78     57.04004     97.73199         5     0.736     0.454  73.45   0
       277    476.0761    634.0447 307.7270385  +6.4343653     1018.669     1433.528     1556.478     80.98883     161.9134     323.6338      1.624     4.84     929.9806     57.04004     159.6876        10     1.050     0.760  83.56   0
       278    750.5922    629.8060 307.6131679  +6.4453039     6110.767     8307.461      7833.22     80.47297     161.6559     323.4407      1.392     2.72      923.817     57.04004     1191.942        25     1.236     0.919  69.68   0
       279    804.1398    625.1074 307.5910854  +6.4490332     15791.32        21088     22203.42     80.98883     161.7847     323.6981      1.344     2.78     922.7557     57.04004     2662.233        36     1.318     0.954  69.62   0
       280   1021.5152    625.5588 307.5007855  +6.4561009      1168.68     1423.991     1428.699     81.11728     155.7517     276.8928      1.359     4.62     916.7145     57.04004      166.345        11     1.162     0.763  74.92  16
       281    546.5472    625.2117 307.6980678  +6.4403733     1409.554     1976.391     2370.397     80.47297     161.7847     323.3119      1.506     3.22     927.6203     57.04004     249.6351        11     1.103     0.643  78.39   0
       282     49.2717    625.1292 307.9045925  +6.4237100     745.6301     1098.509     1076.994     81.24553     161.9777     323.5051      1.752     4.91     937.2678     57.04004     130.4786         7     1.057     0.647 -88.11   0
       283    628.1367    623.2888 307.6642462  +6.4438989     3210.316     4524.737     4617.212     80.98883     161.9777     323.6338      1.405     3.08     925.5817     57.04004     559.2146        20     1.221     0.918  67.27   0
       284    945.2411    619.7679 307.5326594  +6.4559482      1196.63     1501.482     1775.929     80.73132     161.7203     323.4729      1.268     4.29     919.3748     57.04004     188.8947        11     1.074     0.748  71.09   0
       285    240.5748    617.0184 307.8254187  +6.4334918     1488.793     2286.932     2364.609     80.73131     161.6559     323.5372      1.646     3.62      933.462     57.04004     246.1454        13     1.124     0.784 -87.58   0
       286    204.4678    617.5485 307.8403962  +6.4320596     606.3107     786.0637      497.772     80.98883     161.7203     323.5694      1.133     3.71     934.2186     57.04004     114.5818         6     0.927     0.428  71.77   0
       287    386.5838    616.8625 307.7647848  +6.4384581       1153.4      1555.11     1133.387     80.60224     161.7847     323.4407      1.319     2.24     930.4384     57.04004     250.8902         8     0.808     0.637  45.84   0
       288    880.2410    608.3573 307.5600394  +6.4584901     3225.216      4365.81     4823.417     80.86018      161.849     323.4729      1.394     2.58     920.6114     57.04004     494.9727        18     1.149     0.864  74.04   0
       289    175.5826    608.2531 307.8527062  +6.4349262     794.6196     1399.552     1775.159     80.60225     161.9134     323.3119      2.044     4.06     934.2629     57.04004     137.8617         8     1.019     0.613  35.43   0
       290    838.9374    605.7079 307.5772835  +6.4582048     2789.357     3796.057     3725.427     81.11728     161.9777     323.6659      1.432     2.76     921.4533     57.04004     494.2271        17     1.177     0.848  66.55   0
       291    819.5742    596.9644 307.5856192  +6.4611679     179087.5     240457.4       251111     80.73131     161.6559     323.3763      1.390     2.72     921.7014     57.04004     33918.84       115     1.467     1.172  74.56   0
       292    809.8848    601.7410 307.5894834  +6.4588722     2966.117     4258.767     5383.654     81.11728      161.849     323.6981      1.590     2.93     922.0654     57.04004     564.1387        18     1.217     0.835  79.89   0
       293    266.9453    600.7379 307.8150161  +6.4410990     8817.547     12077.68     11624.48     81.24553     161.7847     323.5694      1.448     2.95     932.0858     57.04004     1457.005        28     1.278     0.969  70.38   0
       294    752.6675    602.2172 307.6132322  +6.4567636     648.8865     938.6845     712.8057     80.60225     161.7847     323.5051      1.379     1.88     922.8636     57.04004     154.7726         5     0.661     0.460 -77.63   0
       295    201.2210    595.2524 307.8424973  +6.4411553      64555.7     89908.59     94422.16     80.60224      161.849     323.4085      1.452     2.88     933.5912     57.04004     9422.297        71     1.451     1.137  75.61   0
       296    749.5005    597.5620 307.6147038  +6.4585797     675.8956     754.6768     1125.381     81.11728     161.7203     323.8267      1.222     4.65     922.7664     57.04004     114.0004         7     0.918     0.668  81.84   0
       297    125.1768    591.5384 307.8742045  +6.4401317     6961.831     9463.088     9370.667     80.73132     161.7847     323.5051      1.401     2.67     935.1052     57.04004     1103.787        28     1.251     0.980  69.11   0
       298    683.8260    589.9871 307.6422357  +6.4595110     4626.749     4600.118     4809.513     80.86018     161.6559     323.5372      0.451     2.01     923.4092     57.04004     3448.313         6     0.382     0.330 -14.38   0
       299    990.5585    588.5074 307.5148842  +6.4703661     1471.732     1977.919     1618.007     81.24553     161.7847     323.6981      1.380     4.25     916.2219     57.04004     218.5214        12     1.232     0.763  52.77   0
       300   1011.4148    587.7413 307.5062470  +6.4713778     760.7183     959.0066     945.6422     80.47297      161.849     323.3441      1.061     2.30     915.3842     57.04004     159.3644         5     0.668     0.485 -79.11   0
       301    240.0634    586.9113 307.8266470  +6.4459042     1009.158     1266.538     1880.554     80.98883     162.0419     323.6338      1.307     2.76     932.3244     57.04004     170.2515         9     0.841     0.721 -25.80   0
       302    856.2361    584.3047 307.5708164  +6.4676191      5215.09     7040.925     7124.675     81.24553     161.7203     323.7303      1.360     3.03     920.5079     57.04004      849.359        23     1.235     0.892  78.16   0
       303    374.5998    582.4033 307.7709232  +6.4522825     19312.78     26209.34     27021.71     80.47297     161.3981     323.3441      1.426     2.71     929.3826     57.04004     3104.657        41     1.323     1.040  75.45   0
       304    465.0306    582.5591 307.7333594  +6.4552511     895.6264     1051.584     1158.914     80.60224     161.6559     323.4407      1.256     4.37     928.2596     57.04004     136.6637        10     1.051     0.650  66.67   0
       305    176.4465    581.4310 307.8532531  +6.4460286     2064.629     2958.418     4178.347     80.60225      161.849     323.5051      1.679     3.29     933.8687     57.04004     327.3205        19     1.249     0.909  76.00   0
       306    251.6741    579.3591 307.8220797  +6.4494122     1021.583     1373.249     1549.362     80.98883     161.9134     323.6338      1.368     3.53     931.6849     57.04004     175.6754         9     1.002     0.584 -84.06   0
       307    810.1170    577.6202 307.5901963  +6.4688385     6585.549     8756.451     9534.352     80.86017     161.5271     323.5372      1.353     2.58     921.4913     57.04004      1139.14        26     1.254     0.867  64.50   0
       308    540.9825    577.3584 307.7019889  +6.4599434     7317.144     9787.503     10232.51     80.60224     161.6559     323.3763      1.396     2.78     925.7449     57.04004      1249.56        27     1.231     0.943  71.22   0
       309    113.8376    578.5307 307.8793532  +6.4451204     1043.406     1500.646     1563.073     80.98883      161.849     323.6981      1.615     3.95     935.0293     57.04004     173.0922        10     1.079     0.694  67.11   0
       310    399.0312    574.1017 307.7610559  +6.4565295     1559.938     2149.316     2233.168     81.11728     161.6559     323.7303      1.389     3.55     928.5139     57.04004     268.1955        12     1.086     0.764  88.19   0
       311    187.8589    570.4684 307.8488835  +6.4509381     7421.739     10601.63     12364.52     81.24553     161.7847     323.6016      1.580     3.02     933.2556     57.04004     1179.212        33     1.365     1.056  78.43   0
       312    585.8489    570.3936 307.6835884  +6.4643214     2539.329     4064.063     3978.596     80.60224     161.6559     323.2153      1.676     3.51     924.5886     57.04004     395.7412        22     1.222     1.102  89.23   0
       313    283.1724    566.9230 307.8094173  +6.4556044     95770.07     133807.5     139702.7     80.98883     161.7847     323.5694      1.444     2.88     930.6248     57.04004     14590.73        86     1.482     1.164  74.40   0
       314    868.8364    570.5813 307.5660431  +6.4737057     750.2108       1145.5     1344.464     80.60224     161.6559     323.3763      1.664     4.20     919.8295     57.04004     130.3828         6     1.108     0.620 -85.90   0
       315    826.8494    569.8990 307.5835055  +6.4725852     1565.886     2232.405     2550.072     81.11728     161.7847     323.7946      1.363     2.77     920.8825     57.04004     266.7509        12     1.023     0.676  87.67   0
       316     59.6354    569.1080 307.9021823  +6.4471865     5428.063     7548.631     7375.208     81.24553     161.7203     323.6338      1.415     2.82     936.0232     57.04004     935.0524        27     1.335     0.933  75.18   0
       317    572.9398    564.6702 307.6891426  +6.4662521      931.636     1147.583     1836.969     81.24553      161.849     323.6338      1.332     3.20     924.6002     57.04004     155.3771         9     0.921     0.652 -71.49   0
       318    266.9567    562.0405 307.8163169  +6.4570755     1624.923     2089.253     2112.737     80.86018      161.849     323.4729      1.356     3.00     930.7527     57.04004     298.6589        15     1.061     0.893 -85.24   0
       319    982.7340    560.5587 307.5190704  +6.4816442     1796.015     2256.696     2177.145     81.11728     161.7847     323.6981      1.322     3.01     915.2557     57.04004     286.2875        13     1.090     0.730  86.27   0
       320    509.9657    557.7593 307.7155310  +6.4669958     44657.86     66623.52     70345.08     80.86017      161.849     323.4085      1.598     3.25     925.9692     57.04004     6688.669        75     1.504     1.325  55.20   0
       321    806.3411    559.3334 307.5923783  +6.4762623     18377.07     24242.33        25051     81.24553     161.7847     323.6016      1.352     2.66     921.1352     57.04004     2771.227        38     1.316     0.982  71.55   0
       322    660.5534    556.2430 307.6530357  +6.4726640     985.1719     1408.014     1263.003     81.11728      161.849     323.5372      1.344     2.60     923.1496     57.04004     177.2898         7     0.882     0.477  79.01   0
       323    222.4034    554.2664 307.8350833  +6.4587881     2195.885     3168.556     4334.322     80.47297     161.5271     323.4085      1.577     2.74     931.1971     57.04004     362.8752        17     1.153     0.841 -77.86   0
       324     57.8826    554.2728 307.9034118  +6.4532521     1383.615      1904.55       1886.6     81.37357     162.1704     323.6338      1.499     3.00     935.7708     57.04004     231.8227        13     1.042     0.804  78.72   0
       325    669.9326    552.8190 307.6492551  +6.4743914     3409.503     4635.048     5275.333     80.73131     161.7847     323.5051      1.392     2.57     923.0031     57.04004     668.6975        19     1.134     0.868  71.43   0
       326    269.5712    554.1610 307.8154968  +6.4604163     510.7097     744.8282     856.8221     80.60224     161.5915     323.4729      1.839     5.16     930.4386     57.04004     66.87097         7     0.923     0.814  18.55   0
       327    108.5175    553.8102 307.8823980  +6.4551470     680.7927     973.0024     665.2437     80.73132     161.5271     323.4407      1.506     3.00     934.4643     57.04004     140.3394         5     0.736     0.457  69.41   0
       328    732.0549    552.0009 307.6234798  +6.4768069     1470.086     2056.095     1939.787     80.47297     161.5915     323.2153      1.419     2.80     921.4017     57.04004     308.4044        13     1.125     0.673  77.94   0
       329    680.2534    552.7619 307.6449703  +6.4747603     1549.625     2064.687     2574.838     80.98883     161.9134     323.6016      1.487     3.16     922.7916     57.04004        247.6        13     1.025     0.844  35.62   0
       330    151.7964    551.2181 307.8645110  +6.4576729     2399.331     2665.256     2309.904     80.73131     161.3981     323.4085      1.127     3.62     934.2376     57.04004     773.3362         7     1.041     0.363 -79.66   3
       331    154.3121    545.2720 307.8636670  +6.4602123     28881.07     39588.21     40643.47     81.24553     162.1062     323.6016      1.424     2.86     934.1915     57.04004     4193.618        48     1.411     1.039  74.51   2
       332     88.3178    549.7867 307.8909233  +6.4561284     677.4843     1458.907     1031.482     80.73132     161.5915     323.4407      2.021     7.00      934.696     57.04004     111.9407         9     1.631     0.841  33.67   0
       333    407.8646    548.3898 307.7582533  +6.4674410     2023.428     2692.844     2477.675     80.60224     161.6559     323.4729      1.350     3.91     927.2562     57.04004      337.043        13     1.238     0.701  86.13   0
       334    339.0977    546.6608 307.7868731  +6.4658473     4342.164     5832.206     5810.322     80.86018      161.849     323.6981      1.413     2.76     929.2333     57.04004      723.631        21     1.218     0.877  75.38   0
       335    519.0170    546.1237 307.7121632  +6.4721029     2245.164      2993.04     3803.375     80.60224     161.5915     323.5051      1.335     2.54     925.0878     57.04004      406.468        17     1.076     0.905  59.50   0
       336    882.2963    545.2742 307.5613010  +6.4846034     1864.026     2495.827      2567.62     80.86018     161.9777     323.6016      1.317     2.98      918.507     57.04004     309.6732        13     1.106     0.786  51.83   0
       337    119.4344    543.3572 307.8782172  +6.4598297     2922.552     4102.542     3815.351     80.86018      161.849     323.4407      1.527     3.22     934.1834     57.04004     471.4001        23     1.428     0.856  71.91   0
       338    356.5051    541.7982 307.7798071  +6.4684391      1026.42      1378.71     2213.782     80.60225     161.5271     323.2153      1.584     4.38     928.6737     57.04004     166.3384         9     1.196     0.582 -77.77   0
       339    979.8805    539.9030 307.5209476  +6.4900771     5673.051     7505.284     7186.603     80.86018     162.1704     323.6659      1.354     2.59     914.4496     57.04004     1043.449        25     1.229     0.903  82.41   0
       340    553.1461    532.4797 307.6984468  +6.4788792     1608.062     1911.791     2165.348     81.11728      161.849     323.6659      1.266     2.91     923.5864     57.04004     279.8361        12     0.950     0.808 -88.88   0
       341     18.5878    529.6087 307.9205656  +6.4621114     27946.61     38341.52     39996.21     80.73132     161.6559     323.5372      1.457     2.71     936.3654     57.04004     4820.901        48     1.382     1.079  75.69   0
       342    451.2880    526.4158 307.7409578  +6.4779692     47305.41     64607.46     67248.07     80.86018     161.5915     323.4729      1.437     2.74     925.4595     57.04004     6867.294        60     1.416     1.094  75.12   0
       343      1.6859    523.9426 307.9277769  +6.4638813     183362.9     223875.5     229638.2     74.98109     133.8972     249.5618      1.207     3.29     936.5775     57.04004      34181.4        71     1.374     0.876  89.65  24
       344    659.3337    526.1120 307.6545550  +6.4850630     13691.98     18325.08     18827.36     81.11728     162.0419     323.6016      1.356     2.65     922.3092     57.04004     2278.471        35     1.278     0.983  71.34   0
       345    299.5296    526.3986 307.8039905  +6.4728841     1008.435     1449.959     1268.208     80.60225     161.3981     323.4407      1.431     3.62     928.8084     57.04004     162.2349        12     1.085     0.766  82.41   0
       346    216.4895    523.9772 307.8385619  +6.4710940     20886.61     30509.48     32185.43     81.11728     161.6559     323.4729      1.547     3.24     930.4677     57.04004     3215.467        48     1.481     1.126  60.77   0
       347    182.1154    525.1493 307.8527991  +6.4694547     1647.658     2280.086     1930.555     81.11728     161.7847     323.6981      1.369     3.13     932.1694     57.04004      290.498        17     1.149     0.910 -82.11   0
       348    993.3437    524.5648 307.5158691  +6.4968586      1369.43     1620.364     1446.588     80.98883      161.849     323.6338      1.219     3.03     913.5455     57.04004     210.6478        10     0.904     0.748  62.76   0
       349    833.4794    524.2841 307.5822821  +6.4916393       1015.8     1330.254     1360.175     81.11728     162.1704     323.6981      1.310     2.92     919.2794     57.04004     177.8892         7     0.891     0.499 -88.01   0
       350    922.1335    523.9760 307.5454679  +6.4947263     799.7566     1034.748     973.7563     80.73131      161.849     323.5372      1.363     3.54     915.8348     57.04004     123.9842         8     0.826     0.749 -84.41   0
       351    581.1166    522.9354 307.6871501  +6.4837564     3066.938     4093.926      4260.15     81.24553     162.0419     323.6659      1.377     2.91     922.8627     57.04004     465.7936        19     1.133     0.865  66.28   0
       352    954.9962    520.0370 307.5319495  +6.4974490     5183.181     7108.825     7225.045      80.2138     161.6559     323.4085      1.379     2.80     914.5886     57.04004     953.9241        23     1.216     0.874  62.29   0
       353    628.0296    518.5289 307.6678124  +6.4871461     7293.236     9846.039     10556.25     80.98883      161.849     323.6016      1.414     2.65     922.2073     57.04004     1182.615        29     1.252     1.035  79.52   0
       354    115.9353    518.7195 307.8805029  +6.4698834     1189.937     1504.396     1327.411     81.37357     161.9134     323.5694      1.416     3.75     933.7542     57.04004      182.728        14     1.224     0.747  45.86   0
       355    977.6411    512.3113 307.5228022  +6.5013940     3946.427     5204.845     5642.562     81.11728     161.7847     323.6338      1.352     2.56     913.5941     57.04004     681.0013        20     1.176     0.854  76.82   0
       356    540.2963    509.6931 307.7045507  +6.4878563     8246.951     11185.12     11199.73     81.11728     162.3629     323.5372      1.417     2.73     923.0479     57.04004      1285.67        30     1.256     1.013  78.47   0
       357    386.3521    509.9488 307.7684838  +6.4825896     2925.624     3951.298     4249.789     81.24553     161.7203     323.6016      1.430     3.05     926.0491     57.04004     452.9177        18     1.213     0.856  82.01   0
       358   1007.9925    508.3670 307.5103269  +6.5040346     549.6264     574.6161      607.508     80.60224     161.7203     323.4085      1.151     3.62     912.4939     57.04004     106.7271         6     1.082     0.434  72.87   0
       359    896.8492    505.6653 307.5565843  +6.5014422     3746.168     4981.919     5545.201     80.98883     161.7203     323.5694      1.365     2.43     916.1351     57.04004     733.2543        22     1.119     0.992  73.20   0
       360    416.5589    511.2444 307.7558937  +6.4830681     871.2944     1004.001     837.7798     80.86018      161.849     323.4729      1.132     1.98     925.1223     57.04004      166.075         5     0.672     0.454 -66.05   0
       361    245.0156    504.8665 307.8273589  +6.4799424     711.6645     1148.287     839.5709     80.60224     161.7203     323.5051      1.545     4.60     929.0191     57.04004     93.08179         7     1.104     0.546  56.80   0
       362    904.1642    499.9387 307.5537378  +6.5040507     2443.655     3246.764     3652.005     81.11728      161.849     323.5694      1.365     3.03     915.6467     57.04004     379.1873        15     1.142     0.755  64.45   0
       363    943.6846    499.3372 307.5373418  +6.5056178     1344.638     1725.963     1926.266     81.24553     161.9134     323.5694      1.228     2.47     914.2784     57.04004     255.2938        11     0.935     0.705  60.97   0
       364    123.1886    499.3555 307.8781447  +6.4781217     846.3132     1119.407     915.3002     80.60224     161.7203     323.3119      1.439     4.10     933.1626     57.04004     118.2347         9     1.074     0.580  63.66   0
       365    728.1898    495.9336 307.6269683  +6.4998255     3409.285     4250.437     4126.938     80.60224     161.7203     323.4729      1.288     2.70     920.9125     57.04004     586.7915        17     1.131     0.820  66.06   0
       366    399.1169    494.1860 307.7637131  +6.4895255     4081.675     5893.005     6080.268     80.73131     161.5915     323.4085      1.463     2.89     924.8173     57.04004     589.2887        24     1.311     0.976  77.79   0
       367     90.2385    494.9076 307.8919804  +6.4788493     2149.524     2854.347     2814.008     81.24553     161.7847     323.6659      1.374     2.87     934.0854     57.04004     337.3004        16     1.084     0.859  87.06   0
       368    439.5600    494.4013 307.7469074  +6.4907932     1253.536     1730.121       1440.3      80.2138     161.5915     323.3119      1.389     3.15     923.7857     57.04004     187.5739        11     0.989     0.770  75.17   0
       369    626.8481    490.6662 307.6692400  +6.4986099     11269.78     15217.92     16621.27     80.98883     161.7847     323.6016      1.412     2.58     921.1724     57.04004     2055.161        33     1.300     1.011  72.74   0
       370    789.4750    487.2620 307.6018029  +6.5054542     18363.42     24353.92      25370.7     81.37357      161.849     323.6016      1.352     2.59     919.5544     57.04004     3180.232        39     1.308     1.009  74.06   2
       371    793.6469    482.5078 307.6002296  +6.5075564     1548.464     2069.507     2337.154     81.11728     161.7847     323.7303      1.477     3.01      919.329     57.04004     288.3736        14     1.149     0.727 -81.71   3
       372    309.2278    487.5235 307.8012736  +6.4892592     3040.684     4176.905     4293.023     80.98883      161.849     323.5694      1.450     3.16     926.6992     57.04004     458.9976        17     1.191     0.803  80.44   0
       373    432.6470    486.9106 307.7500311  +6.4936539     696.3443      888.077     1222.137     81.11728     161.7203     323.7303      1.352     4.26     923.5483     57.04004      118.886         5     1.138     0.454  81.74   0
       374    919.4144    484.5892 307.5479177  +6.5108969     702.1924     861.6129     625.1897     80.73132     161.5271     323.5051      1.290     4.87     914.6237     57.04004     108.8484         7     0.993     0.676  46.49   0
       375    818.5670    484.5032 307.5898112  +6.5075652     1400.603     2073.131     2222.637     81.24553     161.7203     323.6981      1.518     2.82     918.3531     57.04004     264.0667        10     1.012     0.642  77.26   0
       376    407.7966    484.3871 307.7604381  +6.4938622     570.5629       751.61      1029.91     80.73132     161.5271     323.4729      1.298     3.59     924.0314     57.04004     93.24969         5     0.946     0.392  83.87   0
       377    392.2166    484.1926 307.7669159  +6.4934198     1741.535      2369.91     3274.043     80.73131     161.5915     323.4407      1.358     2.93     924.5153     57.04004     293.5887        15     1.113     0.806  74.72   0
       378    974.6957    482.1915 307.5250348  +6.5137311     2475.796     3196.276     3205.747     80.86018     161.4626     323.4085      1.255     2.53     912.7109     57.04004     478.6886        15     1.211     0.714  64.17   0
       379    723.1978    481.6399 307.6295220  +6.5055599     710.8249      930.126     1125.224      80.2138     161.5915     323.3119      1.278     3.18     920.8109     57.04004     126.9254         6     0.730     0.622  83.11   0
       380    381.0758    480.4563 307.7716693  +6.4945885     759.5598     1230.502     2053.295     81.11728     161.7847     323.5051      1.521     3.97     924.6501     57.04004     139.4669         7     0.897     0.579 -83.18   0
       381    126.8307    479.1399 307.8773150  +6.4865900     4970.728     6998.774     7263.531     80.86017      161.849     323.5694      1.485     3.01     932.5065     57.04004      818.585        28     1.277     1.126  49.63   0
       382    765.0894    478.1414 307.6122384  +6.5084047      2523.36      3330.69     2873.987     80.98883      161.849     323.7303      1.379     2.87     919.8851     57.04004     480.0573        17     1.203     0.797  64.99   0
       383    284.8521    476.2952 307.8117769  +6.4930761     1733.963     2376.387     2220.933     80.98883     161.7847     323.8589      1.456     3.04     926.6539     57.04004      281.998        13     1.120     0.714  66.14   0
       384    363.0244    473.9990 307.7793848  +6.4966487      3488.89     4814.414     5075.368     80.73132     161.5271     323.3763      1.399     2.78     924.8884     57.04004     571.9131        18     1.119     0.844  68.81   0
       385    719.0031    471.8078 307.6315946  +6.5094789     1785.656     2412.261     2493.244     80.47297     161.5271     323.4407      1.302     2.90     920.2815     57.04004     343.6002        13     1.041     0.763  80.01   0
       386    992.6232    470.6219 307.5179755  +6.5191057     687.1916      846.065      944.586     80.86018     161.6559     323.5694      1.470     3.87     911.7413     57.04004     114.9355         5     0.955     0.449  77.45   0
       387    422.6047    469.8744 307.7547763  +6.5003505     534.6242     617.2864     160.7076     80.73131     161.3336     323.4729      1.263     3.54     923.1853     57.04004     95.69238         5     0.794     0.454  73.81   0
       388    250.7811    469.3647 307.8261623  +6.4947928     793.5975     1104.099     807.6519     80.60225     161.6559     323.3763      1.434     4.38     927.5691     57.04004     130.6998         9     1.211     0.579  67.01   0
       389    560.0717    464.4691 307.6978583  +6.5071897     1022.243     1620.984     1059.328     81.11728     161.9777     323.5372      1.524     4.71     921.1007     57.04004     158.9247         7     1.039     0.609  36.71   0
       390    482.6184    462.5661 307.7300945  +6.5053800     1540.245     1995.169     1809.929     80.60225     161.6559     323.4085      1.401     3.85     921.5195     57.04004      238.889        13     1.148     0.736  63.70   0
       391    845.0042    461.8886 307.5795883  +6.5177849     1683.414     2075.009     1775.245     80.60224     161.5271     323.2797      1.207     2.32      916.108     57.04004       335.37        12     0.918     0.774 -88.79   0
       392    830.8127    460.8047 307.5855197  +6.5177584     2158.203     2752.536     2164.103     80.73131     161.5915     323.4729      1.306     2.61     916.6952     57.04004      442.429        15     1.045     0.851 -81.01   0
       393    727.9972    458.9672 307.6282899  +6.5150810     16579.56     22440.42     23082.38     80.34349     161.6559     323.3441      1.391     2.69     919.5199     57.04004     3037.583        36     1.313     0.970  72.66   0
       394    630.3665    460.6154 307.6687889  +6.5111343     792.0621     798.9789     678.7583     80.73132     161.5915     323.4729      1.146     3.82     919.8685     57.04004     138.3246         8     1.064     0.536  70.34   0
       395    649.1489    454.9297 307.6611781  +6.5141103     2846.085     4003.432     4620.067     80.98883     161.7847     323.6338      1.394     2.85     919.4901     57.04004     449.3068        18     1.214     0.835  70.55   0
       396    722.1229    453.6947 307.6309072  +6.5170613     857.4437     1365.186     1408.843     80.86018     161.9777     323.6659      1.594     3.28     919.2376     57.04004     150.6276         8     0.914     0.703 -72.81   0
       397    624.4603    452.0461 307.6715303  +6.5144745     5837.989     7604.058     8055.896     80.98883     161.7847     323.6659      1.343     2.79     919.4835     57.04004     921.2709        19     1.207     0.792 -79.43   3
       398    620.5165    449.3966 307.6732576  +6.5154363     16171.54     22915.74     23927.05     80.47297     161.4626     323.2797      1.486     2.67     919.3664     57.04004     2595.547        41     1.393     1.061  66.80   3
       399    953.2971    448.8882 307.5350397  +6.5267671     4325.245     5713.059     5306.127     81.11728     162.2987     323.6338      1.324     2.71     912.3411     57.04004     710.0178        22     1.204     0.899  70.40   0
       400    429.4370    446.7908 307.7527160  +6.5101097     686.9312     698.5394    -160.4743     80.47297     161.5915     323.3441      1.313     3.47     922.4449     57.04004     100.4788         5     0.766     0.455 -71.33   0
       401    392.4086    444.8059 307.7681635  +6.5096870     31322.97     43946.05     45809.39     80.47297     161.6559     323.4407      1.467     2.79     923.0621     57.04004     5072.425        52     1.380     1.128  72.51   0
       402    907.8439    443.3152 307.5541078  +6.5275512     1243.638     2916.115     3381.792     81.11728     161.7847     323.5694      2.438     8.31     913.4357     57.04004      301.626        20     2.522     0.765  51.27   0
       403    138.5345    444.3571 307.8736291  +6.5013434     2646.374     3459.261     3613.285     81.11728     161.7847     323.6338      1.346     3.01     930.8392     57.04004     422.8101        14     1.095     0.765  82.83   0
       404    922.0375    439.3199 307.5483458  +6.5296744     5865.915     7858.758     8423.778     80.98883     161.9134     323.5694      1.381     2.67     912.9722     57.04004     1025.227        25     1.271     0.903  72.32   0
       405    603.9579    440.7141 307.6804278  +6.5184666     526.4208     689.5874     639.1679     81.11728     161.7203     323.6016      1.185     3.26     919.2219     57.04004     105.6565         5     0.802     0.483  57.60   0
       406     71.8516    439.7962 307.9014803  +6.5009826     1480.469     2136.576     2736.157     80.47297     161.5915     323.1508      1.659     4.01     933.2744     57.04004     266.2246        13     1.257     0.721  39.04   0
       407    978.3302    437.6501 307.5250175  +6.5322419     606.5537     755.1517     1137.923     80.98883     161.7847     323.6338      1.176     3.32     911.1341     57.04004     149.0536         5     0.760     0.448 -76.63   0
       408    249.9172    435.3620 307.8276687  +6.5088016     14993.03     21124.14     21763.58     81.11728     161.7847     323.5694      1.511     3.15     926.4073     57.04004     2209.109        40     1.413     1.061  77.16   0
       409     85.5197    429.7875 307.8961415  +6.5055746     953.2954     1343.267     1691.861     80.73132     161.5271     323.4407      1.550     5.34     932.7279     57.04004     123.6564        10     1.044     0.771  48.73   0
       410    744.7422    429.2328 307.6223329  +6.5279169     853.6224      1132.03      1862.56     80.98883     161.9134     323.5372      1.277     2.22     917.5759     57.04004     176.0873         7     0.790     0.577  66.86   0
       411   1022.5955    427.7374 307.5069614  +6.5378105     694.4443     785.5161     599.7686     80.34349     144.0123     260.7822      1.181     2.51     909.2862     57.04004     139.6937         5     0.727     0.427  65.75  16
       412    973.2385    427.6985 307.5274661  +6.5361807     1034.034     1199.466     1510.944     81.11728     161.7203     323.8267      1.213     3.49     910.9663     57.04004      206.715         8     0.892     0.694  56.93   0
       413    713.1805    428.2516 307.6354765  +6.5272667     733.9008      1033.38     929.3606     80.60224     161.9134     323.4085      1.429     2.62     917.7582     57.04004     120.7948         6     0.744     0.539  53.45   0
       414    362.9059    425.2587 307.7810771  +6.5167670     1432.437     1960.611     2009.416     80.98883      161.849     323.7303      1.476     3.20     922.4783     57.04004     258.6284        11     0.972     0.788 -65.13   0
       415    195.8962    425.0159 307.8504565  +6.5112573     815.9512     1117.049     693.7659     80.98883     161.6559     323.4407      1.407     3.96     927.9531     57.04004     142.0707         9     1.058     0.686  86.47   0
       416    150.2249    423.9745 307.8694620  +6.5101514     5716.003     7922.962         8106     80.60224     161.6559     323.4729      1.444     2.92     929.6482     57.04004      828.208        26     1.340     0.910  71.46   0
       417    254.9952    422.7876 307.8259839  +6.5141635     1489.422     2052.531     2511.221     80.73131     161.5915     323.4729      1.464     3.90     925.8008     57.04004     214.6592        13     1.198     0.742  68.43   0
       418    447.9075    422.8689 307.7458496  +6.5206053     807.3275     1011.567     680.9678     81.11728     161.9777     323.6016      1.316     3.72     921.2851     57.04004     136.4464         8     0.894     0.732 -75.91   0
       419    836.5595    420.7186 307.5844776  +6.5345003     874.6014      1226.47     1132.125     81.11728      161.849     323.5372      1.461     3.90     914.6091     57.04004      145.814         9     1.153     0.584  62.06   0
       420    172.2328    419.8473 307.8604601  +6.5125954     2635.342     4290.582       4608.2     80.73131      161.849     323.5372      1.701     3.64     928.5931     57.04004     402.4144        22     1.314     1.025  85.01   0
       421    567.8618    419.0122 307.6961518  +6.5262176     1142.581     1611.871     1540.228     80.60224     161.6559     323.3119      1.491     3.05     919.2523     57.04004     169.8978        10     0.869     0.764   4.87   0
       422    284.2888    415.3809 307.8140660  +6.5182054     976.1453     1392.235     1014.117     80.86018     161.5915     323.5051      1.423     3.37      924.422     57.04004     146.9346        10     0.927     0.727 -60.78   0
       423     14.4351    414.9249 307.9261695  +6.5093171     733.7094     1026.944     74.86732     80.98883     161.9134     323.6016      1.593     5.42     934.4258     57.04004     110.2396        10     1.292     0.737  65.34   0
       424    395.7897    414.5812 307.7677778  +6.5222787     2457.518     3399.617     3280.305     80.73132     161.5271     323.4729      1.455     3.00     921.9128     57.04004      382.922        15     1.045     0.875  73.90   0
       425    984.4445    413.6537 307.5232816  +6.5423530     1188.451     1787.288      1904.06     81.11728      161.849     323.6016      1.615     2.95     910.0378     57.04004     195.5961        10     0.955     0.691  80.38   0
       426    329.9895    412.7691 307.7951710  +6.5208184     556.0252     922.0993     1589.424     80.60224     161.5915     323.4729      1.660     3.79     922.6971     57.04004     92.43555         5     0.820     0.503  59.03   0
       427     45.9715    409.0386 307.9132697  +6.5128091     3474.582     5416.931     5753.468     80.60224     161.5915     323.4729      1.664     3.39     933.3235     57.04004     555.6034        28     1.392     1.193 -56.66   0
       428    449.5526    408.2711 307.7456580  +6.5266872     8012.721     11032.24     11417.67     81.11728      161.849     323.6016      1.455     2.88     920.4364     57.04004     1257.745        30     1.337     0.985  82.25   0
       429    790.1602    405.5483 307.6042614  +6.5392133     14793.38     19353.65     19688.46     80.98883     161.9134     323.6016      1.348     2.62     915.5317     57.04004     2359.748        35     1.273     0.964  68.96   0
       430    782.1563    407.0848 307.6075347  +6.5383115      2157.07      2739.23     2498.799     81.11728     161.7847     323.5694      1.280     2.96     915.7079     57.04004     349.6255        13     1.088     0.710  76.10   0
       431    549.2173    407.5425 307.7042826  +6.5303284     597.1318     880.0227     792.9697     80.60225     161.7847     323.3441      1.632     4.50      918.913     57.04004     89.00702         6     0.983     0.587  63.08   0
       432    210.0464    407.8861 307.8451574  +6.5188048     685.0095     897.2373     514.6375     81.11728     161.7203     323.6016      1.380     4.91     926.9134     57.04004     108.4504         8     1.054     0.648  78.06   0
       433    353.4010    403.7193 307.7857515  +6.5253405     1190.422     1654.138     1746.604     80.34349     161.3336     323.3441      1.449     3.79     921.4094     57.04004     178.4171        10     0.984     0.799  35.67   0
       434    965.3572    397.5826 307.5317493  +6.5483515      665.152     1085.441     1832.001     80.60225     161.7203     323.3763      1.412     2.37     909.8614     57.04004     187.9697         6     0.869     0.438  75.05   0
       435    198.7683    396.7332 307.8502186  +6.5230301     907.1609     1067.696     1367.371     80.98883      161.849     323.5372      1.258     4.03     926.9863     57.04004     145.3084         9     1.055     0.582  60.99   0
       436      3.6605    395.0012 307.9313189  +6.5171794     1055.215     2156.697     2823.973     80.47297     156.9503     278.8786      2.458     7.02     934.4175     57.04004     149.2333        15     1.724     0.801 -54.92  24
       437    469.9737    392.5811 307.7377037  +6.5338495     2456.885     3360.119     3358.143     80.73131     161.6559     323.5051      1.442     2.99     918.8821     57.04004     410.9016        17     1.143     0.827  87.09   0
       438    497.6782    391.9044 307.7262181  +6.5350576     3310.002     4451.625     4559.145     80.86018     162.1062     323.6338      1.389     2.70     918.2907     57.04004     576.3513        21     1.185     0.908  82.36   0
       439    926.5156    391.5033 307.5480887  +6.5495655     1062.171     1318.782     1281.502     81.11728     162.2346     323.6659      1.451     3.45     911.2765     57.04004     188.7042        10     0.972     0.778  86.71   0
       440    855.5211    388.4846 307.5776823  +6.5484417     37139.64     51254.13     53318.52     81.11728     162.1704     323.6981      1.469     2.87     912.6993     57.04004     6278.903        51     1.466     1.022  80.81   0
       441   1001.4420    388.9038 307.5170497  +6.5531382     578.0381     480.0787     673.2944     81.11728     161.7847     323.7303      1.151     4.43     907.6351     57.04004     118.2975         5     0.833     0.670 -54.69   0
       442    347.6503    384.0010 307.7888052  +6.5332880     1032.493     1548.484      1866.65     80.47297     161.4626     323.1508      1.568     4.75     920.5477     57.04004     149.1213        11     1.073     0.787  77.95   0
       443     73.1209    384.7675 307.9028135  +6.5237431     611.2419     767.7607     904.6677     80.98883      161.849     323.5694      1.332     3.57     931.6169     57.04004     142.2502         6     1.084     0.516  69.04   0
       444    627.3231    380.7685 307.6727380  +6.5439976     3008.376     4022.684     4143.105     80.98883     161.9134     323.5372      1.420     3.27     915.7975     57.04004     475.2924        20     1.272     0.845  71.54   0
       445     35.4454    380.8520 307.9185952  +6.5240912     1362.253     1840.966     1700.038     81.24553     161.7847     323.6338      1.433     4.40     932.9785     57.04004     205.8456        12     1.167     0.745  80.73   0
       446    711.9816    374.4306 307.6377828  +6.5494469     89490.06       119606     124872.2     80.73131     161.6559     323.4729      1.395     2.64     914.8328     57.04004     15106.98        86     1.414     1.175  70.27   0
       447    870.2660    376.2214 307.5719684  +6.5539971     1355.974     1943.799     2264.143     80.73132      161.849     323.5372      1.411     2.95     911.8535     57.04004     242.1614        12     1.031     0.825 -58.54   0
       448     91.2935    374.2141 307.8956219  +6.5287117     1385.785     1847.827     1979.612     80.86018     161.5915     323.4407      1.383     3.59     930.4669     57.04004     221.9221        13     1.119     0.743 -78.69   0
       449    953.5050    371.4390 307.5375492  +6.5587498     907.6782     881.7766     424.2122     81.24553     161.7203     323.7303      1.199     2.92     909.0739     57.04004     168.9338         9     0.966     0.668  64.99   0
       450    574.4889    371.1117 307.6950105  +6.5462154     2936.903     4158.446     4386.955     80.86017     162.3629     323.6981      1.488     3.03      915.554     57.04004     432.6054        19     1.203     0.870  67.13   0
       451    111.7536    369.9166 307.8872685  +6.5311744     6712.911     9884.191     10408.16     81.11728      161.849     323.6016      1.556     3.16     929.5588     57.04004     1086.216        33     1.402     1.046  71.93   0
       452    401.2082    370.8401 307.7670012  +6.5405189     418.1779     602.9177     724.1664     80.47297     161.6559     323.3119      1.525     3.46     918.8518     57.04004      80.6604         5     1.014     0.341  45.18   0
       453    773.2405    369.7680 307.6124914  +6.5534201      749.927     1222.564     2033.546     80.73132     161.7203     323.4729      1.732     3.49     914.1723     57.04004     135.7653         6     0.900     0.578 -26.71   0
       454    557.7126    367.2997 307.7021078  +6.5472273     7889.334      10934.3     11113.47     81.11728     162.2987     323.6338      1.459     3.07     915.3472     57.04004     1283.969        29     1.294     1.015  66.01   0
       455    286.8406    364.9026 307.8147092  +6.5391307     2844.059     3884.899     3553.754     81.11728     161.7203     323.8267      1.408     3.18     922.0751     57.04004     472.7494        21     1.194     0.989  61.03   0
       456    420.6559    362.5554 307.7592017  +6.5445917     29120.99     40361.04     41961.81     81.11728      161.849     323.6016      1.499     2.78     917.8982     57.04004     4563.051        51     1.402     1.132  79.78   0
       457    599.4415    362.2821 307.6849420  +6.5506964     781.8944     912.8539     431.0178     81.11728      161.849     323.5372      1.152     4.08     914.7808     57.04004     113.6749         7     0.996     0.478 -81.04   0
       458    528.3608    361.2439 307.7145046  +6.5487441     1529.819     2346.399     2676.655     80.86018      161.849     323.4407      1.591     3.20     915.3312     57.04004     236.9727        15     1.084     0.903  51.98   0
       459    687.4567    360.9640 307.6484234  +6.5541863     724.8141     825.8404     980.0839     80.98883      161.849     323.6338      1.227     3.58     914.4243     57.04004     120.9403         7     0.842     0.706  15.59   0
       460    400.4140    360.5979 307.7676763  +6.5447207     1221.073     1839.346     3061.285     80.73132     161.5271     323.4085      2.350     4.89     918.1786     57.04004     198.2296        12     1.264     0.771  28.75   0
       461    815.4894    354.9600 307.5954374  +6.5609455     1151.872     1671.571     1961.758     81.11728      161.849     323.6338      1.501     3.48      912.976     57.04004     213.6949        10     1.122     0.674  75.08   0
       462    499.9120    357.9287 307.7264342  +6.5491594      1406.81     1987.051     2219.351     81.24553     162.1062     323.6016      1.480     3.46      915.827     57.04004     198.9529        13     1.089     0.785  73.67   0
       463    651.5023    355.1206 307.6635560  +6.5553958     605.1906      880.437     800.1336     80.86017     162.1704     323.6338      1.255     3.01     914.3036     57.04004     147.9561         5     0.768     0.450  69.55   0
       464    509.6771    352.9840 307.7225441  +6.5515280     9402.533      13055.7     13793.86     80.60224     161.5915     323.4729      1.431     2.88     915.1872     57.04004     1612.421        31     1.270     1.012  75.24   0
       465    709.6019    353.8921 307.6394615  +6.5578467     1966.168     1954.494     2122.551     80.47297     161.5271     323.3441      0.765     1.77     913.7891     57.04004     704.6457         7     0.727     0.404  27.25   0
       466    778.8821    351.7931 307.6107514  +6.5610297     3530.463     4825.408     5343.429     80.73131     161.4626     323.4407      1.357     2.55     913.3622     57.04004     706.4398        18     1.062     0.876  69.75   0
       467    934.5108    351.3880 307.5461122  +6.5663943     1095.802      1382.35     1438.642     80.86018     161.5271     323.5051      1.200     3.37     909.4124     57.04004      183.936         8     1.003     0.622 -89.93   0
       468    726.6506    351.0706 307.6324739  +6.5595818     942.1601     1213.176      1652.69     81.11728     161.7847     323.6338      1.282     4.17     913.4537     57.04004     135.1718         7     0.769     0.644  86.97   0
       469    336.3791    349.6144 307.7946468  +6.5471060     1113.259     1587.063     1517.108     80.86018     161.5915     323.5051      1.451     3.21      919.357     57.04004     172.1555        11     1.054     0.717  53.86   0
       470     95.0106    346.8065 307.8950044  +6.5401516     648.1385        675.1     634.0695     80.60224     161.6559     323.5051      1.153     4.01     929.3057     57.04004     140.3748         5     1.045     0.441  68.19   0
       471    172.0494    343.6828 307.8631090  +6.5440330     1280.709     1829.686     2049.465     81.11728      161.849     323.6338      1.447     3.57     926.8777     57.04004     194.6376        12     1.117     0.694 -69.64   0
       472    271.8004    343.3301 307.8216848  +6.5475316     750.7026     1237.169     1183.658     80.60224     161.3336     323.4085      1.705     5.11      921.896     57.04004     112.4865         8     1.058     0.697  71.97   0
       473    399.6176    337.0578 307.7688005  +6.5544124     8174.863     11679.84     12185.11     80.60224     161.7847     323.3441      1.500     3.05     917.1505     57.04004     1324.613        35     1.447     1.018  76.57   0
       474    255.3703    337.5098 307.8287063  +6.5493824     2295.057     3319.735     2983.571     81.24553     161.5915     323.5372      1.543     3.04     922.6665     57.04004     410.5723        19     1.240     0.888  62.98   0
       475    767.4692    333.0004 307.6161237  +6.5684069     60205.77        81117     84389.08     80.60224     161.3336     323.4085      1.382     2.78     912.7228     57.04004     10812.59        68     1.406     1.084  74.08   0
       476    753.1438    336.8661 307.6219450  +6.5663320     1229.001      1634.16     1526.937     81.24553     161.7847     323.6016      1.382     2.90     912.8678     57.04004     223.2951        11     0.924     0.797  36.22   0
       477    439.1613    332.4915 307.7525275  +6.5576242     2632.444     3726.941     3913.042     81.24553     161.7847     323.6338      1.469     3.06     915.8907     57.04004     397.6765        16     1.120     0.838  75.16   0
       478   1002.2921    330.0439 307.5186686  +6.5774675     1906.056      2657.59     2430.507     81.11728     161.7847     323.7303      1.458     3.34     904.9246     57.04004     286.3793        15     1.170     0.754  62.76   0
       479    585.2107    330.1687 307.6919340  +6.5634779     1282.062      1674.57      1688.28     80.60224     161.5915     323.4729      1.424     3.30     912.8718     57.04004     228.3914        11     1.044     0.808  75.44   0
       480    943.3471    329.2111 307.5431848  +6.5758452     2628.771     3451.558     4003.017     80.47297     161.7847     323.3441      1.347     3.00     907.8632     57.04004     391.3962        15     1.127     0.739  66.74   0
       481    476.2593    328.6615 307.7372454  +6.5604494     1288.249     1982.662     2385.633     81.11728     161.7847     323.6338      2.082     5.26      914.579     57.04004     195.2064        11     1.350     0.605  74.41   2
       482    425.7173    328.1370 307.7582590  +6.5589710     1982.405     2949.086     2770.456     81.24553      161.849     323.5694      1.575     3.03     916.1372     57.04004     346.1086        15     1.098     0.820  86.54   0
       483    305.5297    327.7150 307.8082004  +6.5551112     665.0352     788.6444     150.7453     81.24553     162.1062     323.6338      1.386     4.30     919.7852     57.04004     107.2277         6     1.086     0.485  82.97   0
       484    846.9772    322.5009 307.5834457  +6.5753984     1299.755     1783.628     1699.154     81.11728     161.5915     323.3763      1.432     3.68     910.6871     57.04004     235.4622        13     1.208     0.804  83.41   0
       485    978.9550    320.6158 307.5286798  +6.5805817     565.9701     1066.684     983.4589     80.60224     161.6559     323.3763      1.865     4.33     905.9148     57.04004     110.9179         5     1.005     0.531 -71.51   0
       486    202.1572    319.3615 307.8514238  +6.5550862     2450.812     3467.099     4079.112     80.86018      161.849     323.4729      1.545     3.30     925.1559     57.04004     359.3035        18     1.192     0.902  81.78   0
       487    456.2956    319.6976 307.7458406  +6.5634808     1412.619     1971.561     2546.939     81.11728      162.427     323.4407      1.551     2.94     914.7419     57.04004     200.3734        12     0.980     0.783  79.47   0
       488    765.9008    317.6089 307.6172921  +6.5747090     6910.767     8990.622     9426.086     80.86017     161.4626     323.4085      1.357     2.52     912.2192     57.04004     1268.676        24     1.202     0.870  72.62   0
       489    356.6741    316.6595 307.7873274  +6.5613926     645.4247     1157.036     758.7499     81.24553      161.849     323.6016      1.770     5.99     917.7687     57.04004     100.4174         9     1.602     0.630  84.42   0
       490     98.5153    316.9616 307.8945576  +6.5525906     1248.712     1620.433     1771.252     81.11728     161.7847     323.5372      1.387     3.83     928.6913     57.04004     171.4136        10     1.007     0.726  89.85   0
       491    782.3441    315.5715 307.6105294  +6.5760997      2926.63     3939.424      3781.02     80.73132     161.9134     323.5051      1.323     3.06     912.1247     57.04004     461.5309        21     1.200     0.910  69.52   0
       492    484.5003    313.9089 307.7343188  +6.5668163     688.4929     1036.206     1537.324     81.11728     162.2346     323.5694      1.499     4.10     913.3365     57.04004     101.8849         6     1.048     0.459  33.73   0
       493     85.4273    310.8006 307.9002025  +6.5546936      1377.74     1828.268     1789.737     80.73132     161.5271     323.4085      1.375     3.25     929.1576     57.04004     240.4559        11     1.094     0.674  67.59   0
       494    372.0344    310.3426 307.7811595  +6.5645161     1772.052     3381.787     3266.096     80.98883      161.849     323.6016      2.009     4.72     917.1646     57.04004     263.3645        24     1.499     1.064   3.85   0
       495   1020.5558    306.4951 307.5118700  +6.5877989     6758.297     8835.791     9106.396     81.11728     161.7847     289.7544      1.331     2.65     904.2579     57.04004     1102.467        27     1.218     0.932  66.55  16
       496    498.5791    306.3094 307.7287260  +6.5704257     2283.845     3075.657     2935.562     80.98883     161.6559     323.4407      1.392     3.39     912.5037     57.04004     371.0692        18     1.267     0.842  78.05   0
       497    269.7432    303.1056 307.8238969  +6.5640688     482.2304     755.1815     1394.919     80.98883      161.849     323.7946      1.372     4.31     920.7829     57.04004     89.45117         5     1.052     0.502 -53.40   0
       498    261.1658    301.8426 307.8275027  +6.5643020     6469.738     8992.089     9381.101     80.86017      161.849     323.4085      1.441     3.10     921.4541     57.04004     960.3925        27     1.296     0.961  70.54   0
       499    929.0261    300.9364 307.5500823  +6.5870408     582.5057     783.2228     295.5669     80.73131      161.849     323.5372      1.204     4.47     906.9705     57.04004     110.8141         6     1.200     0.473  77.51   0
       500    825.8303    300.6375 307.5929648  +6.5837185     624.4117     806.7551     607.6144     80.73131     161.5915     323.4729      1.302     2.66     910.6537     57.04004      123.303         5     0.733     0.438  19.62   0
       501    951.9012    296.6995 307.5407209  +6.5895533     680.2038     816.4307     879.1923     81.11728     162.2346     323.4407      1.332     3.39     906.1496     57.04004     121.8038         7     0.956     0.621 -89.22   0
       502    780.6506    295.4017 307.6119103  +6.5843704     964.2542      1154.33     828.7656     80.47297     161.4626     323.1831      1.177     2.83     911.4055     57.04004     186.6945         9     0.964     0.597 -89.23   0
       503    132.8514    295.6546 307.8810146  +6.5625424     636.6937     696.4297     480.7066     81.24553      161.849     323.6338      1.237     2.60     927.1082     57.04004     111.2968         5     0.730     0.440  18.11   0
       504    395.3614    292.7207 307.7720631  +6.5725741     1824.204     2939.329     2656.751     80.98883     161.9134     323.6016      1.717     3.70     915.9991     57.04004     261.3639        19     1.292     0.884  79.13   0
       505    982.3645    291.6788 307.5282331  +6.5926424     1368.142     1595.321     2066.577     80.98883     161.9134     323.6016      1.193     2.84     905.2901     57.04004     215.6139        10     0.924     0.700 -75.66   0
       506    317.7292    288.6440 307.8044507  +6.5716511     1302.743     1767.431     1582.044     80.98883      161.849     323.6338      1.416     3.92     918.0438     57.04004     211.7886        12     1.306     0.575  76.62   0
       507    165.0588    288.5225 307.8678764  +6.5665702     1992.258     2771.406      2515.58     81.24553      161.849     323.5372      1.374     3.34     925.7761     57.04004     294.1257        14     1.159     0.745  80.94   0
       508    918.4183    283.2432 307.5550827  +6.5939915     1853.671     2839.287     3091.839     80.60225     161.7203     323.3763      1.723     4.11     906.5703     57.04004     338.2175        18     1.445     0.864  59.94   0
       509    574.6785    284.1603 307.6978575  +6.5821198     2441.205     3310.326      3211.56     80.98883      161.849     323.6016      1.448     2.97      910.402     57.04004     419.1085        19     1.185     0.879  64.03   0
       510    856.7993    283.9533 307.5806587  +6.5916411       570.54     689.0176       424.56     80.47297     161.5271     323.1508      1.365     4.52     908.8842     57.04004     96.00342         6     0.840     0.692  79.76   0
       511    738.2778    281.7298 307.6299731  +6.5885983     5896.194      7812.75     7652.749     81.37357     162.1062     323.5694      1.389     2.89      911.051     57.04004     951.7964        24     1.259     0.896  75.56   0
       512    718.0551    282.1878 307.6383592  +6.5877329      1067.27     1027.033     818.7377     80.47297     161.7847     323.2797      0.513     2.20     911.0914     57.04004      719.219         5     0.652     0.227 -88.41   0
       513    679.3275    281.8425 307.6544600  +6.5865800     2338.999     3059.568     2934.176     80.98883     161.9134     323.6338      1.398     2.91     911.1656     57.04004     339.2405        16     1.054     0.922  73.46   0
       514    976.5482    281.5990 307.5309874  +6.5966099     872.4398     1038.457     929.8425     80.47297     161.4626     323.1508      1.214     3.46     905.2092     57.04004     168.9223         7     0.923     0.624  40.22   0
       515    394.1311    275.8423 307.7731431  +6.5795009      850.502     1083.813     1114.724     80.98883     161.7847     323.6981      1.536     4.41     915.3228     57.04004     125.5522        11     1.108     0.856  89.97   0
       516    934.2765    273.8979 307.5488077  +6.5983791     1363.347     1856.906     2093.934     80.73131     162.1062     323.6338      1.389     3.33     905.8666     57.04004     242.8284        12     1.116     0.710  69.62   0
       517    237.8003    266.9689 307.8383864  +6.5779141      2516.59      3587.72     3241.641     80.47297     161.6559     323.4085      1.472     2.99     922.4322     57.04004      388.126        20     1.200     0.982  63.09   0
       518    880.7443    265.9695 307.5713140  +6.5998654     1915.167     2573.192     2689.388     80.98883     161.9134     323.5694      1.313     3.11     907.3665     57.04004     312.7899         9     0.938     0.638  62.50   0
       519    771.1259    265.4990 307.6168715  +6.5963975     1729.572     2285.907     1845.362     80.60224     161.9777     323.5694      1.320     2.60     910.1398     57.04004     322.1591        11     0.958     0.664  71.56   0
       520    887.7794    260.7853 307.5685651  +6.6022407      493.956     640.1765     1733.665     80.86017     161.5915     323.5051      1.370     3.89     906.9711     57.04004      83.4126         6     0.787     0.550  44.82   0
       521    259.6452    260.8475 307.8295181  +6.5811754     649.8635     826.6512     986.9579     81.11728     161.7203     323.6016      1.575     4.34     920.7224     57.04004     88.75745         7     0.882     0.609   8.74   0
       522    471.7765    256.8705 307.7415258  +6.5899379     25206.77     35688.66     37459.73     80.73131     161.7203     323.5694      1.496     3.08     911.0112     57.04004     3929.294        49     1.409     1.115  71.96   0
       523    333.1546    259.0576 307.7990407  +6.5843836     824.9265     1205.546     713.5249     81.11728      161.849     323.6981      1.457     3.23     917.0334     57.04004     160.4946         8     1.009     0.635 -38.67   0
       524    797.8682    256.0026 307.6060802  +6.6012120     14596.35      20320.8     21624.13     80.47297     161.4626     323.4085      1.439     2.81     909.4871     57.04004     2800.819        45     1.322     1.284 -26.81   0
       525    736.6133    252.1990 307.6316568  +6.6007346     888.7499     1308.502     1047.017     80.73132     161.5271     323.3763      1.480     3.58     909.8827     57.04004     120.4829         8     0.890     0.654 -81.80   0
       526    477.5700    251.8262 307.7392889  +6.5922146     1522.965     2296.826     2545.262     80.60225     161.6559     323.4407      1.674     3.47     910.5554     57.04004     218.3765        12     1.063     0.758 -76.38   0
       527    160.0296    250.1010 307.8712638  +6.5822629     2598.953     3528.962     3884.189     81.11728     161.5915     323.6338      1.458     3.46     924.9285     57.04004     355.3146        20     1.298     0.876  71.58   0
       528    134.8056    249.4162 307.8817655  +6.5816970     1184.543     1760.765     1984.909     80.73132     161.5271     323.4407      1.485     2.68     926.0612     57.04004     233.9551        10     0.937     0.682  86.42   0
       529    187.1760    248.2688 307.8600484  +6.5839323     690.4325     976.0682     1123.482     80.73131     161.7203     323.5694      1.555     4.69     923.9381     57.04004     108.9894         7     1.216     0.513  74.26   0
       530    934.2316    246.6515 307.5497400  +6.6096265     1630.967      2112.29     1898.052     80.98883     161.9777     323.5372      1.223     3.03     905.2849     57.04004     260.6161        12     1.009     0.815  86.00   0
       531    595.8734    242.5970 307.6904507  +6.5999891     5125.315     7107.072      7511.92     80.60224     161.3981     323.4407      1.446     2.91     909.3891     57.04004     878.2269        24     1.257     0.928  74.61   0
       532    558.4637    242.8645 307.7059836  +6.5986256     2354.702     3405.495     3356.126     81.11728      161.849     323.6338      1.465     3.03     909.6494     57.04004     344.0371        20     1.238     0.914  79.45   0
       533    316.2752    243.4619 307.8065790  +6.5902553     1278.918         1537     1283.708     81.37357      161.849     323.6016      1.362     3.35     917.4667     57.04004     172.9694        12     1.009     0.787  67.50   0
       534    400.2297    241.8265 307.7717563  +6.5937488     1733.178     2317.672     2474.418     80.60224     161.6559     323.4407      1.417     3.55     913.4886     57.04004     234.6379        16     1.191     0.869  65.61   0
       535    956.8333    239.7766 307.5405802  +6.6132190     3092.756     4207.531     3924.545     80.60224     161.6559     323.4085      1.354     2.59     904.7605     57.04004     643.5825        15     1.111     0.757  81.12   0
       536    902.8890    239.2138 307.5630113  +6.6116511     12909.14     17079.46     17751.34     80.86017     161.6559     323.4729      1.365     2.62      905.861     57.04004     2375.707        33     1.295     0.924  75.48   0
       537    330.9866    239.4955 307.8006012  +6.5923868     1023.808     1260.848     1640.611     80.86017     161.5915     323.4085      1.358     3.29     916.6882     57.04004     175.1681        10     0.936     0.768  50.11   0
       538    222.2816    239.7016 307.8457539  +6.5886495     836.5485     1130.507     1076.277     81.11728     162.2987     323.6981      1.524     3.61     922.4265     57.04004     127.6125         8     0.921     0.617  82.75   0
       539    989.4974    237.0232 307.5271014  +6.6154454     11110.76        14992     15458.12     81.24553     161.5915     323.4085      1.396     2.77     904.1883     57.04004     2061.842        32     1.309     0.971  68.96   0
       540    578.1309    239.0223 307.6979421  +6.6008707     1004.555     1316.431     958.2885     80.73131     161.7847     323.5694      1.488     3.52     909.4258     57.04004     163.1079         8     0.848     0.651  46.31   0
       541     29.0728    235.7537 307.9261508  +6.5837779     28436.92     40158.07     42116.31     80.98883     161.9134     323.6016      1.473     2.97      929.883     57.04004     4383.385        55     1.441     1.123  68.90   0
       542    700.9348    236.9804 307.6469911  +6.6058243     3404.282     4380.047     4966.532     80.73131      161.849     323.4407      1.364     2.83     909.8051     57.04004      608.667        17     1.133     0.799  70.37   0
       543    275.4319    236.5427 307.8237803  +6.5917399     1245.593     1789.293     1676.868     80.98883      161.849     323.5372      1.504     3.29     919.4784     57.04004      172.116        13     1.002     0.894  80.62   0
       544    509.5166    232.0809 307.7266818  +6.6014374     2168.561     2816.392     2683.456     80.98883     162.1062     323.6659      1.365     2.94     909.6303     57.04004     353.7213        18     1.113     0.885  78.65   0
       545    841.4698    228.5032 307.5888884  +6.6140220     2342.597     3125.402     3365.008     80.98883     162.0419     323.6016      1.374     2.66     907.0602     57.04004     455.7216        15     1.105     0.772  72.99   0
       546    521.6141    228.0606 307.7217912  +6.6035026     2776.484     3650.344     3384.122     80.60224     161.7203     323.3441      1.374     2.93     909.5089     57.04004     478.4989        20     1.192     0.875  73.48   0
       547    893.7620    227.8816 307.5671834  +6.6160249     2302.353     2881.587     3306.161     81.11728     161.9134     323.5372      1.305     2.74     905.7474     57.04004     450.1151        14     1.058     0.745  87.20   0
       548    753.0863    225.1676 307.6257210  +6.6124454     45046.05     60761.02     63235.22     81.11728     161.6559     323.6016      1.379     2.81     908.5908     57.04004     7671.719        56     1.370     1.052  73.04   0
       549    356.1801    224.4457 307.7906424  +6.5994459     6394.215      12160.1     12868.06     80.73132     161.7847     323.4407      2.015     5.75     915.0151     57.04004     760.5525        43     1.938     1.085 -86.27   0
       550    986.9146    223.9980 307.5286110  +6.6207368       3208.9      4234.21     4406.881     80.47297     161.4626     323.3119      1.358     2.66     903.9625     57.04004     605.3334        20     1.153     0.874  71.93   0
       551    920.9753    222.3061 307.5560640  +6.6192353     8631.989     11495.35     11528.93     81.24553     161.5915     323.4407      1.384     2.78     904.8934     57.04004     1537.554        29     1.244     0.978  72.05   0
       552   1024.0000    222.1097 307.5132661  +6.6227531     428.1175     684.6795     811.8159     65.33513      122.868     237.5497      1.873     3.76     903.3372     57.04004     118.6444         5     1.407     0.289  90.00  24
       553    464.4407    221.3210 307.7457711  +6.6043684     5681.721      7831.97     7691.687     80.98883      161.849     323.6016      1.465     3.00     909.9814     57.04004     805.7977        27     1.327     0.940  76.96   0
       554    239.2862    218.3769 307.8394098  +6.5980247     897.7959     1213.565     1224.857     81.11728     161.6559     323.4729      1.568     3.66     921.0984     57.04004      149.546        10     1.028     0.731  86.09   0
       555    121.8892    212.6441 307.8883742  +6.5964432     5220.533     7301.769     7962.255     81.11728     161.7203     323.6338      1.478     3.08     925.8721     57.04004      819.826        26     1.311     0.936  76.23   0
       556    292.1803    209.3247 307.8177409  +6.6035392     37265.46     52665.49     55073.68     80.73131     161.6559     323.5372      1.499     3.00     918.8364     57.04004     5216.745        59     1.447     1.137  73.71   0
       557    941.4520    211.9658 307.5479032  +6.6241877     916.2423     1163.222      1620.19     80.98883      161.849     323.5051      1.396     3.69     903.9702     57.04004     148.7148         6     0.789     0.495  85.06   0
       558    267.4854    210.3395 307.8279660  +6.6022906     7512.925     10478.96     10596.54     81.24553     161.9777     323.6981      1.516     2.96     919.9365     57.04004     1083.592        31     1.365     1.000  71.13   0
       559    618.4818    211.2544 307.6821123  +6.6136859     641.0089     959.0043     1084.369     81.11728      161.849     323.6659      1.270     2.91       908.61     57.04004     120.3625         5     0.720     0.453  67.91   0
       560    721.4007    208.3680 307.6394499  +6.6183216     1014.371     1539.681      1658.43     80.47297     161.6559     323.3441      1.719     3.97     908.6225     57.04004     166.8718        12     1.144     0.762  78.69   0
       561    416.2123    204.8207 307.7663637  +6.6095627     54732.61     77004.73     79802.53     80.86017     161.5271     323.5051      1.459     2.93     911.1111     57.04004     7912.346        60     1.422     1.136  74.36   0
       562    172.2199    206.0392 307.8676883  +6.6008632      4584.71     6258.763     6550.416     80.73131     161.6559     323.3441      1.442     3.04     923.4441     57.04004     637.6537        22     1.208     0.922  78.81   0
       563    433.6645    205.2868 307.7590975  +6.6099558     1760.801     2445.646     2462.188     81.11728     162.0419     323.6016      1.417     3.06      910.549     57.04004     268.8331        14     1.069     0.799  84.47   0
       564    320.2214    202.4939 307.8063218  +6.6073011     20301.15     28489.71     30051.54     80.98883     161.6559     323.4407      1.527     3.08      917.224     57.04004     2713.477        47     1.431     1.105  70.69   0
       565    755.5179    201.0327 307.6255215  +6.6224909     37296.86     50113.94     52102.18     80.98883     161.7847     323.5694      1.383     2.80     907.8523     57.04004     6434.613        52     1.371     1.045  73.34   0
       566    803.7582    201.4519 307.6054648  +6.6239303     1381.406     1842.565     2386.832     81.11728     161.9134     323.6016      1.490     4.97     906.8674     57.04004     240.1652        14     1.428     0.803  60.02   0
       567    703.6900    202.5454 307.6470038  +6.6201331     1198.014     1422.685     1197.229     80.98883     161.6559     323.7303      1.199     3.22     908.6843     57.04004      237.936        11     1.046     0.706  64.42   0
       568     42.9674    201.0710 307.9215521  +6.5985640     752.3177     1096.432     1082.682     80.98883      161.849     323.5694      1.503     3.61     928.9785     57.04004     168.1844         8     1.203     0.634  56.28   0
       569     72.3053    198.2219 307.9094606  +6.6007281      10325.4     14634.39     14849.92     81.11728     161.6559     323.4407      1.503     3.05     927.6712     57.04004     1476.595        35     1.379     1.031  69.85   0
       570    579.5598    199.2582 307.6986867  +6.6173351     571.3722     916.6524     540.1364     81.11728      161.849     323.6659      1.344     3.36     908.3536     57.04004     111.5062         5     0.752     0.435 -67.07   0
       571    106.2937    196.4604 307.8954003  +6.6025995     1579.639     2044.057     1873.257     80.98883      161.849     323.6338      1.337     3.71     926.0891     57.04004     250.7892        12     1.246     0.628 -88.35   0
       572   1013.8270    195.3576 307.5183892  +6.6334588     1336.089     1733.818     1732.598     80.73131      161.849     323.4729      1.394     5.33     902.4222     57.04004     224.1086        13     1.427     0.699  55.22   0
       573    327.7708    202.5689 307.8031829  +6.6075237     2246.542     3783.996     5153.536     80.60225     161.5915     323.3441      2.162     3.95     916.7202     57.04004     314.3928        21     1.408     0.912  85.58   2
       574   1015.1498    182.3705 307.5182748  +6.6388647     2312.444     3476.658     3472.806     80.73131     161.9777     323.5051      1.740     6.18     901.9073     57.04004     396.4587        25     2.048     0.813  76.28  16
       575    589.4713    185.6880 307.6950254  +6.6232695     805.5717     1037.785     1089.073     81.24553     162.1062     323.6016      1.253     3.69     907.9454     57.04004       142.33         9     0.988     0.727 -69.57   0
       576      5.8184    183.7086 307.9375724  +6.6044803      983.732     1303.179     1107.566     80.98883     161.5915     305.2916      1.393     2.77     930.6571     57.04004     162.4702         8     0.855     0.643 -83.90  16
       577    597.9090    179.1595 307.6917395  +6.6262474     993.0756     1319.118     1308.389     81.11728     161.7847     323.6659      1.415     4.44     907.7294     57.04004     187.3053         9     1.201     0.566  72.19   0
       578    606.2562    177.3487 307.6883323  +6.6272745     2272.427     3126.325      3123.76     81.11728      161.849     323.5694      1.425     3.24     907.6585     57.04004     358.3674        17     1.213     0.838  78.64   0
       579    291.0689    175.5739 307.8193417  +6.6174356     33930.68     47812.95     50669.73     80.73131     161.7203     323.5051      1.503     2.97     919.4963     57.04004     4940.759        58     1.426     1.163  76.20   0
       580    350.3205    177.6529 307.7946550  +6.6185672      1104.02     1449.351     1967.886     81.11728      161.849     323.6016      1.412     3.16     915.3834     57.04004      159.299        11     0.981     0.808  70.16   0
       581     36.3622    174.0188 307.9252114  +6.6095095     5055.934     7360.911     8260.934     80.73131     161.7203     323.3441      1.540     3.05      929.074     57.04004     735.4055        27     1.270     1.014  77.84   0
       582    722.7455    172.2287 307.6401056  +6.6332868      9195.09      12310.4     12556.08     80.86018     161.9134     323.5372      1.382     2.82     907.5906     57.04004     1596.612        28     1.260     0.931  71.64   0
       583    200.2059    173.7017 307.8571542  +6.6151545     921.6562     1308.608     1025.418     80.86018     161.4626     323.3441      1.514     3.19     922.2457     57.04004     152.9618         7     0.936     0.561 -78.03   0
       584    277.1366    170.6628 307.8252957  +6.6189950     901.9969     1168.494     1677.416     81.11728      161.849     323.6338      1.547     4.40     920.1043     57.04004     129.3092         9     1.058     0.618  74.36   0
       585    133.5462    169.2621 307.8849979  +6.6147450     5520.427     7507.561     7968.821     81.11728     161.7847     323.5694      1.452     2.99     924.0424     57.04004     901.1822        27     1.314     0.945  80.76   0
       586    661.4399    166.4050 307.6657728  +6.6336400     788.5726      1024.11     825.5181     80.34349     161.5915     323.3119      1.426     4.10     907.5339     57.04004     113.9846         7     1.011     0.474 -80.55   0
       587    595.3773    166.9650 307.6932017  +6.6311971     843.8558     1077.983     673.1513     80.60224     161.5915     323.3763      1.358     3.59      907.418     57.04004     124.4405         7     0.847     0.592  65.12   0
       588    472.6901    166.4382 307.7441928  +6.6273031      1532.38     2064.304     1647.107     81.11728     161.7847     323.6338      1.445     3.15     908.7787     57.04004     215.3223        12     0.995     0.786  85.64   0
       589    404.2586    165.2105 307.7726653  +6.6255144     4275.505     6649.768     7416.518     80.47297     161.7203     323.3119      1.665     3.69     910.7195     57.04004     569.7162        29     1.485     1.050  80.77   0
       590    368.6101    164.2405 307.7875088  +6.6247184     3575.172     4692.837     4406.672     80.47297     161.6559     323.3119      1.390     3.01     913.7689     57.04004     542.8553        24     1.195     1.027  81.42   0
       591    580.2737    164.1767 307.6995707  +6.6318424     653.5364     998.8449      628.712     80.73131     161.6559     323.5372      1.587     4.62     907.3437     57.04004      85.7038         7     1.361     0.445 -67.26   0
       592    123.0207    164.0421 307.8895472  +6.6165458     1836.577     2420.396      2376.97     80.60224     161.6559     323.4407      1.340     3.05     924.3422     57.04004     292.5095        14     1.090     0.783  79.62   0
       593    759.2225    162.1923 307.6252872  +6.6386501     641.6087     801.8629     560.4343     80.60224     161.6559     323.4085      1.158     3.80      906.636     57.04004     104.2391         5     0.908     0.456  44.18   0
       594    684.6735    161.9690 307.6562688  +6.6362489     870.4453     1067.578     985.1536     80.98883      161.849     323.6016      1.316     4.35     907.3849     57.04004        139.9         8     1.066     0.552  66.61   0
       595     61.6250    159.8266 307.9151963  +6.6162193     518.8937     696.4504     182.2632     80.60224     161.6559     323.4729      1.354     3.36     927.3808     57.04004      97.9303         5     0.769     0.426  68.97   0
       596   1015.5566    158.2796 307.5189131  +6.6488244     1721.946     2187.342     1633.895     81.11728      161.849     323.5694      1.244     2.95     900.8644     57.04004     321.5224        12     1.078     0.657  75.72   0
       597    741.4053    158.1330 307.6328264  +6.6397303     631.1268     829.3608    -315.7049     80.60224     161.5271     323.4085      1.324     3.34     906.9487     57.04004     108.0215         5     0.752     0.431  67.55   0
       598    859.7842    153.4416 307.5837985  +6.6456233     533.7697     1013.909     1019.899     80.60225     161.5915     323.3763      1.903     5.58     903.7272     57.04004     75.51648         9     1.537     0.572  68.80   0
       599    220.4970    153.1432 307.8494186  +6.6243240      6283.57     8791.641     8720.482     80.98883     161.7847     323.8267      1.453     2.99     921.7721     57.04004     962.5157        27     1.317     0.947  76.35   0
       600    103.2269    153.0554 307.8981419  +6.6204153     2335.207     3226.793      3509.28     80.73131     161.9134     323.4407      1.441     3.25     924.7401     57.04004     335.3842        17     1.146     0.877  77.46   0
       601    682.2820    151.8979 307.6576010  +6.6403267     7048.495      9330.62     9429.177     81.11728     162.2346     323.6981      1.372     2.90     906.9969     57.04004     1061.281        27     1.239     0.944  68.82   0
       602    830.3149    151.7357 307.5961001  +6.6453432     1122.586     1198.736     1083.199     81.24553     161.9777     323.6338      1.157     4.09     904.3586     57.04004     194.3466         8     0.996     0.580  88.85   0
       603    634.4438    149.2221 307.6775671  +6.6398303     10411.02     14845.03     16035.43     80.60225     161.7203     323.4085      1.483     3.00     906.9263     57.04004     1630.176        39     1.409     1.051  80.36   3
       604    637.9742    140.7493 307.6763853  +6.6434465     60094.31     82184.64      85562.6     80.73131     161.9134     323.5051      1.436     2.82     906.6746     57.04004     10314.23        66     1.380     1.154  67.55   2
       605    269.3708    149.9408 307.8292216  +6.6272888     793.3118     1380.191     1402.108     80.73131     161.9134     323.5372      1.867     5.23     920.4724     57.04004     143.5166         9     1.226     0.634  54.50   0
       606     33.5546    148.4959 307.9272413  +6.6199515     996.1803     1573.528     1552.618     81.11728     161.7847     323.7624      1.739     5.71     929.0432     57.04004     124.1483        12     1.237     0.858 -88.03   0
       607    361.6609    144.9043 307.7910481  +6.6324679     3838.816     5936.764     6332.011     80.86018      161.849     323.6981      1.618     3.81     914.5209     57.04004     558.7284        28     1.485     1.035 -68.32   0
       608    543.3618    144.3568 307.7155740  +6.6387883     2021.992     2612.183     2696.654     80.86018      161.849     323.4729      1.348     3.21     906.8069     57.04004     283.5922        15     1.096     0.834  73.74   0
       609   1007.9190    144.0489 307.5225634  +6.6544449     947.8253     1142.839     873.9097     81.11728      161.849     323.6338      1.305     3.43     899.9059     57.04004     173.1883         7     0.865     0.629 -53.88   0
       610    317.0509    134.4426 307.8099352  +6.6352890     4086.271     5640.393     5842.372     81.24553      161.849     323.6016      1.495     3.04     917.9925     57.04004     596.3727        21     1.188     0.960  80.13   0
       611    512.3258    131.4416 307.7289039  +6.6430801     590.3223      901.692     1230.571     80.98883     161.9134     323.6338      1.669     4.30     907.0526     57.04004     83.69037         7     0.971     0.542  59.16   0
       612     14.4832    117.4790 307.9362142  +6.6321137     750394.1      1488644      1612189     81.24553     162.1062     323.7303      2.086     4.70       930.62     57.04004     61843.05       441     2.168     1.838  78.95   4
       613    716.9698    128.6981 307.6439684  +6.6510652     1225.737     1630.414     1405.357     81.11728     161.5915     323.6338      1.295     4.28     905.4914     57.04004     207.8998         9     1.091     0.549  61.50   0
       614    688.3722    127.9489 307.6558758  +6.6504178     1464.986     2080.592      2052.81     80.73131     161.9777     323.5051      1.299     3.72     905.9429     57.04004     263.8524        10     1.154     0.539  70.54   0
       615    702.4586    124.6718 307.6501331  +6.6522421     3587.585     4942.395     4573.341     81.24553      161.849     323.6016      1.410     2.91     905.5504     57.04004     591.8489        20     1.227     0.841  71.44   0
       616     74.4745    123.7992 307.9110766  +6.6315252     438.9939     523.2059     364.6243     80.34349     161.2691     323.4085      1.171     3.17      925.688     57.04004     94.13885         5     0.737     0.457 -69.70   0
       617    444.0465    115.6856 307.7578038  +6.6472953     4479.728     6447.917     6419.814     81.11728     161.7847     323.6016      1.504     2.89     908.2397     57.04004     729.2727        25     1.302     0.939  67.70   0
       618    916.5389    111.0891 307.5616378  +6.6650037     4506.464      6357.25      6139.67     81.11728     161.9777     323.6659      1.436     2.68     900.2573     57.04004     847.5657        27     1.355     0.938  57.99   0
       619    898.7866    112.0646 307.5689813  +6.6640084     2342.709     2972.532      3260.58     80.60224     161.6559     323.5051      1.275     2.67     900.4875     57.04004     464.9316        14     1.112     0.724  81.05   0
       620    608.8737    109.8020 307.6895176  +6.6552487     2062.197     2734.217     2610.062     80.60224     161.2691     323.4729      1.350     2.98     905.7914     57.04004     345.8999        13     1.043     0.774  85.20   0
       621    596.8111    111.6300 307.6944680  +6.6540900     751.7353     1021.666     777.6335     80.60224     161.6559     323.4407      1.095     1.71     905.8487     57.04004     181.5949         5     0.661     0.450  21.31   0
       622    407.5763    107.6921 307.7732261  +6.6493718     2344.976     3135.425     2833.824     81.11728     161.6559     323.4407      1.389     2.94     909.8857     57.04004     361.6553        17     1.078     0.869 -81.40   0
       623    254.6708    108.8872 307.8367151  +6.6437433      950.847     1308.156     1460.092     81.24553     162.1062     323.6016      1.372     4.59     920.7924     57.04004     144.7882         8     1.076     0.556  67.72   0
       624    155.5403    104.4616 307.8780506  +6.6422369     3666.413     4903.718     4881.232     81.11728      161.849     323.6338      1.413     2.94     921.6744     57.04004      552.481        22     1.210     0.894  74.66   0
       625    303.7250    103.1821 307.8165267  +6.6477469     1499.696     2100.437     2947.644     80.60224     161.5915     323.5051      1.541     3.63     918.9781     57.04004     250.5673        12     1.082     0.764  74.36   0
       626     37.3282    102.2098 307.9272398  +6.6391869     13746.46     19568.12     20250.87     80.60225     161.4626     323.4085      1.483     3.01     928.5701     57.04004     1968.413        39     1.356     1.079  71.39   0
       627    564.4316    101.8524 307.7082507  +6.6570420     914.0854     1349.883     1847.603     80.98883     161.9134     323.5051      1.645     4.84     905.5607     57.04004     137.6534        10     1.131     0.745 -81.91   0
       628    772.5128    101.4291 307.6218065  +6.6641806     736.1661     1101.822      1890.32     81.24553     161.5915     323.4729      2.285     4.52     903.2311     57.04004      120.424         7     0.915     0.635  70.41   0
       629    577.0251    102.1282 307.7030088  +6.6573500     834.5906     1180.079     1966.543     80.73131     161.7203     323.5372      1.801     4.48     905.5609     57.04004     111.2748         7     0.885     0.644  57.18   0
       630    995.1304     99.5794 307.5293677  +6.6723779      529.228     809.9128     482.7906     80.73131     161.7203     323.5372      1.702     5.96     897.3514     57.04004     92.94672         9     1.543     0.648  78.47   0
       631    957.7265    100.5323 307.5448777  +6.6707367     635.6833     750.5081     1182.493     81.24553     161.9777     323.5694      1.639     4.86     898.8296     57.04004     99.86621         6     0.961     0.695 -62.73   0
       632    166.4909    100.3449 307.8736401  +6.6443047     484.6866     922.3942     831.5999     80.98883     161.7203     323.7303      1.462     3.44     921.4812     57.04004     120.7637         5     0.773     0.441  68.27   0
       633    429.4572     97.8540 307.7644665  +6.6541675      1108.65     1495.427     1304.378     81.24553      161.849     323.6016      1.302     3.74     908.4073     57.04004     204.0664        10     1.167     0.609  86.02   0
       634    906.2695     98.1316 307.5663395  +6.6700105     668.1007     827.4855     816.3121     81.11728     161.9777     323.5694      1.209     3.89     899.9006     57.04004     113.0139         7     0.842     0.625 -67.95   0
       635    839.0624     96.8783 307.5943071  +6.6682835     6948.781     9283.732     10045.95     81.37357     161.9134     323.6016      1.362     2.79       901.15     57.04004     1277.251        26     1.230     0.900  67.32   0
       636    784.1985     97.2395 307.6170916  +6.6663009     3564.815     4900.581      4930.32      80.2138     161.5915     323.2797      1.397     2.94     903.0314     57.04004     619.8458        16     1.139     0.778  71.67   0
       637    108.6273     97.5941 307.8977737  +6.6434932     564.8234     870.4614     776.1683     80.60225     161.6559     323.4085      1.199     3.84     922.5344     57.04004     91.48224         5     0.961     0.439  76.35   0
       638    930.2064     96.9535 307.5564329  +6.6712959     549.0179     670.6335    -247.6142     80.60224     161.6559     323.2475      1.308     2.96     899.8228     57.04004     105.2379         5     0.781     0.496  35.84   0
       639    546.6215     95.3461 307.7158698  +6.6591314     1297.309     1854.455     2563.293     80.60225      161.849     323.4085      1.463     3.18      905.391     57.04004      203.702        12     1.095     0.720  87.76   0
       640     62.3059     95.0481 307.9171048  +6.6429847     1172.398     1531.631     1543.843     80.98883     161.7203     323.7303      1.376     3.35       926.02     57.04004     182.5902        12     1.062     0.784  72.39   0
       641    666.6931     94.8365 307.6659969  +6.6633628     571.0558     732.4916       748.21     81.24553     161.7203     323.6981      0.971     2.98     905.0506     57.04004     109.1165         7     0.826     0.595 -55.24   0
       642    439.0562     93.8841 307.7606120  +6.6561285     1055.347      1508.13     1361.537     81.11728      161.849     323.6981      1.440     3.09     908.0484     57.04004     198.6141        11     1.023     0.701  78.68   0
       643     77.6646     94.0571 307.9107573  +6.6439110     3476.773     4733.513     4353.094     81.24553     161.7847     323.6338      1.433     3.35     924.4612     57.04004     568.0167        19     1.248     0.817  71.38   0
       644    601.6027     90.8840 307.6931752  +6.6628154      1376.76     1762.382     1653.335     80.47297     161.4626     323.2797      1.271     3.48     905.1546     57.04004     187.2053        11     1.126     0.651  65.15   0
       645     19.9782     89.6487 307.9348732  +6.6437879     3001.685     4385.065     4883.514     80.73131     161.9134     323.5051      1.574     3.14      929.564     57.04004     456.4334        23     1.271     1.008  76.43   0
       646    728.9949     87.0397 307.6403721  +6.6686661     627.0699     925.1947     747.0499     80.34349     161.5915     323.3119      1.605     4.38     903.1089     57.04004     104.9257         6     1.222     0.447 -78.21   0
       647    881.2166     86.4069 307.5771429  +6.6740146     442.0315     631.5323      335.139     80.73132     161.5915     323.4407      1.392     4.56     899.5361     57.04004     65.93719         5     0.823     0.717 -58.23   0
       648    778.7610     84.6557 307.6197737  +6.6713144     2338.467     3031.337     3130.872     81.11728     161.9134     323.5694      1.318     3.19     902.5494     57.04004     441.6394        14     1.176     0.703  73.50   0
       649    419.7517     84.9578 307.7689338  +6.6591660     1229.668     1742.172     1864.632     81.11728     161.7847     323.5372      1.509     4.31     908.8141     57.04004      181.004        12     1.026     0.926 -61.70   0
       650     92.5098     85.6052 307.9048755  +6.6479000     1000.217     1563.733      1687.97     80.60225     161.5271     323.3119      1.642     4.97     922.8246     57.04004     171.8328         9     0.969     0.721  72.13   0
       651    116.4427     83.6252 307.8949990  +6.6495231     999.5157     1719.782     1627.387     80.73132     161.7847     323.4085      1.920     4.34     922.0651     57.04004     166.0851        10     1.297     0.616  52.25   0
       652    105.3325     78.4143 307.8997912  +6.6513003     10670.12      15157.6      15588.2     80.60225     161.7203     323.5051      1.520     2.97     922.1311     57.04004     1560.398        36     1.389     1.067  72.96   0
       653    434.5553     78.1749 307.7630116  +6.6624629     2840.953     4157.353      4246.89     80.60225     161.9134     323.4729      1.517     3.13     908.1993     57.04004     443.0135        22     1.248     1.049 -89.62   0
       654    255.7549     78.0291 307.8373067  +6.6565190      623.824     798.7859     933.8798     80.73131     161.9134     323.4729      1.304     3.72     920.5138     57.04004     109.5579         5     0.829     0.479 -42.86   0
       655    272.2762     72.5466 307.8306274  +6.6593377     1749.841     2514.816      3219.47     81.24553      161.849     323.6016      1.491     3.27     920.1113     57.04004     253.3752        16     1.119     0.878 -84.15   0
       656    648.1389     70.4515 307.6745265  +6.6728090     20943.54     28146.91     29586.96     81.11728     161.7847     323.6016      1.400     2.73     903.9795     57.04004     3192.022        43     1.349     1.016  74.93   0
       657    677.6410     71.8657 307.6622204  +6.6732126     545.5585     650.8569     187.3519     81.11728     161.7847     323.6981      1.217     2.56      903.871     57.04004     123.0435         5     0.749     0.416  67.40   0
       658    957.6464     69.9266 307.5459373  +6.6833697     636.3563     729.2285     491.9393     80.98883     161.9134     323.6016      1.415     4.48     897.4621     57.04004      118.139         6     1.106     0.780  58.22   0
       659    547.9957     66.5222 307.7162693  +6.6710772     5826.601     8095.257     8067.463     80.73131     161.3336     323.4085      1.450     2.99     905.0087     57.04004     911.2494        28     1.264     1.010  75.11   0
       660    266.0903     66.8620 307.8333895  +6.6614766     2209.417      3377.08     4735.522     81.11728     161.9777     323.6659      1.687     3.41     920.1752     57.04004     298.7832        17     1.237     0.833  75.71   0
       661    783.9823     65.9334 307.6182331  +6.6792184     493.2055     557.1759     551.7288     80.60224     161.7847     323.4729      1.283     3.67     901.6915     57.04004      93.6521         5     0.667     0.581 -89.37   0
       662    703.8125     65.3569 307.6515646  +6.6767755     567.0048     767.8514     1204.447     80.60224     161.6559     323.3441      1.741     3.56     903.1191     57.04004     96.72858         5     0.955     0.383  84.97   0
       663    634.3646     60.4173 307.6805875  +6.6764905     3726.035     5544.906     6565.763     80.60225     161.6559     323.3763      1.733     2.97     903.5652     57.04004     522.9546        22     1.306     0.912  86.25   2
       664     15.4459     64.6937 307.9376008  +6.6539373     1344.043     1778.253     1168.314     80.98883     161.7847     323.7303      1.431     2.76     927.7083     57.04004      188.697        11     0.894     0.776  38.36   0
       665    453.4815     62.1177 307.7556890  +6.6697268     25412.64     35192.47      36500.1     81.11728     162.1062     323.6981      1.447     2.95      907.214     57.04004     3982.625        37     1.342     1.017  72.89   0
       666    333.9536     62.9755 307.8053239  +6.6653610     1034.614     1522.888     1915.121     80.73132      161.849     323.4729      1.641     3.33     917.4312     57.04004     156.5741        11     1.045     0.675  72.71   0
       667    274.1021     62.4649 307.8302091  +6.6635611     10354.94     14430.76     16008.88     81.11728     161.9134     323.6338      1.506     3.15     919.9653     57.04004     1508.928        34     1.378     0.987  68.81   0
       668     39.5221     62.2023 307.9276821  +6.6557770     2655.017     3639.395     3238.616     80.47297     161.3336     323.3763      1.462     3.09     925.7379     57.04004     402.9104        18     1.243     0.845  79.75   0
       669    931.3400     62.3292 307.5571232  +6.6856284     2369.184     2967.665     2973.917     81.24553      161.849     323.6659      1.246     2.60      898.361     57.04004     398.4961        15     1.019     0.801  76.59   0
       670    566.5864     61.9487 307.7086987  +6.6735882     723.7491     1066.307     303.2859     80.47297      161.849     323.3441      1.360     2.66     904.5695     57.04004     153.0255         6     0.785     0.491 -86.42   0
       671    262.0872     59.1088 307.8353145  +6.6645428     3336.097     4914.875     6129.404     80.98883     162.2987     323.7303      1.537     3.08      920.166     57.04004     530.9084        21     1.282     0.919  78.73   0
       672    315.1264     57.6126 307.8133275  +6.6669426     1136.673     1511.302     2182.529     80.60224     161.5271     323.4085      1.558     3.90      918.389     57.04004     169.5155        11     1.070     0.817 -69.19   0
       673    952.3367     52.3671 307.5487326  +6.6904420     1059.359     1565.402     1544.709     80.86018     161.9134     323.5694      1.399     2.96     896.9406     57.04004     181.7102         8     0.869     0.700 -73.60   0
       674    703.3503     51.8338 307.6522113  +6.6823429     2098.887     2946.787     3073.306     80.98883      161.849     323.5372      1.434     3.28     902.7276     57.04004      290.787        16     1.154     0.791  80.52   0
       675    108.0383     52.5665 307.8995411  +6.6620621     581.9774     921.8777     1157.405     80.86017     161.6559     323.3763      1.435     4.58     921.4951     57.04004     87.79834         7     0.963     0.618 -54.90   0
       676    214.5468     48.1403 307.8554377  +6.6674728     808.8972     1235.341     581.5616     81.11728     161.7847     323.6016      1.342     5.46     920.6782     57.04004     138.7162        10     1.316     0.639 -83.68   0
       677    269.1336     46.8028 307.8328023  +6.6698600     937.9675     1364.763     2607.844     80.47297     161.5271     323.3763      1.873     4.46     919.9101     57.04004     119.1838        10     0.936     0.754  87.25   0
       678    191.6245     44.5585 307.8650827  +6.6681806     12291.01     17007.92     17195.15     80.73132     161.7203     323.3763      1.490     2.93     920.6197     57.04004     1858.292        37     1.396     1.009  76.51   0
       679      5.1344     44.9684 307.9425527  +6.6617330     1080.385     1422.725     1072.763     80.86018     161.9134     297.7293      1.377     3.32     926.3979     57.04004     191.3945         9     0.937     0.664 -84.63  16
       680    937.2007     42.3911 307.5553567  +6.6940556     4602.728     6136.479     6187.975     80.47297     161.5271     323.3763      1.355     2.95     897.2493     57.04004     719.6989        19     1.194     0.796  75.24   0
       681    535.8815     42.7804 307.7221024  +6.6804729     3147.083     4461.212     4432.374     80.73131     161.5271     323.5372      1.426     2.80     904.8251     57.04004     557.3188        22     1.256     0.901  70.46   0
       682    738.1122     40.9853 307.6381315  +6.6879845     2332.943     3218.873     3193.672     80.86018     161.6559     323.4407      1.403     2.70     902.1458     57.04004     444.3368        17     1.154     0.826  76.83   0
       683    474.0463     41.3402 307.7478443  +6.6789944      2039.61     2799.191     2971.712     80.98883      161.849     323.6981      1.354     3.46     905.5684     57.04004     344.9835        16     1.226     0.770  82.69   0
       684    833.1115     40.0102 307.5986893  +6.6915627     423.0749     407.7791     645.3729     80.73131     161.5271     323.4085      1.426     4.76     899.1746     57.04004      90.3302         5     0.988     0.649 -57.50   0
       685   1002.0601     38.5145 307.5285351  +6.6978199     2304.159     3048.972     3000.892     81.24553     161.9134     323.6981      1.385     2.87     893.8445     57.04004     423.3086        15     1.032     0.884 -82.75   0
       686    796.9813     37.7763 307.6137775  +6.6912775     603.7934     608.7396       258.78     80.86018     161.7203     323.5372      1.319     3.79     900.0245     57.04004     90.22778         5     0.823     0.501  56.03   0
       687    721.3349     35.0746 307.6453016  +6.6898636     8575.206     11293.89     11979.34     81.24553      161.849     323.6016      1.331     2.81     902.1368     57.04004     1368.837        25     1.211     0.904  71.85   0
       688    641.5747     34.3103 307.6784698  +6.6875100     4369.159     5718.251     5850.896     81.24553     161.6559     323.4407      1.371     2.73     902.3254     57.04004     699.0039        23     1.221     0.929  77.81   0
       689    343.7805     34.0239 307.8022177  +6.6776433      1026.25     1429.989     1986.003     80.86017     161.6559     323.5372      1.397     4.16     917.2662     57.04004     171.0872        10     1.109     0.616  70.78   0
       690    397.2086     32.7524 307.7800607  +6.6799619     763.8064     1064.888     924.5346     80.60224     161.7203     323.2475      1.563     4.96     911.8402     57.04004     139.4129         9     1.270     0.547  82.01   0
       691    441.7552     30.5847 307.7616242  +6.6823516     7118.729     9750.665     9884.285     80.60225     161.6559     323.3763      1.438     2.86     907.7045     57.04004     1161.324        27     1.245     0.978  73.90   0
       692     42.7260     30.1368 307.9274361  +6.6691224     9636.892      13489.3     14177.15     81.37357      161.849     323.5694      1.474     3.02     923.3159     57.04004     1535.722        35     1.390     1.008  74.28   0
       693    688.7761     29.7751 307.6590089  +6.6909622     990.6364     1163.969     1040.698     80.60224     161.6559     323.5372      1.226     2.64     902.0466     57.04004     179.5033         6     0.729     0.539  63.64   0
       694    517.4175     27.6658 307.7302836  +6.6860940     917.5179     1273.772     1563.867     80.60225     161.7847     323.4729      1.470     4.04     904.6558     57.04004     142.6428         7     0.959     0.488  84.84   0
       695    433.3961     26.0720 307.7652496  +6.6839342     802.6076     1202.703      1548.98     80.60224     161.3981     323.4407      1.400     4.47      908.379     57.04004     127.9879         9     1.167     0.554  72.69   0
       696    924.0701   1019.4421 307.5280616  +6.2902304     9033.926     13566.87     14503.69     80.98883      161.849     302.4134      1.626     3.23     931.6263     57.04004     1288.602        38     1.396     1.193  66.64  16
       697    112.0226     25.6703 307.8987952  +6.6732998     2793.609     3963.024     4354.999     80.73131     161.7203     323.5694      1.456     2.97     920.8251     57.04004     457.6351        20     1.218     0.873  81.91   0
       698    404.5341     23.3471 307.7773341  +6.6840906     2651.422     3746.039     3516.126     81.11728     161.7847     323.5694      1.463     2.95     911.0369     57.04004     389.2889        20     1.296     0.827  74.63   0
       699    103.2752     24.5965 307.9024660  +6.6734486     1594.506     2133.353     2007.565     80.60225     161.3336     323.5051      1.310     2.80     920.8947     57.04004     262.2046        11     0.970     0.692  59.73   0
       700    806.7003     24.1346 307.6101971  +6.6972343     989.6351     1382.972     1511.054     81.11728     161.9777     323.5694      1.490     3.21     899.0253     57.04004     160.3346         9     0.927     0.669  42.22   0
       701   1019.3686   1015.0682 307.4886390  +6.2952139     4738.376     7766.722     8564.345     80.98883      161.849     303.3072      1.816     3.50     925.3487     57.04004     639.7522        33     1.450     1.156  70.10  16
       702    999.8622     20.3212 307.5300583  +6.7052578     718.2485     618.0583     131.4294     81.24553     161.9134     323.6016      1.093     2.62     892.9568     57.04004     147.3917         7     0.817     0.576  35.77   0
       703    897.5815   1015.6172 307.5391881  +6.2909258     12783.31     19739.49      20993.4     80.86018     161.5915     323.5372      1.679     3.21     932.4225     57.04004     1671.936        47     1.468     1.289  64.91  16
       704     83.4656     19.8778 307.9108563  +6.6747296     694.7803     820.0025     689.2206     81.24553      161.849     323.5694      1.284     3.71      921.296     57.04004     118.8549         6     0.798     0.497  85.73   0
       705    830.0317     18.4920 307.6006916  +6.7003436     1902.648     2441.711     2494.719     81.24553     161.6559     323.6338      1.314     2.44     898.3466     57.04004     346.4432        12     0.957     0.707  78.89   0
       706      7.0096   1017.8096 307.9088673  +6.2601738     588.6036     722.9197     640.8652     80.73131     161.6559     309.3906      1.701     3.84     941.1286     57.04004     76.67505         5     1.259     0.335  64.72  16
       707    269.5310     14.0475 307.8337432  +6.6833958     1147.781     1926.257     2530.076     81.11728     161.7847     323.6338      1.673     3.36     919.5616     57.04004     162.2387         7     0.837     0.583  68.54   3
       708    900.3629     16.4785 307.5715336  +6.7035239     1797.837     2098.306     2730.269     80.98883     161.9134     323.6016      1.219     2.75     897.1107     57.04004     287.3978        15     1.001     0.865  55.34   0
       709    610.5677   1016.0767 307.6583418  +6.2811453     1460.129     1940.992      1797.72     80.98883      161.849     323.5372      1.318     3.27     938.1434     57.04004     230.0571        13     1.103     0.788 -62.27   0
       710    541.5551   1014.6528 307.6870434  +6.2794231     4636.168     6712.859     7927.188     81.11728      161.849     323.6016      1.657     2.97     938.3922     57.04004     762.9232        29     1.365     1.127  64.35   8
       711    651.3685   1013.8874 307.6414750  +6.2834142     1437.946     2004.634     2439.546     81.24553     161.6559     323.5372      1.410     2.76     936.4514     57.04004     228.4388        10     0.897     0.734 -68.58   0
       712    968.6937     15.3607 307.5431766  +6.7062660     634.0449     771.6152     625.1968     81.24553     161.7847     323.6981      1.559     4.62     894.3843     57.04004     88.52454         7     1.237     0.490  50.06   0
       713    494.9549   1011.1939 307.7065077  +6.2792903     2416.776     3580.804     3486.382     80.60224     161.5915     323.2475      1.504     3.20     939.6002     57.04004     398.6351        21     1.307     0.950  69.12   0
       714     76.5892   1013.1011 307.8801397  +6.2644589     1001.515     1224.052     1768.074     80.86017     161.4626     323.3763      1.339     3.17     941.1072     57.04004     153.3821         8     0.949     0.571  71.94   0
       715    807.3136   1011.8521 307.5767943  +6.2894668     448.9737     799.2819     294.5615     81.11728     161.7203     323.6659      1.396     4.94     933.4102     57.04004     87.07263         5     1.106     0.625 -25.15   0
       716    929.3193   1003.1767 307.5264269  +6.2971209     45520.26     68513.65     72186.38     80.73131     161.5271     323.5372      1.613     3.12     930.8615     57.04004     6404.159        69     1.536     1.233  72.12   0
       717      2.2409   1003.0669 307.9113453  +6.2660996     3310.861     4381.915      4918.12     80.08389     141.9002     258.5368      1.449     3.09     941.0645     57.04004     495.4495        22     1.373     0.866 -89.86  24
       718    236.8113   1001.5146 307.8140112  +6.2746275     1761.265     2446.643     2449.752     80.73132     161.5915     323.4407      1.487     3.15     941.0607     57.04004     270.8655        11     1.000     0.695  81.86   0
       719    635.4827    999.8200 307.6485432  +6.2886907     873.7796     1190.914     1063.007     80.73132     161.5271     323.5372      1.465     3.40      936.792     57.04004     182.2609         8     1.071     0.500  89.55   0
       720    124.7446   1000.6614 307.8605673  +6.2712139     753.7205     1151.954     1365.026     81.24553      161.849     323.6016      1.690     2.90     941.0016     57.04004     138.8911         7     0.963     0.576  73.60   0
       721    775.4349    994.9910 307.5905961  +6.2953632     7309.299     10632.47      11393.2     80.60224     161.6559     323.4085      1.569     3.24     933.7314     57.04004     1091.567        37     1.710     1.045 -89.79   0
       722    827.2966    997.0834 307.5689924  +6.2962316     2574.824     3516.911     3554.093     81.11728     162.2346     323.6659      1.462     3.09     933.1115     57.04004     380.4562        19     1.249     0.892  80.49   0
       723    562.1646    994.7227 307.6791564  +6.2883414     1100.963     1611.818     2012.629     80.98883     161.9134     323.6338      1.654     3.74     937.8253     57.04004     170.2048        10     0.974     0.718 -62.43   0
