#   1 NUMBER                 Running object number                                     
#   2 X_IMAGE                Object position along x                                    [pixel]
#   3 Y_IMAGE                Object position along y                                    [pixel]
#   4 ALPHA_J2000            Right ascension of barycenter (J2000)                      [deg]
#   5 DELTA_J2000            Declination of barycenter (J2000)                          [deg]
#   6 FLUX_APER              Flux vector within fixed circular aperture(s)              [count]
#   9 FLUXERR_APER           RMS error vector for aperture flux(es)                     [count]
#  12 FLUX_RADIUS            Fraction-of-light radii                                    [pixel]
#  13 FWHM_IMAGE             FWHM assuming a gaussian core                              [pixel]
#  14 BACKGROUND             Background at centroid position                            [count]
#  15 THRESHOLD              Detection threshold above background                       [count]
#  16 FLUX_MAX               Peak flux above background                                 [count]
#  17 ISOAREA_IMAGE          Isophotal area above Analysis threshold                    [pixel**2]
#  18 A_IMAGE                Profile RMS along major axis                               [pixel]
#  19 B_IMAGE                Profile RMS along minor axis                               [pixel]
#  20 THETA_IMAGE            Position angle (CCW/x)                                     [deg]
#  21 FLAGS                  Extraction flags                                          
         1      3.8831     35.1856 307.9360225  +6.6322324     693353.6      1880919      2221110     90.65511     178.3168     316.6613      2.627     7.69     1181.318     64.05162     60514.67       264     2.328     2.005 -67.42  28
         2    143.4810     22.3616 307.8784312  +6.6421837     1397.846     3831.384     5479.471     91.08852     181.8164     363.3076      3.008     9.71     1171.373     64.05162     152.2072        28     1.956     1.408 -31.44   2
         3     25.8034     20.0583 307.9274251  +6.6392133     5569.766     14575.05     19514.17     90.36501     181.5996     363.0908      2.887     6.56     1179.555     64.05162       629.86        81     2.356     1.913 -20.59   0
         4    827.2032     14.1384 307.5944836  +6.6682737     2877.887     7427.584     9352.684     90.36501     181.5273     363.0546      2.752     7.05     1143.187     64.05162     340.2592        55     2.247     1.584 -20.37  16
         5    772.5031     14.2009 307.6172216  +6.6664384     1498.272     3899.458     4266.251     90.51018     181.3102     362.9823      2.563     8.36     1145.901     64.05162     158.4567        30     1.866     1.386  10.31   2
         6     65.9942     11.8508 307.9109976  +6.6439442     1463.131     3635.841     4418.709     90.51018     181.5273     362.9823      2.513     8.56     1175.689     64.05162     213.1316        30     2.050     1.387 -15.95  16
         7      7.8173      7.6900 307.9353217  +6.6437233     1090.365     2619.908     2846.576     90.79981      181.455     357.1853      2.446     6.31     1181.524     64.05162     140.6956        17     1.375     1.222 -77.20  16
         8    766.8267      2.5591 307.6199742  +6.6710606     978.6531     1822.368     2036.911     90.65511     163.6516     295.4717      2.119     5.35     1145.609     64.05162     140.8622         9     1.130     0.922  33.41  24
         9    576.1270   1010.9308 307.6651972  +6.2481144     1912.679     4352.023     5468.125     91.23254     181.8886     363.3799      2.456     7.09     1201.264     64.05162     222.3157        29     1.741     1.204 -18.67   0
        10    282.2708   1001.4862 307.7875761  +6.2422666     808.1546     1779.473     1758.995     91.23254     182.0329      363.416      2.261     5.89     1201.301     64.05162     120.8917         9     1.481     0.659 -19.70   0
        11      6.3240    998.5891 307.9022904  +6.2342823     7554.463     16810.96     19583.17     90.65511     181.3102     347.9507      2.408     5.36     1197.435     64.05162      833.462        65     2.063     1.607 -17.95  16
        12    704.9470    999.1917 307.6120832  +6.2572300     2752.831     5852.374     6789.982     90.51018     181.5996     363.0546      2.336     5.92     1199.989     64.05162     301.3888        35     1.893     1.182 -17.57   0
        13    235.4291    995.7892 307.8072253  +6.2430636     800.2571     1566.352     2316.251     90.51018     181.5273     363.1992      2.103     6.00     1201.252     64.05162     136.0148         8     1.631     0.621 -22.56   0
        14     70.9314    988.7490 307.8757895  +6.2404996     4506.445     10433.07     12317.32     90.94428     181.5996     363.3076      2.444     5.81     1198.739     64.05162     508.2463        53     2.077     1.509 -31.21   0
        15    800.2071    988.0850 307.5728870  +6.2649697     8780.356      19183.6     21998.45     90.65511     181.3826     363.1992      2.280     5.87     1198.487     64.05162     932.6117        61     2.068     1.463 -16.15   0
        16    614.5861    997.5428 307.6496737  +6.2549199     981.5252     2301.141     2102.858     90.36501     181.5996     363.0185      2.229     7.52     1200.969     64.05162     135.9899        16     1.759     0.900 -17.82   0
        17    574.4336    967.3076 307.6673727  +6.2660822     2443.909     5419.331     7413.848     91.23254     181.5996     363.4522      2.839     9.92     1200.061     64.05162     261.4679        41     2.364     1.377  -2.71   3
        18    583.6950    978.9456 307.6631329  +6.2615805     92296.07     210974.5     258858.7     90.94428     181.6719     363.6327      2.526     5.79     1200.344     64.05162     9621.016       141     2.397     1.767 -21.34   3
        19    585.3409    971.8140 307.6626898  +6.2645816     42161.51     98462.17     118372.6     90.36501     181.6719     363.0546      2.484     5.81     1200.127     64.05162     4320.965        95     2.361     1.488 -17.28   3
        20    217.9146    981.8347 307.8149728  +6.2482468     2166.963     4946.835     5399.362     91.08852     181.5996     363.3799      2.341     6.24     1200.922     64.05162     244.2628        36     1.957     1.275 -10.37   0
        21    794.5317    975.8906 307.5756552  +6.2698205     4308.115     9093.427     10706.39     91.23254     181.8886     363.3799      2.293     6.35     1198.338     64.05162     489.4237        43     2.033     1.284 -18.00   0
        22    892.3604    972.7592 307.5351221  +6.2743471     1097.025     2112.252     1247.964     90.79981     181.8886     363.2354      2.011     6.53     1197.646     64.05162     151.4043        14     1.401     0.853 -43.10   0
        23    214.7634    970.7860 307.8166559  +6.2527069     1159.693     2527.404     3147.546     90.51018     181.5273     363.1269      2.495     7.87     1200.645     64.05162     141.4342        18     1.408     1.262 -43.50   2
        24    718.3126    968.3436 307.6075709  +6.2704179     4532.349     9953.544     12217.03     91.08852     181.5996     363.5244      2.434     5.82     1198.758     64.05162     511.1843        49     2.067     1.348 -22.40   0
        25    433.2506    968.5486 307.7259767  +6.2608883     2069.274     5384.812     7176.021     91.08852     181.5996     363.3076      2.940     7.63      1200.33     64.05162     233.5596        41     2.006     1.536 -24.08   0
        26    750.7001    963.8497 307.5942685  +6.2733461     847.5929      1691.03     2422.384     91.08852     181.7442     363.5605      2.599     5.40      1198.24     64.05162     136.0389         8     1.018     0.905 -49.54   0
        27    957.9197    957.6796 307.5083952  +6.2827423     4861.591     9831.654     10615.28     91.37633     182.0329     363.5605      2.116     6.00     1195.358     64.05162     599.9215        42     1.950     1.215 -22.70   0
        28    242.7409    958.1169 307.8054637  +6.2588715     909.1815     1950.771     2306.226     91.08852     181.8164     363.4522      2.278     5.63     1200.543     64.05162     110.5173        10     1.143     0.781 -35.91   0
        29    717.0546    955.8506 307.6085145  +6.2755381     1669.516     3919.806      5334.13     91.08852     181.7441      363.416      2.960     9.93     1198.484     64.05162     204.2097        37     2.404     1.218 -23.77   0
        30    364.3615    953.0718 307.7551155  +6.2649964     1059.678     2430.529     2377.832     90.94428     181.7441     363.4522      2.299     7.06     1200.737     64.05162     161.5795        14     1.508     1.026   2.97   0
        31    751.1885    942.8476 307.5947731  +6.2820398     4717.063     10874.24     12658.86     90.36501     181.5996     363.0185      2.394     5.87      1197.92     64.05162     506.1647        55     2.030     1.527 -15.29   0
        32    546.5189    943.2015 307.6797820  +6.2751171     2259.745     5437.233     6564.086     90.21961     181.2378     363.0546      2.594     6.32     1199.814     64.05162     249.7354        40     1.919     1.448 -26.32   3
        33    543.9456    935.7991 307.6811009  +6.2780903     4464.257     10862.01     13359.09     90.36501     181.3826     362.9823      2.536     5.89     1199.718     64.05162     469.7686        55     2.056     1.582 -24.59   2
        34    297.0540    942.4804 307.7834324  +6.2671369     8338.905     19326.68     24809.76     91.08852     181.7441     363.4522      2.666     5.99     1200.564     64.05162     922.7745        77     2.375     1.665 -25.85   0
        35    421.2548    942.4110 307.7318430  +6.2712895     508.8807     1093.364     1709.095     90.36501     181.6719     363.0185      2.645     4.88     1200.205     64.05162     94.35913         5     1.045     0.646  63.84   0
        36    267.9879    940.2508 307.7955815  +6.2670922     697.4422       1401.9     1551.706     90.36501     181.5996     363.0546      2.133     3.79     1200.383     64.05162     91.31006         5     0.817     0.504  53.08   0
        37    912.5485    936.3385 307.5279609  +6.2900621     5595.078     12169.95      13949.4     91.08852     181.6719     363.3799      2.291     6.14     1195.258     64.05162     590.5446        50     2.018     1.386 -17.64   0
        38    886.0247    932.4496 307.5391102  +6.2907929     8167.643     17477.84     19683.87     90.65511     181.8164     363.2715      2.271     5.63     1196.167     64.05162     899.5236        60     2.122     1.387 -17.15   0
        39    530.5510    931.6906 307.6868038  +6.2793438      2324.87     5398.995     6737.973     91.08852     181.5273     363.5605      2.582     6.84     1199.677     64.05162     254.0813        41     1.911     1.528 -10.25   0
        40   1007.7363    931.7650 307.4885716  +6.2950937     3328.977     7069.025     8354.222     90.94428     181.8164     363.3799      2.273     6.51     1191.927     64.05162     432.5403        39     2.002     1.218 -25.15   0
        41    599.1378    931.9227 307.6583046  +6.2815207     657.7297     1740.537     2044.441     91.37633     181.8164     363.3799      2.685     6.09     1198.655     64.05162     99.81763         8     1.148     0.909  -9.69   0
        42    640.3684    930.7934 307.6412152  +6.2833528     828.3439      1965.24      2005.36     90.36501     181.5273     363.1269      2.637     6.64     1198.294     64.05162     117.1091        14     1.958     0.632  -6.75   0
        43    483.9263    928.2388 307.7062883  +6.2792241     1223.353     2815.167     2714.305     90.94428     181.7441     363.4522      2.431     8.11     1199.721     64.05162     140.8976        21     1.513     1.271  -5.08   0
        44    917.8772    920.0076 307.5262965  +6.2969857     28255.43     60968.47     69626.42     90.65511     181.1653     363.1631      2.298     5.73     1194.118     64.05162     3085.369        85     2.155     1.500 -19.95   0
        45    225.4115    918.4186 307.8140063  +6.2746972      1037.69       2086.9     2778.589     90.65511     181.3826     363.2715      2.414     7.04     1199.639     64.05162     130.0873        15     1.616     0.860  -0.96   0
        46    815.9878    913.7164 307.5688355  +6.2962188     1406.631     3127.906     3266.724     90.65511     181.5273     363.1992      2.327     8.56     1196.508     64.05162     160.7317        24     1.762     1.162 -33.04   0
        47    763.9750    911.7116 307.5905103  +6.2953274     3926.757     8727.607     10253.28     91.23254     181.5273     363.2354      2.375     6.31     1196.711     64.05162     405.2365        51     2.172     1.411 -18.81   0
        48    234.3065    911.6335 307.8105412  +6.2777962     846.4257     1719.625     2829.528     91.23254     181.5996     363.4522      3.090     7.40     1199.624     64.05162     121.2043        11     1.599     0.959 -42.89   0
        49     58.6244    908.9678 307.8836074  +6.2730518     1729.339     3879.702     4686.828     90.36501     181.5996     363.1631      2.538     7.45     1197.744     64.05162     200.5066        26     1.896     1.026 -22.00   0
        50    952.2187    906.6876 307.5124780  +6.3036231     4644.056     9809.249     11159.74     90.79981      181.455     363.2354      2.211     5.78       1192.4     64.05162     511.0336        44     1.927     1.292 -24.60   0
        51    925.6366    898.5446 307.5237949  +6.3061100     1561.894     3307.381      3992.71     90.94428     181.7442      363.416      2.266     6.40     1192.708     64.05162      173.597        22     1.680     1.060 -16.02   0
        52    646.6411    894.5273 307.6398326  +6.2985447     2560.382     5638.454     6484.729     90.94428     181.7442      363.416      2.390     6.27     1196.347     64.05162     252.6995        40     1.995     1.306 -30.64   0
        53    258.9064    894.8257 307.8008917  +6.2855583      2401.47     5674.572     6454.018     91.23254      181.455     363.1992      2.562     6.59     1199.677     64.05162      288.726        40     2.099     1.264 -37.01   0
        54    784.7914    894.6305 307.5824380  +6.3030733     777.3942     1684.109     2125.813     90.51018     181.5273     363.1631      2.432     5.98      1195.67     64.05162     106.9081         9     1.429     0.705 -33.87   0
        55     28.5633    892.3165 307.8966592  +6.2789301      1271.26     2859.708     3342.125     91.08852     181.6719     363.3076      2.305     6.97     1197.483     64.05162     167.7808        21     1.557     1.264 -15.93   0
        56    469.1737    892.3717 307.7136284  +6.2935540     545.1295     1243.208     1518.267     90.51018     181.5273     363.1992      2.345     5.18     1198.809     64.05162     78.99854         5     1.029     0.736  76.10   0
        57    947.6934    888.3672 307.5149741  +6.3110433     686.2347     978.5024     942.0574     91.23254     181.5996     363.4522      1.505     4.56     1191.606     64.05162     98.24036         6     1.063     0.555 -52.37   0
        58    571.5247    887.6177 307.6712706  +6.2989114     836.7758     1909.922     2091.453     90.51018      181.455     363.2715      1.910     5.04     1197.291     64.05162     151.6187         8     1.481     0.485 -85.09   2
        59   1003.3801    885.8163 307.4919254  +6.3139352     540.4577     1387.871      1696.87     90.79981     181.5273     363.2715      2.545     5.06     1190.158     64.05162     81.06995         5     1.008     0.718 -12.73   0
        60     59.5315    883.8028 307.8840843  +6.2834791     582.4193     1391.122     2066.142     90.36501     181.3102     363.1269      3.162     5.29     1197.372     64.05162     108.7257         6     1.127     0.702   2.73   0
        61    290.7891    880.9666 307.7881167  +6.2923440      760.178     1734.924     2357.491     90.51018     181.3826     363.1992      2.578     4.85     1199.976     64.05162     99.88623         6     1.316     0.507  69.27   0
        62    894.8632    873.6949 307.5374152  +6.3153611     4521.203     9938.881     11626.53     90.94428     181.8886     363.4522      2.334     5.71     1191.615     64.05162      546.214        47     2.111     1.301 -21.52   0
        63    430.5764    870.7608 307.7303926  +6.3012024     1170.516     2766.006     2916.377     90.65511      181.455     363.1269      2.394     8.53      1198.31     64.05162     136.4403        22     1.840     1.105 -15.96   0
        64    332.6344    869.5309 307.7711207  +6.2984590     4929.679     11768.87     14719.19     90.94428     181.7442     363.4883      2.665     6.23      1199.57     64.05162     506.0902        69     2.392     1.612 -20.22   0
        65    252.5630    868.4233 307.8044206  +6.2962560      3693.83     8981.728     11345.62     90.65511      181.455     363.1269      2.640     6.44     1199.195     64.05162     399.7081        59     2.236     1.593 -17.29   0
        66    911.1758    858.0258 307.5311655  +6.3223741     628.6295     1537.273     1814.987     90.51018     181.5273     363.2715      2.311     7.38     1190.722     64.05162     92.72717         9     1.330     1.147 -67.95   0
        67    747.1503    851.9041 307.5995148  +6.3194820     940.3655     2192.154     2123.087     90.94428     181.6719     363.5605      2.301     8.40     1193.069     64.05162     111.7316        15     1.769     1.116  -4.02   0
        68    977.8303    847.3464 307.5038331  +6.3289871     777.4948     1686.877     2218.402     90.94428     181.8164     363.2715      2.006     6.70     1188.851     64.05162     105.9435        12     1.710     0.736 -17.20   0
        69    665.6223    845.0767 307.6336150  +6.3196049     1359.982     3321.606      4694.94     90.65511     181.5996     363.3076      2.843     9.38     1192.969     64.05162     161.6201        25     2.179     1.127 -21.34   0
        70    206.1528    841.1098 307.8246250  +6.3059978     1328.589     2865.375     3524.143     91.08852     181.5996     363.5244      2.347     7.60     1197.997     64.05162     194.2164        21     1.776     1.150 -39.09   0
        71     80.4634    840.0923 307.8768719  +6.3022355     962.0358     2235.763     3213.217     91.08852     181.9607     363.4522      2.531     9.44     1196.635     64.05162     148.3788        15     1.942     1.285 -10.09   0
        72    660.1781    834.5004 307.6362334  +6.3237945     3680.658     8555.764     10573.34     91.08852      181.455     363.1269      2.585     6.28     1192.421     64.05162     377.5178        54     2.138     1.568 -18.81   0
        73    897.9331    830.5918 307.5375901  +6.3332719      1770.52     3892.329     4195.367     90.51018      181.455     363.1992      2.229     6.83     1189.967     64.05162     201.4307        26     1.715     1.176 -23.48   0
        74    343.3950    827.8735 307.7680600  +6.3160278      8157.06     20437.08     26884.21     90.65511     181.2378     363.2715      2.786     6.34     1198.321     64.05162     867.4977        80     2.366     1.762 -18.28   0
        75     77.0969    829.0663 307.8786444  +6.3066788     702.8912      1540.77     1724.506     91.08852     181.8164      363.416      2.701     5.69     1196.435     64.05162     103.4171         7     1.220     0.748   8.84   0
        76     62.6373    841.6051 307.8842256  +6.3010168     1567.369     3912.252     4323.083     90.07398      181.455     363.1269      2.521     7.49     1196.671     64.05162     200.4076        28     1.835     1.334 -23.10   0
        77    106.8155    818.3805 307.8666614  +6.3120832     928.4779     1920.759     2513.052     90.79981      181.455     363.2715      2.432     4.62     1196.388     64.05162     155.8403         9     1.047     0.730 -27.17   0
        78    420.8849    817.6085 307.7362154  +6.3228417     610.1476     1084.788     929.7056     90.65511     181.3826     363.1992      1.492     3.50     1195.837     64.05162      96.3125         5     0.799     0.442  18.11   0
        79    887.1347    812.2054 307.5426951  +6.3405121      1205.76     2373.242     2192.671     90.51018     181.3826     363.1269      2.040     7.82     1189.503     64.05162     145.6322        18     1.399     1.223 -39.62   0
        80     90.2828    812.0830 307.8737429  +6.3141346     1181.727      3201.25     4180.799     90.79981     182.0329     363.4883      2.911     9.85     1196.125     64.05162     124.6637        27     2.155     1.255 -25.26   0
        81    858.6866    811.5009 307.5545378  +6.3398633     1353.092     2706.094     2514.272     91.08852     182.2491     363.4522      2.023     5.92     1189.673     64.05162     154.1121        17     1.435     0.997 -29.42   0
        82    822.2331    811.0888 307.5696966  +6.3388288     1666.601     4101.946     4467.863     91.23254     181.5996     363.3799      2.397     7.51     1189.615     64.05162     217.4784        32     1.782     1.381 -11.24   0
        83    558.3221    802.9440 307.6796138  +6.3334588       167216     412731.1     519219.5     91.08852     181.7442     363.3799      2.674     6.19     1194.205     64.05162     17009.11       189     2.480     1.945 -18.71   0
        84    402.5055    805.6162 307.7442563  +6.3271865     3831.665     9351.386     12004.54     90.79981     181.5273     363.1992      2.759     6.60     1195.751     64.05162     378.8199        64     2.197     1.809 -25.39   0
        85    345.7916    804.0931 307.7678689  +6.3259327     6249.475     15393.39     19582.87     90.65511     181.3826     363.1631      2.745     6.54      1197.57     64.05162     661.7092        76     2.341     1.761 -19.34   0
        86    647.0968    805.1864 307.6426567  +6.3354733       689.23     1269.272     579.2612     90.94428      181.455     363.1269      1.831     4.50     1190.573     64.05162     108.0477         5     0.802     0.719  -4.16   0
        87    664.0031    799.9467 307.6358097  +6.3381980     1809.647     4338.203     4866.777     90.36501     181.5273     362.9461      2.462     6.92     1190.083     64.05162     214.5638        35     1.981     1.285 -25.35   0
        88    896.3599    798.9064 307.5393099  +6.3463117     3312.107     7195.515     8675.812     91.23254     181.6719     363.4883      2.362     5.94      1188.93     64.05162     381.9476        46     2.109     1.359 -21.01   0
        89    638.7017    794.1656 307.6465162  +6.3397487     1704.174     4073.753     5235.326     91.08852     181.5996     363.5244      2.795     7.00     1190.149     64.05162      208.877        34     1.965     1.276 -10.54   0
        90    827.2054    793.5178 307.5682225  +6.3462531     880.8829     2070.636     2427.976     90.65511     181.3102     363.1269      2.703     5.19     1188.468     64.05162     123.0569        11     1.219     1.038 -10.30   0
        91    631.1043    789.0406 307.6498455  +6.3416147     1057.632     2552.444     3962.862     91.08852     181.6719     363.5605      3.164     8.10     1190.053     64.05162     137.2198        18     1.495     1.228 -68.87   2
        92    915.3670    786.4376 307.5318326  +6.3520914     2083.315     4470.936     4742.684     90.65511      181.455     363.1269      2.202     6.92     1187.569     64.05162     220.1646        31     1.896     1.125 -25.00   0
        93    240.4999    784.2795 307.8122813  +6.3306201     676.0561     2251.191     5947.551     90.79981     182.0329      363.416      6.244     9.27     1197.104     64.05162     92.07434         9     2.232     1.075  10.13   0
        94    374.7127    782.5847 307.7565815  +6.3357797     1315.616     2820.425     3615.615     90.65511      181.455     363.2354      2.624     7.35     1195.866     64.05162     140.2709        19     1.398     1.084 -23.60   0
        95    509.8293    772.4338 307.7007905  +6.3444571     1469.678     3564.239     4058.881     90.51018      181.455     363.1269      2.555     7.36     1192.585     64.05162     161.0184        29     1.872     1.229 -24.33   0
        96    556.9393    768.7711 307.6813421  +6.3475323     2995.154     7631.703     10738.25     90.65511     181.7441     363.3076      3.047     7.59     1191.602     64.05162     302.8213        53     2.390     1.466  -9.43   0
        97    527.4162    762.6669 307.6938138  +6.3490757     9501.333     23580.12     29861.38     90.51018     181.5996     363.2715      2.701     6.27     1191.693     64.05162     950.3777        88     2.366     1.810 -18.62   0
        98    476.2680    766.5365 307.7149330  +6.3457807     739.2776     1350.899     1774.763     91.08852     181.7442     363.4522      2.132     6.64      1192.51     64.05162     95.69934         9     1.561     0.791   8.49   0
        99    891.7368    766.2450 307.5423297  +6.3596541     768.6762     1466.649     1300.348     91.08852     181.6719      363.416      2.022     4.28     1185.839     64.05162     109.5579         5     0.979     0.534  38.12   0
       100    940.7803    760.5666 307.5221443  +6.3636200     2275.194     4964.673     5787.773     90.51018     181.5273     363.1631      2.320     5.88     1184.904     64.05162     281.9103        34     1.864     1.215 -23.65   0
       101     37.7215    753.9935 307.8975488  +6.3363841     720.2508     1653.587     1822.287     90.65511     181.1653     363.1269      2.351     5.61     1194.318     64.05162     103.1106         6     1.797     0.494 -45.74   0
       102    320.4660    751.3112 307.7801762  +6.3468991     1694.396     3921.591     5011.108     91.08852     181.9607     363.3438      2.674     6.50     1196.035     64.05162     205.6909        31     1.768     1.357 -13.57   0
       103    785.5146    747.0712 307.5871081  +6.3640655     29658.87     69933.84     85029.13     91.23254     182.0329      363.416      2.546     5.89     1185.155     64.05162     2930.386       104     2.330     1.749 -19.18   0
       104     20.3519    749.4983 307.9049172  +6.3376626     1114.214     2469.388     3105.161     91.08852     181.6719     363.5966      2.452     8.51     1194.147     64.05162     125.5692        21     1.681     1.205 -36.25   0
       105    242.4184    723.8094 307.8135324  +6.3556678     768322.9      2444738      3335429     90.79981      181.455     363.1992      3.067     7.86      1194.96     64.05162     62981.74       591     2.824     2.530 -30.78   4
       106    910.7705    742.1294 307.5352331  +6.3702469     4996.468      11442.1     13734.62     90.94428     181.7441     363.3076      2.492     6.10     1183.538     64.05162     532.1761        55     2.102     1.468 -17.45   0
       107    352.4597    739.2805 307.7672914  +6.3529325         9769     24509.83     31761.08     91.23254     181.7442     363.3438      2.789     6.47     1194.704     64.05162     976.2156        87     2.392     1.831 -19.50   0
       108    414.2821    737.0972 307.7416806  +6.3558873      10385.2     26474.39     34207.57     90.94428      182.177     363.4522      2.792     6.36     1193.137     64.05162     1173.196        88     2.390     1.820 -20.38   0
       109    951.6163    735.2504 307.5184937  +6.3744379     1245.215     2809.433     2867.208     90.51018     181.8164     363.0546      2.309     8.95     1182.696     64.05162     155.7542        25     1.906     1.368 -44.42   0
       110    907.5530    733.6194 307.5368563  +6.3736568     3898.914     8843.642     11066.82     90.65511     181.7442     363.1631      2.475     6.11      1182.93     64.05162     407.2079        49     2.055     1.509 -23.44   0
       111    648.3154    732.6882 307.6445961  +6.3654681     3084.841     7755.905     9072.832     90.79981     181.9607     363.4522      2.612     6.69     1187.928     64.05162     320.3081        52     2.245     1.460 -28.37   0
       112    683.6158    722.9414 307.6302583  +6.3706640      1305.05     3007.791     3271.267     90.36501     181.6719     363.0908      2.336     8.53     1186.582     64.05162     168.8517        22     1.801     1.165 -34.05   0
       113    417.2371    719.7787 307.7410385  +6.3631408     24707.88     63155.09     82795.18     90.65511      181.455     363.0908      2.812     6.42     1192.203     64.05162     2479.042       114     2.478     1.928 -18.82   0
       114    535.1100    718.6766 307.6921030  +6.3675063     3353.113     8452.123     10624.52     91.08852     182.0329      363.416      2.715     6.90     1188.183     64.05162     341.6548        58     2.286     1.599 -21.11   0
       115    451.7035    717.1353 307.7268082  +6.3653768     2030.438     5391.422     8275.643     91.08852     181.8886      363.416      3.618    10.09     1190.422     64.05162     194.7502        53     2.394     1.875  -3.70   2
       116    449.9241    710.5450 307.7277702  +6.3680407     831.4551     1825.899     2717.701     91.08852     181.7441     363.3799      2.818     6.03     1190.212     64.05162     126.7072         9     1.509     0.677 -64.50   3
       117    447.5199    709.7828 307.7287949  +6.3682758     921.4224     2034.641     2941.344     90.65511     181.3826     363.2715      2.596     5.19     1190.255     64.05162     122.0254         8     1.050     0.723 -10.94   3
       118    780.0831    715.0961 307.5904421  +6.3770973     6118.732     14457.95     17986.67     90.94428      182.177     363.4883      2.570     5.90     1183.645     64.05162      661.123        67     2.166     1.688 -22.15   0
       119    137.6248    707.2548 307.8576303  +6.3590214     5359.532     14293.56      21860.2     90.65511     181.8164     363.1631      3.765     9.81     1192.905     64.05162     588.3619       115     3.960     1.962  12.87   2
       120    801.9432    708.5336 307.5815806  +6.3805317     704.6343     1489.756     1653.381     91.23254     181.6719     363.3438      2.734     4.61     1183.078     64.05162     112.4155         5     0.865     0.696 -45.69   0
       121    974.0442    703.9807 307.5102267  +6.3880983      875.088     2038.566     3203.672     90.51018     181.5996     363.1631      3.887     7.21     1180.404     64.05162     139.0129        15     1.798     0.810 -37.33   0
       122    925.5452    703.7831 307.5303846  +6.3865788     3608.558     8158.861     9984.807     90.51018     181.6719     363.0908      2.456     5.73      1181.32     64.05162     385.7355        47     1.977     1.470 -16.02   0
       123    680.8686    701.4196 307.6321255  +6.3794653     823.6088     1918.822     2297.548     90.65511     181.5996     363.2715      2.234     6.98     1184.781     64.05162     121.9758         9     1.496     0.934   0.27   0
       124    567.7253    700.2732 307.6791736  +6.3761912     1097.022       2541.2       2969.6     91.37633     182.0329     363.4522      2.477     6.85     1186.543     64.05162     150.0074        13     1.602     0.821  11.31   0
       125    919.5761    695.5633 307.5331413  +6.3897779     1820.578      3742.36     4477.328     90.65511      181.455     363.1269      2.482     6.80     1180.945     64.05162     208.0917        28     1.838     1.194 -39.87   0
       126    146.1074    707.3279 307.8541037  +6.3592735     1498.214     3417.091     4364.233     90.94428     181.8886     363.4522      2.630     5.69     1193.018     64.05162      152.439        17     1.321     0.986  75.25   3
       127    949.1379    695.0654 307.5208751  +6.3909598     1790.817     3836.208     2739.836     91.08852     181.7441     363.3799      2.309     6.30     1180.371     64.05162     201.7463        29     1.795     1.149 -28.96   0
       128    979.6326    694.9435 307.5082086  +6.3920168     1000.503     2644.029     3396.148     90.94428     181.8164     363.3799      2.545     7.62     1179.676     64.05162     144.4624        16     1.739     0.935 -17.90   0
       129    671.9578    695.0354 307.6360432  +6.3818081     784.4604     1870.692     1563.264     90.79981     181.7441     363.1992      2.222     5.13     1184.446     64.05162     114.8693         7     1.194     0.623 -23.99   0
       130    708.6932    738.8949 307.6193012  +6.3649024     36517.13     104736.1     160000.3     91.08852     182.3931     363.3076      3.341     8.66     1186.862     64.05162     4686.393       185     3.534     2.132  20.58   0
       131    964.4886    682.7817 307.5149100  +6.3965420     1456.989     3515.125     4025.776     90.79981      181.455     363.2715      2.468     9.19     1179.276     64.05162     163.2552        29     1.969     1.197 -16.13   0
       132   1004.3585    677.3263 307.4985271  +6.4001119     903.3993     1502.247      1988.13     90.94428     181.8164      363.416      2.098     5.75     1177.798     64.05162     99.38867        10     1.333     0.699  15.53   2
       133   1007.0847    674.9368 307.4974747  +6.4011892     776.0745     1503.881     2101.838     91.23254     181.8886     363.3438      2.503     4.69     1177.565     64.05162     133.8679         6     1.081     0.578 -17.04   3
       134    893.5948    671.4321 307.5447486  +6.3988903     749.1622     1924.739       2363.5     90.36501     181.5996     363.1269      2.654     6.24     1179.974     64.05162     97.53625         8     1.510     0.725  88.14   0
       135     49.7101    662.7446 307.8956649  +6.3744835     1305.882     3164.158     3942.432     90.94428     181.5273     363.5244      2.626     7.18     1190.406     64.05162     193.7153        24     1.911     1.120 -15.14   0
       136    662.2836    651.1780 307.6415422  +6.3996086     2953.248     7282.309     8450.628     90.79981     181.3826     363.2354      2.572     6.85      1181.16     64.05162     309.9512        54     2.117     1.743 -13.81   0
       137    125.5449    647.2757 307.8646829  +6.3834002     1677.003     4213.599     4981.956     91.08852     181.7442     363.3076      2.703     9.88     1189.727     64.05162     172.3175        40     2.189     1.609 -22.56   0
       138    636.8099    646.1556 307.6522961  +6.4008401     857.8307     2454.479     3478.057     90.51018     181.5996     363.0546      2.789     7.30     1181.766     64.05162     124.2457        10     1.815     0.823  -2.27   2
       139    998.9805    646.0470 307.5018134  +6.4128585     1786.831     3878.453      4087.91     90.65511     181.7441     363.1631      2.223     5.98     1176.565     64.05162     224.2273        25     1.734     1.096 -21.49   0
       140    779.0355    643.3010 307.5932965  +6.4067268     10220.11     24629.88     30563.31     91.08852     181.5996     363.5605      2.643     6.13     1179.748     64.05162     1022.276        78     2.304     1.699 -21.80   0
       141    478.1929    643.7405 307.7182830  +6.3965802     584.0853     1168.235     1526.737     90.36501     181.5996     363.0908      1.928     4.84     1185.763     64.05162     110.9442         6     1.448     0.458 -70.41   0
       142    908.8622    642.6535 307.5393734  +6.4112854     1958.673     4385.442      5079.39     91.08852     181.6719     363.3438      2.325     6.80     1178.516     64.05162     205.3101        33     1.963     1.165 -30.31   0
       143    252.6594    637.1425 307.8122131  +6.3918159     2709.137     7284.292     10016.45     91.23254     181.6719      363.416      3.047     8.33     1188.375     64.05162     312.2235        56     2.432     1.576 -26.85   0
       144    659.6976    636.1522 307.6431236  +6.4057312     3321.833      8576.34     10874.61     91.08852     181.6719     363.5605      2.694     6.82     1180.116     64.05162     324.2954        57     2.229     1.596 -20.74   0
       145    731.2523    624.4393 307.6137868  +6.4129393     1795.904     4391.996     5798.204     90.94428     181.7442     363.3438      2.911     7.74     1178.496     64.05162     186.3278        38     2.074     1.321 -39.55   0
       146    997.5937    620.9674 307.5032330  +6.4231752     5122.475      11884.3     14222.64     90.36501     181.5273     363.1631      2.471     6.04     1175.593     64.05162     565.7876        56     2.153     1.487 -15.91   0
       147    936.5438    621.3415 307.5285883  +6.4210053     1223.781     2994.838     3651.634     91.23254     181.7442      363.416      2.535     9.20     1177.173     64.05162     149.4546        24     2.002     1.180 -42.00   0
       148     17.6527    621.1807 307.9103945  +6.3905876     916.5157     2374.562     3942.888     90.51018     181.8164     363.1631      3.636     7.25     1189.316     64.05162     121.9167        13     1.342     1.136 -67.85   0
       149     75.1632    616.2781 307.8866668  +6.3945293     11865.49     30723.78      41078.7     90.94428     181.8164     363.3799      2.872     6.40     1188.665     64.05162     1232.748       100     2.446     1.969 -14.60   0
       150    536.6251    617.0023 307.6949077  +6.4095655     883.9773     2027.378     2147.981     90.65511     181.3826     363.1631      2.288     5.74     1183.713     64.05162     127.5369        10     1.221     0.759 -45.44   0
       151    742.9551    606.3180 307.6095350  +6.4208139     2071.782     4941.396     6432.026     91.08852     181.7442     363.3438      2.686     6.58     1177.336     64.05162     225.5695        37     1.911     1.388 -35.45   0
       152    720.8994    608.0620 307.6186408  +6.4193635     1693.512     4075.292     5259.516     90.79981     181.7441     363.5244      2.650     7.89     1177.428     64.05162     208.4404        33     1.979     1.336 -17.97   0
       153    574.6682    604.4773 307.6795234  +6.4160016     1364.569     3816.132     4642.254     91.23254     181.8886     363.3438      2.860    10.01     1181.645     64.05162     148.8475        35     2.121     1.480 -27.02   0
       154    235.2491    604.7262 307.8205451  +6.4046302     848.9704     1781.029     3193.923     91.08852     181.8164      363.416      3.437     6.67       1185.5     64.05162     109.3973        12     1.390     0.898 -59.37   0
       155   1015.7014    602.3879 307.4963334  +6.4314495     2825.134     6242.276      7253.99     90.79981      181.455     363.0908      2.385     6.55     1174.258     64.05162     351.8785        37     1.979     1.300 -22.04  16
       156    981.1347    601.2277 307.5107360  +6.4307881      4718.76     10568.76     12627.76     90.65511     181.7441     363.3076      2.443     5.74     1175.016     64.05162      494.363        54     2.121     1.521 -21.12   0
       157    320.5612    602.8381 307.7851621  +6.4082462     614.7484     1381.095     1933.557     90.79981     181.5996     363.2354      2.650     4.55     1185.437     64.05162     77.84631         5     0.836     0.705 -39.35   0
       158    139.9443    595.1207 307.8604690  +6.4054278     10715.82     28010.34     36987.17     91.23254     181.7441      363.416      2.874     6.63      1187.47     64.05162     1108.551        93     2.409     1.939 -20.21   0
       159    427.0482    595.9316 307.7411500  +6.4146362     1248.239     3147.377     4199.513     91.08852     181.6719     363.3799      2.992     8.59     1184.279     64.05162     135.6061        23     1.523     1.354  78.51   0
       160    976.0438    584.3522 307.5134191  +6.4375927     3773.167      9081.79     11050.55     91.08852     181.6719     363.3076      2.600     6.04     1173.991     64.05162     432.2218        54     2.090     1.620 -11.21   0
       161    569.7248    579.8023 307.6824107  +6.4260328     20994.53     55542.78     73742.72     90.51018     181.1653     363.2354      2.849     6.59     1179.957     64.05162     2042.468       111     2.489     1.965 -16.63   0
       162    177.4997    576.5219 307.8454956  +6.4143620      1236.79     3145.901     4942.138     90.79981     182.0329      363.416      3.749     7.72     1185.907     64.05162     171.3315        22     1.573     1.365 -64.41   0
       163    467.0654    563.6371 307.7256141  +6.4293073     26745.58     71547.76     96795.59     90.94428     181.6719     363.4522      2.931     6.75      1180.57     64.05162     2593.514       129     2.562     2.043 -17.43   0
       164     10.5729    565.4489 307.9152284  +6.4133775     961.7675     2095.706     2365.948     90.65511     181.7442     363.3076      2.488     6.48      1188.26     64.05162     109.9987        12     1.215     0.970  -2.06   0
       165    312.9129    553.8806 307.7899975  +6.4282196     891.1851     2369.461     3695.726     90.79981     182.0329     363.5244      3.302     6.34     1181.098     64.05162     101.0332        12     1.420     0.795 -29.93   2
       166    738.8011    546.9611 307.6132622  +6.4452013     2483.507     6429.394     7434.477     90.07398      181.455     363.0546      2.642     6.81     1175.168     64.05162     269.7408        46     2.102     1.499 -20.70   0
       167    792.6675    542.2252 307.5910380  +6.4489400     6699.708     16766.46     21112.14     90.65511     181.5996     363.2715      2.686     6.40     1174.932     64.05162     687.7751        76     2.326     1.727 -20.48   0
       168   1010.8096    542.2483 307.5003882  +6.4561367     578.6015     1040.103     1293.303     90.51018     181.5273     363.0185      2.129     4.47     1170.893     64.05162     93.50464         6     0.969     0.587 -64.81   0
       169    616.8805    540.2358 307.6641520  +6.4439433     1228.785     3186.927     4224.259     90.94428     181.8164      363.416      2.746     9.11     1176.165     64.05162     142.2939        24     1.858     1.246  -7.16   0
       170    933.5676    536.6762 307.5326739  +6.4558891      653.952     1506.919     1757.956     90.94428     181.7442     363.3076      2.262     6.10     1171.382     64.05162     105.2859         7     1.727     0.606 -68.06   0
       171    868.3915    525.1733 307.5601452  +6.4584888     1386.155     3335.372     4082.358     90.65511     181.5273     363.1992      2.452     8.83     1172.108     64.05162     160.9734        29     2.080     1.325  -9.42   0
       172    827.1229    522.4790 307.5773854  +6.4582380     1387.359     3256.619     4030.806     91.37632     182.0329     363.5244      2.508     8.19     1173.068     64.05162     150.4253        23     1.451     1.292 -13.38   0
       173    807.8373    514.1831 307.5856791  +6.4610280     74198.54     189514.9     242459.8     90.65511     181.5996     363.0908      2.753     6.37     1173.163     64.05162     7539.305       178     2.734     1.926 -20.18   0
       174    255.5222    518.1117 307.8150558  +6.4410902     3136.609      8916.43     12433.33     91.08852     182.0329     363.5244      3.102     7.67     1180.126     64.05162     303.2809        69     2.367     1.908 -16.64   0
       175    189.7241    512.8237 307.8425756  +6.4410863     24495.62     66515.75     91027.36     90.65511     181.5996     363.3438      2.979     6.91     1182.501     64.05162     2495.003       127     2.568     2.077 -16.81   0
       176    113.7945    508.8458 307.8742606  +6.4402023     2544.205     7128.566     9693.551     90.36501      181.455     362.9823      3.044     7.62       1183.6     64.05162     260.4049        60     2.286     1.783 -21.63   0
       177    978.6593    505.1585 307.5149959  +6.4704004     657.9265      1440.78     1930.499     91.08852     181.7441     363.4522      2.738     5.56     1169.357     64.05162     104.1395         6     1.369     0.636 -43.66   0
       178    844.3344    501.1317 307.5709521  +6.4676272     2082.448     5281.247     6747.536     91.08852     181.8164      363.416      2.769     6.80     1171.263     64.05162     236.9573        41     2.060     1.379 -32.34   0
       179    363.0443    499.8330 307.7709961  +6.4522158     6935.764     19050.19      25411.3     90.65511     181.6719     363.1992      2.920     7.27     1176.698     64.05162     647.1464        85     2.463     1.888 -19.79   0
       180    165.5072    498.4704 307.8531249  +6.4462106     759.3054     2370.444     3540.205     91.08852     181.8886     363.3799      2.454     6.37     1182.675     64.05162     120.3062         9     1.835     0.620  82.37   2
       181    798.3926    494.5803 307.5902645  +6.4688152     2688.988      6667.67     8957.393     90.65511      181.455     363.1631      2.829     7.24      1172.35     64.05162     321.7495        49     2.306     1.436 -22.16   0
       182    529.4609    494.6116 307.7020194  +6.4598963     2740.984     7397.966     9709.522     90.36501     181.5996     363.0546      2.867     7.03     1175.381     64.05162      271.627        59     2.256     1.700 -19.35   0
       183    176.7481    487.8913 307.8488127  +6.4509556     2816.391      7355.84      9279.56     90.94428     181.5273     363.5966      2.820     7.11     1181.844     64.05162     322.3101        56     2.197     1.730 -36.27   0
       184    574.5768    486.8644 307.6835332  +6.4645930      1060.92     2673.085     3578.539     90.65511     181.7441     363.2715      2.808     8.04     1173.898     64.05162     126.1101        16     1.427     1.266  16.41   2
       185     48.2827    486.9393 307.9022254  +6.4470708     2184.172     5601.181     7253.861     91.23254     181.7442      363.416      2.849     6.68     1182.748     64.05162     262.7014        49     2.078     1.665 -39.48   0
       186    271.7173    484.4054 307.8094681  +6.4555549      34966.1     96524.95     134277.1     90.65511     181.3102     363.0908      3.019     6.99      1177.03     64.05162     3318.826       143     2.635     2.132 -16.54   0
       187    794.6606    476.5168 307.5924241  +6.4761551       7494.5     19048.84     24180.71     91.23254     181.8164      363.416      2.752     6.53     1171.395     64.05162     805.7375        80     2.330     1.801 -17.83   0
       188    498.3848    475.1020 307.7155924  +6.4669264     17351.35     48024.47     67222.32     91.08852      181.455     363.1269      3.030     6.87     1174.555     64.05162     1669.102       126     2.661     2.079 -15.04   0
       189    970.7607    477.1988 307.5192189  +6.4816921     640.9057     1448.349     1891.541     90.07398      181.455     363.0185      2.326     3.83     1168.007     64.05162     91.59546         5     0.938     0.450 -44.04   0
       190    659.0662    469.9402 307.6489943  +6.4743849     1171.797     3041.044     4636.498     91.23254     181.6719     363.3799      3.606     7.13     1171.866     64.05162      150.175        24     1.716     1.270 -35.20   2
       191    211.4724    471.1151 307.8349523  +6.4590422     811.9371     2150.833     2994.052     91.23254      182.105      363.416      2.369     4.73     1179.407     64.05162     102.5647         8     1.323     0.479 -83.43   0
       192    397.0182    467.0975 307.7579862  +6.4668693      676.525     1885.224     2804.316     90.94428     181.5996     363.0908      3.368     6.20     1174.327     64.05162     81.88708         9     1.499     0.720 -32.18   2
       193    142.8714    462.8416 307.8637390  +6.4601775     10652.03     28896.62     39209.24     90.94428     181.7441     363.4522      2.953     6.87     1181.101     64.05162     1061.194       104     2.499     2.035 -24.46   0
       194    327.2504    464.2428 307.7870746  +6.4657312     1431.349     4193.687     5473.451     91.23254     181.7442     363.3799      2.977     9.33     1174.385     64.05162     158.9672        33     1.842     1.672 -50.50   0
       195    506.5898    464.5037 307.7125410  +6.4715775     817.6835     2159.994     3007.218     90.79981     181.3102     363.1269      2.959     7.57      1173.63     64.05162     117.6161        10     1.753     0.914 -52.06   3
       196    870.3983    462.5348 307.5614206  +6.4844361     812.4509     2033.914     2545.696     90.36501     181.3826     363.1269      2.517     7.67     1168.598     64.05162     93.66711        13     1.589     1.035 -28.37   0
       197    108.3015    462.3146 307.8781218  +6.4592441     877.3711     1848.634     2281.068     91.08852     182.2491     363.4522      2.624     6.14     1181.518     64.05162     112.2018        11     1.470     0.720 -17.70   2
       198    109.5474    459.2553 307.8777079  +6.4605496     946.9619     1772.714     2075.549     91.23254     181.7442     363.3438      2.077     5.72     1181.362     64.05162     115.8699         9     1.447     0.637  -8.48   3
       199    968.0999    456.7671 307.5210121  +6.4900463     2705.571     6494.741     7565.357     91.08852     181.5996     363.5605      2.624     6.21     1166.834     64.05162     316.1382        50     2.047     1.622 -24.11   0
       200      7.0466    447.2515 307.9207076  +6.4620936     10885.52     28839.23     39037.09     91.23254     181.5996      355.158      2.936     6.79     1181.154     64.05162     1101.842       100     2.461     2.021 -23.76  24
       201    439.7127    443.8380 307.7410311  +6.4778968     17178.46     47253.68     65723.52     91.08852     181.6719     363.3799      3.021     7.01     1172.521     64.05162     1660.225       117     2.588     2.072 -19.38   0
       202    647.7825    443.3491 307.6545808  +6.4849979     4985.223     13780.32     18289.21     90.51018     181.8164     363.0908      2.900     7.20     1170.452     64.05162     496.8777        72     2.381     1.807 -20.19   0
       203    205.0307    441.5883 307.8386300  +6.4710272     8039.721     22323.07     31370.34     90.51018      181.455     363.2715      3.046     7.00     1177.625     64.05162     779.0137       100     2.612     1.998 -15.76   0
       204    568.9541    440.2441 307.6874444  +6.4836688       1185.5     3144.233     4466.419     91.08852     181.7441     363.3076      3.110     8.69      1171.01     64.05162      132.873        25     1.867     1.130 -49.24   0
       205    943.2303    436.9974 307.5320127  +6.4973935     2222.271      5518.53     6501.476     90.51018     181.5273     363.1631      2.548     6.83     1166.855     64.05162     236.7651        42     2.056     1.465 -22.94   0
       206    616.3433    435.6210 307.6679069  +6.4871494     2625.775     7240.236     9504.081     90.65511     181.7442     363.1631      2.870     7.43     1170.313     64.05162     259.1318        57     2.219     1.728 -30.08   0
       207    965.7307    428.9994 307.5229309  +6.5014411     1672.856     4321.507     4897.983     90.51018     181.2378     363.1631      2.591     8.68     1165.238     64.05162     176.3325        34     2.031     1.274 -27.10   0
       208    529.0181    428.0000 307.7044543  +6.4874035     2668.708     6199.414     8760.559     90.51018     181.1653     362.9823      2.778     8.38     1170.434     64.05162     302.4773        38     2.641     1.152  -8.05   3
       209    528.6462    425.6799 307.7046872  +6.4883498     2578.765     5359.447     7102.712     91.08852     181.7442     363.3799      2.568     6.21     1170.273     64.05162     303.0944        25     1.912     0.986 -14.23   3
       210    375.3961    427.0206 307.7683275  +6.4827096     1053.923     2644.188     3466.898     90.65511     181.3826     363.1269      3.003     7.14     1171.727     64.05162      112.666        16     1.492     0.957  40.30   0
       211    884.7762    422.4990 307.5567936  +6.5014531      1620.24     3681.324     4863.829     91.23254      181.455     363.1631      2.925     6.77      1167.16     64.05162     195.3285        28     1.782     1.268 -40.28   2
       212    892.7272    416.7114 307.5536842  +6.5041071     1083.253     2666.967     3167.537     91.08852     182.0329      363.416      2.511     6.62     1166.994     64.05162     160.7318        17     1.424     1.109  -6.66   0
       213    716.5190    411.9677 307.6270742  +6.5002399     1191.332      3041.92     4135.567     90.94428     181.7441     363.3438      3.043     9.42     1168.312     64.05162     137.2985        22     1.811     1.368 -17.95   2
       214     79.6644    413.6216 307.8916740  +6.4784080     725.4447     1862.488     2568.933     90.65511     181.7442     363.2354      3.093     5.57      1180.03     64.05162     102.3073         8     1.429     0.612  62.00   2
       215    388.0315    411.1480 307.7636138  +6.4896873     1416.071     3955.547     5237.104     90.94428     181.8886     363.3076      3.030     9.78     1170.543     64.05162     170.6447        33     2.187     1.533 -33.56   2
       216    615.1995    407.8424 307.6693202  +6.4985889     4017.342     11173.48     15317.21     90.36501     181.3826     362.9461      2.979     7.37     1168.752     64.05162     393.8267        72     2.431     1.793 -25.67   0
       217    777.9731    404.3261 307.6017923  +6.5054307     7330.776     19052.46     25909.11     90.79981     181.6719     363.3438      2.914     6.75     1167.296     64.05162     738.2047        89     2.527     1.820 -27.93   0
       218    298.3989    406.2196 307.8010289  +6.4887453      946.559     2643.984     3750.975     90.65511     181.2378     363.0546      3.175     8.50     1170.691     64.05162     149.6649        15     1.494     1.352 -83.33   2
       219    381.8087    400.1872 307.7665707  +6.4940093     772.2311     1838.894     2698.436     90.65511     181.5273     363.2715      2.738     6.74     1169.713     64.05162     152.8123         9     1.771     0.720  31.37   0
       220    963.0869    398.9731 307.5250400  +6.5137600     983.1892     2047.988     1903.191     91.23254     181.5273     363.2354      1.967     6.56     1163.449     64.05162     120.7019        13     1.289     0.937  84.30   0
       221    115.9804    396.5094 307.8771637  +6.4866876     1946.886     5005.497     6673.418     90.94428      181.455     363.1992      2.859     7.52     1178.505     64.05162     236.6716        43     1.915     1.711 -26.62   0
       222   1016.9562    394.1277 307.5028147  +6.5175401     2252.927     5283.179     6027.586     90.94428     181.8164     361.9682      2.456     6.28     1160.786     64.05162     235.3287        39     1.916     1.432  -7.09  16
       223    753.4084    395.2755 307.6123063  +6.5083575     990.2539     2601.557     3025.922     90.65511     181.1653     363.1631      2.519     8.70     1166.956     64.05162     127.0406        20     1.766     1.197 -24.94   0
       224    351.8050    391.3278 307.7793393  +6.4966729     1372.906     3507.014     3945.112     90.65511     181.2378     363.2715      2.589     7.89     1169.468     64.05162     166.8607        28     1.818     1.357  -6.57   0
       225    819.2385    377.6169 307.5855427  +6.5178311     750.7098     2000.834     1998.804     90.65511     181.5996     363.1269      2.428     9.06     1165.046     64.05162     114.2577        13     1.816     1.262 -61.20   0
       226    716.3654    376.1804 307.6283452  +6.5150212     6615.624     17303.07     22874.86     90.51018     181.5273     363.1269      2.852     6.64     1165.997     64.05162     657.4735        82     2.400     1.837 -25.66   0
       227    636.9760    372.1183 307.6614762  +6.5140706     1072.323      2881.76     3603.626     90.79981      181.455     363.3076      2.919    10.43     1166.061     64.05162     128.8065        27     2.302     1.318  -5.73   0
       228    609.7562    367.4064 307.6729477  +6.5151155     6395.734     18545.67     29171.48     90.51018      181.455     363.0185      3.380     7.88     1165.776     64.05162     629.3456       111     2.930     2.143  11.61   0
       229    941.3826    365.9770 307.5351708  +6.5266767     2020.051      4839.74     5519.044     90.65511     181.5273     363.3076      2.444     7.26     1161.407     64.05162     223.7231        36     1.937     1.392  -8.69   0
       230    380.7985    362.3165 307.7682722  +6.5096225     11137.03     31283.45     43530.91     90.21961     181.2378     363.0546      3.018     7.20      1166.75     64.05162     1154.839       105     2.550     2.052 -19.66   0
       231    126.7068    361.5580 307.8738921  +6.5014852     980.9105     2631.376     3117.405     91.23254     181.6719     363.4883      2.632     8.77     1176.706     64.05162     125.4762        20     1.907     1.126 -77.87   0
       232     59.3611    359.2807 307.9019558  +6.5001826      651.709     1625.005     2403.324     91.08852     181.8164     363.3076      2.579     3.23     1179.116     64.05162     100.4255         5     0.740     0.476 -63.98   2
       233    910.1321    356.3461 307.5484831  +6.5296237     2561.209     6170.496     7644.166     91.08852     181.6719     363.2715      2.728     6.44     1161.268     64.05162        288.3        44     2.049     1.451 -14.99   0
       234    238.3607    352.9121 307.8277851  +6.5087735     5592.822     15200.12     20830.41     91.08852     181.6719      363.416      2.981     7.10     1170.597     64.05162     536.5497        84     2.436     1.991 -21.14   0
       235    138.5573    341.4019 307.8696512  +6.5102074     1939.036      5665.95     7587.602     90.36501     181.3826     363.0185      3.000     9.21     1175.559     64.05162     198.0405        57     2.344     1.766 -19.98   0
       236    160.6243    337.6897 307.8606066  +6.5124759     1100.158     2827.137     3350.065     91.23254     181.5273     363.1992      2.734     7.99     1174.632     64.05162     130.2167        17     1.873     0.954 -38.76   0
       237    385.1461    331.7128 307.7675012  +6.5224113     808.6122     2201.049     2762.904     91.08852     181.5996     363.5605      2.872     8.32     1164.531     64.05162     107.7861        15     1.544     1.252 -55.63   0
       238    437.7762    325.6507 307.7458334  +6.5266636     2749.287     7977.626     11191.94     90.65511     181.7441     363.2715      3.082     7.93     1162.932     64.05162     296.6896        66     2.368     1.874 -23.32   0
       239     34.3732    326.1572 307.9134647  +6.5130349     1351.262     3727.156     4734.527     90.65511     181.7441     363.2354      2.963     6.17     1180.072     64.05162     157.5037        25     1.681     1.247 -77.84   2
       240    559.0632    326.9917 307.6953809  +6.5301334     5522.739     6554.993     6201.068     90.36501      181.455     363.1631      1.082     3.57     1161.947     64.05162     2005.728         9     1.278     0.287  -1.55   0
       241    777.8696    322.8214 307.6045830  +6.5391030     5490.018        14708     20154.71     90.65511     181.6719     363.3076      3.022     8.10     1161.382     64.05162     573.3584        87     3.045     1.725 -12.36   0
       242   1021.7188    317.7297 307.5034048  +6.5492634     1958.789     4229.619     4354.562     91.37633     173.0105     307.7039      2.225     6.55     1156.444     64.05162     225.6388        30     1.722     1.274 -35.26  24
       243    486.0068    309.3615 307.7263395  +6.5349944     1222.538     3289.559     4018.535     90.21961     181.3826     363.0546      2.622     8.82     1161.153     64.05162     140.5845        28     1.851     1.280 -60.82   2
       244    457.8049    310.8632 307.7380096  +6.5334381     918.2679     1880.524     2459.877     90.36501     181.5273     363.1269      2.760     6.03     1161.698     64.05162     142.2142        10     1.268     0.806 -65.18   0
       245    843.7896    305.6516 307.5777639  +6.5483771     15516.89     39854.06     51920.82     90.36501     181.5996     363.0908      2.795     6.25     1159.732     64.05162     1603.843        99     2.432     1.888 -21.73   0
       246    614.5635    298.4084 307.6732798  +6.5437828      1136.95     2993.481     3959.145     90.36501      181.455     363.1269      2.898     8.46     1159.227     64.05162     133.1641        22     1.700     1.175 -70.69   0
       247    875.8179    298.1783 307.5647037  +6.5525235     978.1378     1532.934     1436.322     90.79981     181.5996     363.3076      1.312     3.20     1158.958     64.05162     525.4819         5     1.217     0.377  -3.36   0
       248    882.6163    297.1812 307.5619117  +6.5531602         2790     2952.201     3620.276     90.79981      181.455     363.3076      0.666     0.93     1158.802     64.05162     1358.911         5     0.496     0.435  24.57   0
       249    700.2866    291.6786 307.6378786  +6.5494027      34546.6     91805.72     121782.1     90.94428      182.105     363.5244      2.891     6.58     1158.875     64.05162     3311.229       138     2.563     2.020 -16.49   0
       250    100.1331    287.5217 307.8874480  +6.5311886      2706.13     7315.293     9943.967     91.23254     181.8164     363.3438      2.975     7.61     1175.797     64.05162     275.1665        64     2.237     1.967 -13.78   0
       251    563.2741    288.4760 307.6949321  +6.5461865     1202.567     3137.196     4269.042     91.37633     182.0329     363.4522      2.949     8.60     1158.223     64.05162     134.8801        22     1.789     1.156 -44.37   0
       252    545.9963    284.6129 307.7022437  +6.5472097     2830.392     8030.099     11179.69     90.65511     181.3826     363.2354      3.072     7.59     1157.994     64.05162     299.3795        59     2.174     1.823 -18.14   0
       253    409.0226    279.8662 307.7593327  +6.5446254     10331.11     29226.26     40780.19     90.65511     181.7441     363.2715      3.037     7.20      1160.93     64.05162     987.1863       107     2.581     2.040 -20.69   0
       254    275.8726    282.3398 307.8145871  +6.5391787     1001.379     2931.861         3665     91.23254     181.7441      363.416      2.882     9.71     1166.872     64.05162     108.7357        23     1.937     1.356 -50.45   0
       255    497.9685    270.3148 307.7226883  +6.5515241     3469.419     9445.926     13437.83     91.08852     181.5273     363.2715      3.154     7.39     1157.695     64.05162     347.3781        74     2.404     1.953 -16.60   0
       256    767.1058    269.0156 307.6108709  +6.5609780      1245.35     3367.111     4410.148     90.79981     181.5273     363.1992      2.720     9.74     1157.842     64.05162     154.9567        30     2.276     1.222 -22.59   0
       257    388.0801    254.6239 307.7688910  +6.5543590     3027.771     8311.702     11833.85     90.65511     181.3826     363.3438      3.012     7.82     1160.846     64.05162     325.5291        66     2.443     1.828 -16.79   0
       258    244.5966    255.3993 307.8284986  +6.5492692     918.6879     2456.072     3155.274     90.36501     181.2378     363.0908      2.797     9.79     1167.536     64.05162      102.708        16     1.780     1.502  13.97   0
       259    755.7241    250.2411 307.6162348  +6.5683585     23812.89     62579.68     81882.88     90.94428     181.7442      363.416      2.830     6.64     1157.279     64.05162     2389.843       123     2.504     1.975 -18.42   0
       260    427.9478    250.6062 307.7524571  +6.5573430     822.3483     2198.277     2622.515     90.51018     181.5273     362.9823      2.680     6.27     1159.406     64.05162     88.89856        10     1.320     0.835 -25.29   2
       261    990.7993    247.0893 307.5186326  +6.5774300     852.5336     1738.525     2068.979     90.21961     181.1653     363.0546      1.981     5.30     1152.599     64.05162     119.4019         7     1.226     0.648  43.83   0
       262    930.0289    248.3262 307.5438502  +6.5749123     666.8664     1521.917     2373.187     90.94428     181.7442     363.3438      3.015     7.24      1155.03     64.05162      106.833         7     2.013     0.728  -8.38   2
       263    931.3320    245.7024 307.5433970  +6.5760395     940.3984     2011.159     2477.188     91.08852     181.8886     363.3799      2.566     3.37     1154.854     64.05162     160.0809         9     0.959     0.678  37.18   3
       264    191.7013    235.8202 307.8511463  +6.5555983     897.2173     2367.489     2892.917     91.08852     181.5273     363.1269      2.901     7.72     1170.195     64.05162     109.2786        15     1.505     1.109 -32.21   2
       265    754.2555    234.6074 307.6173725  +6.5747693     2803.374       7039.8      9344.85     90.51018     181.5273     363.0546      2.803     6.74     1156.805     64.05162     314.7665        49     2.095     1.572 -19.47   0
       266    770.9628    232.7271 307.6104915  +6.5760990     1120.768     3218.215     4046.747     90.94428     181.7442     363.4522      2.850     9.77     1156.393     64.05162     140.5469        25     1.674     1.590 -81.28   0
       267     72.4801    227.8611 307.9009659  +6.5549161     677.3154     1595.411     2646.719     91.23254     181.7441     363.3799      3.485     6.21     1176.915     64.05162     90.82678         8     1.205     0.899  59.30   0
       268    360.7576    227.2113 307.7811749  +6.5647772     752.1328      2146.26     2835.772     90.36501     181.5273     363.0546      2.787     6.48      1160.81     64.05162     94.51599         9     1.389     0.849  78.20   0
       269    486.2238    225.7100 307.7290780  +6.5695636     792.2068     2042.863     3142.252     91.08852     181.5273     363.1992      2.723     6.68     1153.775     64.05162     101.0219         8     1.799     0.696  28.03   2
       270   1008.6136    223.4081 307.5120247  +6.5878026     3136.478     7585.684      8880.58     90.65511      181.455     363.2354      2.556     6.38     1150.737     64.05162     330.8728        47     2.084     1.434 -15.48   0
       271    249.4526    219.4159 307.8277000  +6.5642975     2291.839     6342.289     8973.372     90.36501     181.8164     363.0546      3.055     7.97     1166.984     64.05162     250.1116        57     2.365     1.734 -19.06   0
       272    384.0323    211.2312 307.7720422  +6.5721528     739.5886     1704.637     2286.008     90.51018      181.455     363.0546      2.823     4.54     1159.578     64.05162     120.0785         5     0.859     0.682 -44.79   0
       273    153.8933    206.4310 307.8678568  +6.5664820     832.8525     2018.184     3349.717     91.23254     181.5273     363.3799      3.130     7.27     1171.816     64.05162     127.8918        11     1.287     1.150  61.67   0
       274    905.9574    200.5972 307.5554629  +6.5938376     861.3788     2126.378     2706.826     90.36501     181.2378     363.0546      2.743     7.25     1152.746     64.05162     124.6418        13     1.305     1.129 -15.40   0
       275    563.9209    200.9290 307.6976215  +6.5823795     820.4406     1738.012     2457.857     91.37633     182.0329     363.3438      2.285     5.08     1152.905     64.05162     120.9363         7     1.140     0.641 -58.86   0
       276    726.7411    198.9933 307.6300102  +6.5885735     2223.755     5572.591     7213.325     90.36501     181.5996     363.0546      2.741     6.98     1155.223     64.05162     227.2567        44     2.051     1.512 -22.56   0
       277    668.1727    198.7106 307.6543641  +6.5867510     857.5403     2265.776     3229.068     91.23254      181.455     363.2354      2.901     7.43     1154.358     64.05162     100.4459        13     1.495     1.033 -83.03   0
       278    226.2006    184.8114 307.8385373  +6.5778210     1115.728     2668.812     2916.112     90.65511     181.3826     363.1631      2.313     8.26     1169.987     64.05162     146.5785        20     1.473     1.295  53.34   0
       279    868.6344    182.2054 307.5715964  +6.6002032     737.6445     1905.688      2684.65     90.21962     181.5273     363.1269      3.050     8.30     1152.456     64.05162     92.83838        14     2.153     0.894 -24.02   0
       280    460.2415    174.2867 307.7416166  +6.5899475     9234.474     25695.23     35961.77     91.08852     181.6719      363.416      3.044     7.06     1153.478     64.05162     917.1885       104     2.632     2.037 -24.69   0
       281    785.9560    173.2167 307.6062662  +6.6011831     6094.837     15863.74     20579.14     90.65511     181.5996     363.1269      2.756     6.63     1153.415     64.05162     613.8857        72     2.336     1.720 -16.33   0
       282    148.7442    168.8305 307.8712727  +6.5818453     917.2631     2104.557     3224.932     90.94428     181.8164     363.3076      2.450     5.35     1172.113     64.05162     149.4979        10     1.550     0.521 -41.22   0
       283    921.7717    163.1445 307.5501507  +6.6098345      746.845     1550.568      1429.91     90.65511     181.8164     363.1992      2.134     6.50     1150.588     64.05162     106.4318         9     1.351     0.968 -60.50   0
       284    584.0091    159.8467 307.6906600  +6.6000193     1883.044     5159.109     6966.558     90.51018     181.6719     362.9823      2.950     8.18     1152.063     64.05162     217.7433        48     2.173     1.752 -24.41   0
       285    545.9346    161.5789 307.7064275  +6.5980412     715.2276     1980.293     2565.359     90.65511     181.7441     363.2354      2.466     5.22     1152.072     64.05162     94.33435         7     1.387     0.554 -22.93   0
       286    891.1044    156.2942 307.5631291  +6.6116516         5425     13470.98      16498.9     91.08852     182.4651     363.3076      2.635     6.16      1150.67     64.05162     546.1147        66     2.196     1.684 -18.72   0
       287    689.2597    155.0444 307.6470730  +6.6054908     1181.426     3193.278     4220.386     90.94428     181.6719     363.4883      2.878    10.60      1152.96     64.05162     147.8804        32     1.966     1.820 -86.59   0
       288    944.6782    156.7024 307.5408458  +6.6132529      1312.11     3145.922     3834.412     90.79981     182.0329      363.416      2.506     8.30     1149.741     64.05162     141.6783        23     1.696     1.135  -1.04   0
       289    388.7528    159.2067 307.7718413  +6.5938041     630.2523     1537.753     1752.207     90.51018     181.5273     362.9823      2.268     5.60     1156.916     64.05162     93.81909         6     1.137     0.777  51.40   0
       290     17.5784    153.4923 307.9263099  +6.5838113     11313.88     29689.41     39893.52     91.08852     181.5273     363.1631      2.929     6.63      1178.87     64.05162     1139.366       100     2.468     2.012 -20.35   0
       291    977.6420    154.0761 307.5272318  +6.6154265     5059.381     12080.33     14696.19     90.94428     181.7441      363.416      2.551     6.03     1148.805     64.05162     540.4583        60     2.098     1.597 -24.62   0
       292    498.6396    149.5321 307.7264935  +6.6014495     889.3557     2156.075     1934.903     90.94428     181.6719     363.5244      2.462     8.40     1151.979     64.05162     136.8156        16     1.785     1.103 -29.39   0
       293    829.7784    146.2370 307.5889600  +6.6137798     1080.428     2396.439     2563.387     90.65511      181.455     363.0908      2.411     5.24      1151.33     64.05162      133.254        14     1.179     1.067 -72.14   0
       294    741.2787    142.4114 307.6258764  +6.6124326     17650.24     46065.12        60065     90.65511     181.3826     363.1992      2.807     6.59     1152.142     64.05162     1846.615       107     2.468     1.937 -13.74   0
       295    510.1009    145.5269 307.7218649  +6.6034846     990.3861     2606.698     3261.718     90.79981     181.8886     363.3438      3.017     8.18     1151.939     64.05162     141.2812        13     2.288     0.818 -32.86   2
       296    344.3738    142.2482 307.7908618  +6.5993361     2720.245      7835.63     11883.88     90.65511     181.8164     363.2715      3.238     7.79     1161.771     64.05162     286.2515        78     2.434     2.114 -49.74   0
       297    882.3379    144.7103 307.5671634  +6.6161481     990.8885     2374.109     2975.962     91.08852     181.8886     363.4522      2.463     8.51     1150.079     64.05162     117.0677        16     1.866     1.085 -37.86   0
       298    975.2188    141.1696 307.5286735  +6.6206792     1412.581     3346.413     3703.556     90.65511     181.5273     363.2354      2.398     7.12     1148.144     64.05162     173.5549        25     1.734     1.113 -20.97   0
       299    909.0317    139.3135 307.5562490  +6.6192600     3758.443     8961.144     10998.29     91.08852     181.5273     363.3076      2.591     6.17     1149.255     64.05162     391.9086        56     2.243     1.482 -19.97   0
       300    452.9171    138.9182 307.7458576  +6.6043173     2070.381     5557.027     7080.485     90.79981     182.0329     363.4883      2.888     7.67     1153.172     64.05162     221.0322        48     2.206     1.553 -20.82   0
       301   1013.3416    138.8545 307.5129041  +6.6228941     693.9338     1806.292     2219.817     91.23254     181.7441     363.3799      2.352     5.38     1147.279     64.05162     103.6249         9     1.817     0.450  10.56  16
       302    110.6074    130.4132 307.8884276  +6.5964472     2012.387     5363.121     6717.101     90.65511     181.5273     363.2354      2.831     8.03     1174.035     64.05162     216.8588        45     2.145     1.681 -39.93   0
       303    280.4926    126.9130 307.8179339  +6.6035481     14115.04     38531.29     53985.79     91.08852     182.2491     363.4883      3.062     7.14     1168.354     64.05162     1507.534       114     2.649     2.046 -19.31   0
       304    255.7537    127.8700 307.8281842  +6.6023299     2699.882      7423.63     10163.28     91.08852     181.6719     363.3799      2.972     7.60     1169.445     64.05162     270.3877        63     2.297     1.851 -18.39   0
       305    404.5463    122.3020 307.7665259  +6.6095763     20604.99     55740.77     77145.04     90.94428     181.7442     363.6327      3.003     6.93     1156.152     64.05162     2111.016       116     2.585     2.068 -22.10   0
       306    160.6204    123.6613 307.8678692  +6.6009025     1733.693       4831.2      6648.15     90.65511     181.7442     363.3076      3.018     9.04     1171.388     64.05162       227.01        43     2.012     1.799 -34.70   0
       307    309.3004    120.0548 307.8061921  +6.6073396     7452.933     20638.37     30381.93     90.79981     181.7442     363.7049      3.307     7.73      1166.36     64.05162     765.3613       113     3.215     1.951 -11.22   0
       308    422.7668    122.7845 307.7589359  +6.6099820     622.0145     1477.789     1462.185     90.65511      181.455     363.2354      2.673     4.34     1154.484     64.05162     84.43628         5     0.754     0.710 -32.53   0
       309    743.7977    118.3012 307.6256427  +6.6224775     14878.05     38541.33     50397.45     90.51018      181.455     363.0185      2.811     6.48     1150.875     64.05162      1599.43       102     2.442     1.893 -16.34   0
       310     60.7725    115.8732 307.9096348  +6.6007937     3904.339     10413.89     13896.89     90.79981     181.6719     363.3076      2.889     7.52     1176.587     64.05162     437.6516        68     2.395     1.761 -28.88   0
       311     95.0517    113.7319 307.8954596  +6.6028207     742.0634     1539.598     2546.889     90.94428     181.5996     363.3438      3.102     7.20     1174.649     64.05162     117.1844         8     1.438     1.009 -86.49   0
       312   1002.1748     98.8900 307.5188909  +6.6390379     1261.993     2895.888     3592.913     91.23254     181.5273     363.1992      2.349     8.28     1145.464     64.05162     140.6777        19     1.503     1.276 -33.74   0
       313    279.3645     93.1168 307.8195482  +6.6174737     12510.17      34917.8      49322.2     91.08852     181.7441     363.3076      3.086     6.95     1169.394     64.05162     1290.134       117     2.588     2.134 -18.31   0
       314    594.8651     94.7962 307.6883454  +6.6272558      885.335     2416.675     3500.161     90.21961      181.455     363.1269      2.654     6.10     1151.322     64.05162     145.0314        10     1.531     0.683 -71.82   0
       315     24.7710     91.7757 307.9254173  +6.6095492     2007.242     5318.917     7307.485     90.51018     181.5996     363.1631      3.037     7.54     1178.709     64.05162     250.9788        44     2.100     1.673 -24.68   0
       316    710.9707     89.3976 307.6402638  +6.6333329     3637.976     9456.642     12903.28     90.51018     181.5273     363.1631      2.855     7.04     1150.135     64.05162     379.9248        68     2.329     1.808 -20.44   0
       317    121.9611     87.3838 307.8851692  +6.6146030     2144.832     5501.642     6955.887     90.65511     181.5273     363.1269      2.673     7.34         1173     64.05162     214.2388        43     2.037     1.514 -37.53   0
       318    392.7801     82.9329 307.7727495  +6.6254511     1558.712     4294.857     5965.502     90.65511     181.7441     363.2715      2.912     8.28     1158.505     64.05162       183.29        39     1.850     1.733 -13.91   0
       319    356.9898     82.2424 307.7876501  +6.6245472     1356.459     3426.913     4771.425     90.36501     181.5273     363.0908      2.970     8.99     1163.368     64.05162     139.3317        24     1.885     1.198 -21.33   2
       320    111.8238     82.1168 307.8895616  +6.6164413     824.3282     1825.143     2744.722     90.94428      181.455     363.3076      2.268     7.15     1173.349     64.05162      117.809        11     1.611     0.888 -39.92   0
       321   1003.4936     76.1880 307.5191067  +6.6484612     636.0698     1600.689     1389.718     90.79981      181.455     363.1631      2.167     4.79      1142.66     64.05162      121.666         8     1.732     0.375  -3.75   0
       322    208.7446     70.7481 307.8496610  +6.6243658     2425.146     6219.923     8344.473     91.08852     181.7442     363.3438      2.890     6.93     1170.968     64.05162     243.2327        53     2.195     1.613 -30.12   0
       323     92.4619     70.6233 307.8979998  +6.6205447     943.1976     2442.942     3333.587     90.65511     181.7442     363.2715      2.792     9.21     1174.132     64.05162     109.4562        21     1.871     1.266 -53.26   0
       324    670.5623     69.3363 307.6577386  +6.6402834     2748.669     6983.417     8991.422     91.08852     181.6719      363.416      2.774     7.14     1150.167     64.05162     277.4902        50     2.102     1.561 -18.07   0
       325    622.8641     66.5577 307.6776604  +6.6398510     4345.723     11521.95     14836.43     91.08852     181.6719      363.416      2.849     7.03      1150.08     64.05162     459.8571        65     2.321     1.723 -14.11   3
       326    626.1450     58.1048 307.6765821  +6.6434522     23158.11     60890.31     82105.86     90.94428     181.7441     363.6327      2.905     6.55     1149.687     64.05162     2424.336       126     2.571     2.023 -20.15   3
       327    349.9929     62.5130 307.7912268  +6.6324660     1630.978      4432.08     6232.044     90.51018     181.3826     363.0908      3.133     7.81     1164.195     64.05162     176.9011        36     1.883     1.528 -38.73   0
       328    531.6968     62.4362 307.7156975  +6.6385311     724.5735     1515.814     1503.188     91.08852     181.5996     363.5605      2.509     5.69     1151.482     64.05162     100.3541         8     1.162     0.783 -30.32   0
       329    305.7414     52.1436 307.8099726  +6.6352791     1572.651     4156.527     6424.961     91.23254     181.7442      363.416      3.197    10.07     1168.626     64.05162     170.4847        34     2.017     1.401 -18.16   0
       330    602.3247   1020.9791 307.6539762  +6.2448306     1348.503     2974.652      3563.85     90.65511     179.4177     319.1391      2.360     7.81      1201.76     64.05162      156.896        19     1.678     1.016   8.51  16
       331    690.4785     42.1747 307.6503764  +6.6521653     1415.444      3603.12     4746.784     90.79981     181.6719     363.3438      2.839     9.01     1148.723     64.05162     154.2727        24     1.606     1.411 -50.56   0
       332    432.4916     33.5032 307.7579152  +6.6471924     1907.656     4830.101     6525.407     91.08852     182.3211     363.3438      2.797     8.84     1155.841     64.05162     199.1085        42     2.310     1.490 -25.22   0
       333    904.6191     28.5808 307.5618133  +6.6648658     2058.772     5180.036     6853.776     90.79981     181.6719     363.3076      2.848     6.60     1141.767     64.05162     197.1514        43     1.887     1.615 -23.19   0
       334    887.0743     28.6384 307.5691052  +6.6642622     1111.039     2835.973      3739.06     90.94428     181.7441     363.4522      2.785     8.44     1141.755     64.05162     141.0087        21     1.860     1.070 -38.58   0
       335    598.0562     27.7399 307.6892846  +6.6550668     806.5353     1815.589     2589.481     91.23254     181.7442      363.416      2.864     5.06     1148.896     64.05162     144.7874         8     1.188     0.609 -28.22   0
       336    395.7102     25.3614 307.7734807  +6.6493345     815.5183     1859.983     2065.778     91.08852     181.6719      363.416      2.545     5.81     1159.522     64.05162     123.4371         8     1.373     0.693 -19.62   0
       337    158.6840   1017.7952 307.8383566  +6.2314195     9971.288     22405.81     26367.96     90.51018     181.3102     356.2284      2.433     5.64      1201.86     64.05162     1151.367        74     2.183     1.586 -19.27  16
       338    473.1700   1016.3046 307.7077816  +6.2424813     2198.721      5221.61     5976.884     91.23254      181.455     363.3799      2.391     6.86     1201.046     64.05162      272.665        36     1.913     1.424 -12.04  16
       339    901.4365   1018.5516 307.5298115  +6.2557264     649.4827     1150.354     1234.211     90.94428     181.6719     349.4566      2.223     5.77     1199.751     64.05162     107.7506         7     1.368     0.686 -12.58  16
       340    832.2037   1015.3447 307.5586781  +6.2547642     2038.261     4066.144     4323.699     90.36501     181.5273     363.0185      2.080     5.90     1198.923     64.05162     242.8669        24     1.729     0.981 -25.68  16
       341    814.0237   1014.2042 307.5662682  +6.2546345     747.3864     1612.117     1703.532     90.65511      181.455     363.1992      2.021     5.83      1198.86     64.05162     121.1843         8     1.392     0.687 -56.39   0
       342    753.0860   1014.1454 307.5915830  +6.2526440     1166.108     2238.091     2458.304     91.08852     181.6719     363.5966      2.013     5.94     1198.994     64.05162     165.8159        15     1.374     0.934 -22.40   0
