#   1 NUMBER                 Running object number                                     
#   2 X_IMAGE                Object position along x                                    [pixel]
#   3 Y_IMAGE                Object position along y                                    [pixel]
#   4 ALPHA_J2000            Right ascension of barycenter (J2000)                      [deg]
#   5 DELTA_J2000            Declination of barycenter (J2000)                          [deg]
#   6 FLUX_APER              Flux vector within fixed circular aperture(s)              [count]
#   9 FLUXERR_APER           RMS error vector for aperture flux(es)                     [count]
#  12 FLUX_RADIUS            Fraction-of-light radii                                    [pixel]
#  13 FWHM_IMAGE             FWHM assuming a gaussian core                              [pixel]
#  14 BACKGROUND             Background at centroid position                            [count]
#  15 THRESHOLD              Detection threshold above background                       [count]
#  16 FLUX_MAX               Peak flux above background                                 [count]
#  17 ISOAREA_IMAGE          Isophotal area above Analysis threshold                    [pixel**2]
#  18 A_IMAGE                Profile RMS along major axis                               [pixel]
#  19 B_IMAGE                Profile RMS along minor axis                               [pixel]
#  20 THETA_IMAGE            Position angle (CCW/x)                                     [deg]
#  21 FLAGS                  Extraction flags                                          
         1    182.7090     23.6281 307.8650293  +6.6681644     11185.79     16800.03     17701.99     78.54304     156.2165     312.7131      1.602     3.60     839.4719      55.1427      1675.34        38     1.602     0.952 -55.05   0
         2    526.8293     21.8493 307.7221215  +6.6804633     3076.794     4718.032     5073.961     78.04592     156.5276     312.7442      1.606     3.64     828.7113      55.1427     487.1678        25     1.490     0.918 -51.34   0
         3    993.2646     17.7272 307.5284642  +6.6977745     1989.102     2734.452     2195.477     78.41905     156.4654     312.8376      1.480     3.73      823.373      55.1427      276.433        19     1.284     0.923 -57.53   0
         4    712.5450     14.1632 307.6452197  +6.6898606     7534.992     10866.18     10997.96     78.29488     156.4654     312.8687      1.516     3.40     827.8517      55.1427     1220.511        32     1.485     0.893 -52.52   0
         5    632.8192     13.2630 307.6783746  +6.6875618     4011.206     5797.254     5976.852     78.04592     156.4654     312.7131      1.514     3.32     827.9462      55.1427     689.6451        25     1.386     0.915 -53.76   0
         6    334.7578     13.1579 307.8022137  +6.6776018     925.7042     1466.177     1766.735      78.1705     156.4654     312.7131      1.809     4.96     838.8922      55.1427     142.8737        10     1.361     0.512 -52.06   0
         7    432.9294      9.6167 307.7615464  +6.6823620     6386.141     9518.295     9718.618     77.92115     156.4032     312.7131      1.568     3.49     832.4279      55.1427     956.4031        32     1.513     0.927 -51.70  16
         8    388.2224     11.6843 307.7800509  +6.6800068     726.9742     766.9545     620.7102     78.29488     156.1542     312.7442      1.290     4.42     835.5701      55.1427     104.3912         8     1.086     0.511 -55.13   0
         9     33.9174      9.1587 307.9273332  +6.6691248     8927.097     13220.93     13530.52     78.41905     156.4654     312.7753      1.536     3.41     840.6708      55.1427     1442.604        36     1.521     0.958 -50.84  16
        10    680.0276      8.3111 307.6589270  +6.6911877     941.0247     1349.641     1223.704     78.54304     156.2165     312.3706      1.387     3.35     827.7911      55.1427     194.4171         9     1.011     0.616 -41.37   0
        11    508.5070      6.8150 307.7302405  +6.6860555     970.6772      1378.15     1907.318      78.1705     156.2787     303.8758      1.864     4.34     828.9871      55.1427     175.8223        10     1.205     0.710 -72.56  16
        12    329.4803      4.5367 307.8046973  +6.6809835     13437.37     19946.83      21001.5     78.54304     156.5276     280.9141      1.624     3.45     839.0814      55.1427      2014.84        45     1.657     1.000 -51.52  24
        13    103.1012      4.7190 307.8987415  +6.6732895     2645.626     4133.648     4554.932     78.29488     156.9001     283.0878      1.665     3.46     837.9751      55.1427     417.0898        25     1.528     0.909 -57.61  24
        14    424.6010      5.2733 307.7651531  +6.6838754     755.7247     1065.217     1155.412     77.79618     155.9047     289.1413      1.874     3.96     832.8356      55.1427     142.2197         8     1.189     0.446 -79.48  16
        15     94.3792      3.7849 307.9023966  +6.6733813     1695.892     2596.203     3069.937      78.1705     152.8159     271.5441      1.639     4.07     837.9568      55.1427     254.5294        19     1.429     0.875 -55.70  24
        16    464.3381      2.7204 307.7487295  +6.6862636     601.8636     877.3583     611.3784     78.54304     143.0143     256.9248      1.465     3.91     830.7427      55.1427     95.86066         6     1.266     0.346 -74.66  24
        17    798.0664      3.0556 307.6100601  +6.6973086     742.4292     983.6467     644.0622     78.54304     146.5095      261.839      1.412     3.04     827.2438      55.1427     127.2444         7     0.879     0.510 -47.58  16
        18    395.7136      2.3606 307.7772531  +6.6841076     2354.882     3200.361     3133.033     77.92115     138.5915     251.4894      1.450     3.60     834.9398      55.1427     366.9895        15     1.215     0.750 -43.90  24
        19    655.3234      1.1705 307.6694314  +6.6933082     750.2939     1038.889     1000.148      65.8765     121.6943      232.595      1.134     3.58     827.6727      55.1427     183.2504         6     1.059     0.349  -8.07  24
        20    601.6992    995.3220 307.6582683  +6.2810677      1459.56     2257.943      2610.14     78.04592     156.6519     312.8687      1.720     4.53     862.1953      55.1427     210.2948        14     1.313     0.743 -68.66   0
        21    960.5888   1020.0623 307.5084433  +6.2828530       5894.9     10543.95     11146.88     77.92115     156.2787     285.5519      1.900     4.36     856.7241      55.1427     671.2086        41     1.680     1.240 -49.80  24
        22    532.9917    993.6564 307.6868481  +6.2794533     4199.548     6492.823     7366.169     77.79617     156.4032     312.5886      1.636     3.66     862.5697      55.1427     616.1351        27     1.417     1.064 -51.84   0
        23    642.6441    992.9430 307.6413498  +6.2834211     1419.503     2508.508     2493.201     78.29488     156.4654     312.8376      1.768     5.12     860.8077      55.1427     207.9722        18     1.554     0.780 -46.49   0
        24     67.3324    992.3283 307.8802035  +6.2643587     982.9777     1362.921      1187.29     78.41905     156.5898     312.8376      1.549     5.28     860.4004      55.1427     146.7756        11     1.298     0.713 -31.45   0
        25    486.1450    990.1422 307.7064146  +6.2793336     2341.452     3668.381     4013.963     78.54304     156.5276     312.8687      1.631     3.92     862.5234      55.1427     334.5978        19     1.400     0.814 -56.27   0
        26    920.5836    982.3333 307.5263160  +6.2970946     41076.48     68035.75     73026.82     77.92115     156.4032     312.7442      1.811     3.81     856.8066      55.1427     4864.543        77     1.771     1.280 -56.11   0
        27    227.8618    980.8134 307.8139525  +6.2745133     1701.949     2650.446      2449.28     77.92115     156.2787     312.6198      1.635     4.33     862.1458      55.1427     263.3317        19     1.462     0.874 -53.31   0
        28    766.6985    974.0721 307.5904811  +6.2953632     6591.252     10710.25     11857.51      78.1705     156.5898     312.8376      1.759     3.69      858.929      55.1427     902.4705        39     1.749     1.058 -61.50   0
        29    626.8468    978.5211 307.6483928  +6.2888464     961.0057     1099.056     1452.316     78.41905     156.5276     312.8064      1.429     5.10     861.4002      55.1427     118.2835        11     1.116     0.699 -50.63   0
        30    116.4190    979.2253 307.8602693  +6.2714205     610.0663     811.2012     672.5466     77.92115     156.2165     312.7442      1.464     3.20     860.3795      55.1427     108.6702         5     0.717     0.478  76.96   0
        31    818.4972    976.1342 307.5689069  +6.2962436     2308.168     3849.177     4359.168     78.41905     156.5276     312.8687      1.832     3.77     858.3238      55.1427     303.5326        24     1.410     1.016 -46.46   0
        32    553.3461    973.4995 307.6790759  +6.2884574     928.1769     1412.274     1370.422     78.29488     156.4654     313.0863      1.456     3.66     862.3486      55.1427      138.676        10     1.063     0.636 -38.82   0
        33    236.1453    973.0667 307.8107751  +6.2779899     1393.341     2028.333     2285.572     78.41905     156.4032     312.8064      1.479     3.62     862.1216      55.1427     243.5992        16     1.305     0.793 -54.23   0
        34    200.3344    972.7259 307.8256529  +6.2769267     896.7592     1483.291     1538.426     78.54304     156.4654     312.8376      1.669     5.52     861.3022      55.1427     136.7214        10     1.350     0.635 -62.84   0
        35    954.8829    969.0853 307.5125197  +6.3037094     6381.567     10750.76     11171.35      78.1705      156.714     312.9308      1.808     3.74     855.4398      55.1427     767.5715        38     1.644     1.109 -53.50   0
        36     61.1888    970.9012 307.8834779  +6.2729979     2913.387     4336.099     4671.263     78.17049     156.1542     312.6198      1.624     3.67     860.3362      55.1427     427.1617        20     1.323     0.847 -53.95   0
        37    211.1887    964.7636 307.8214157  +6.2805789     700.2134     1237.716     1110.636     77.92115     156.2787     312.5263      1.566     4.29     861.3461      55.1427      109.649         6     1.083     0.484 -26.10   0
        38    637.3684    963.3515 307.6445344  +6.2954617     881.5129     1065.464      884.866      78.1705     156.4654     312.7753      1.584     4.60     860.9841      55.1427     142.5688         9     1.032     0.723 -38.30   0
        39    928.9055    960.8680 307.5235802  +6.3062348     2029.632     3447.279     2322.935     78.29488     156.6519     312.8687      1.833     4.50     856.0001      55.1427     254.8041        23     1.455     0.993 -39.42   0
        40    787.9056    957.6554 307.5822275  +6.3028502     1330.432       2161.8     2380.364     78.29488     156.4654     313.0552      1.694     5.80     858.4805      55.1427     183.9847        14     1.480     0.657 -63.98   0
        41    261.6464    956.9504 307.8007322  +6.2855007     4483.759     6612.652     6575.264     78.41905      156.341     312.8997      1.554     3.56     862.4139      55.1427      661.814        27     1.489     0.874 -52.75   0
        42    649.4666    956.6079 307.6397382  +6.2986509     4654.813     7024.217     7023.978     77.92115     156.2165      312.682      1.638     3.73     860.5251      55.1427      619.605        25     1.433     0.901 -53.03   0
        43    471.7978    955.0662 307.7135514  +6.2933339     1126.487     1870.096     2092.585     77.79617     156.1542     312.6198      1.734     5.33     862.0806      55.1427     168.8269        12     1.228     0.704 -53.62   0
        44     30.3051    954.3849 307.8968567  +6.2787765     2153.649     3235.243     2966.165      78.1705     156.2165     312.6509      1.636     4.51      860.417      55.1427     280.3077        19     1.488     0.771 -51.49   0
        45    881.6781    952.9167 307.5434544  +6.3079405     1001.658      1511.52     1692.225     78.54304      156.776     312.9308      1.717     4.88     856.8474      55.1427     116.8038        10     0.929     0.835  66.57   0
        46    952.7000    950.9022 307.5140351  +6.3111438     610.4858     967.4742     1058.501     78.41905     156.8381      312.682      1.998     5.95     854.9598      55.1427     84.62402         8     1.194     0.834 -69.33   0
        47    297.5323    950.3050 307.7860584  +6.2894500     906.4495     1234.839     949.7634     78.29488     156.5898     312.8687      1.550     4.95     862.9388      55.1427     147.6713        13     1.339     0.768 -54.44   0
        48   1005.4243    949.4607 307.4921931  +6.3134984     905.8622     1734.436     1396.702     78.04593     156.4032     312.7442      1.959     6.18     853.3994      55.1427     103.7981        12     1.183     0.907 -23.12   0
        49    574.0830    949.1183 307.6712866  +6.2992183     1776.567     2546.916     2294.006      78.1705      156.714     312.9308      1.531     3.87     862.0937      55.1427     256.7509        15     1.263     0.756 -41.54   0
        50    613.3969    945.6924 307.6550800  +6.3019497     1198.427      1596.39     583.2803     78.04592     156.1542     312.5886      1.508     4.38     861.8307      55.1427      158.152        15     1.279     0.822 -50.36   0
        51     63.1652    945.8575 307.8835038  +6.2834035     731.2091     1159.018     1791.236     78.29488     156.4654     312.8687      2.073     4.56     860.2487      55.1427     120.1949         9     0.991     0.763 -47.36   0
        52    293.0052    943.2372 307.7881762  +6.2922159     1323.801     1677.774     1513.248     77.54562     156.2165     312.6198      1.402     3.90     862.9006      55.1427     174.8905        11     1.021     0.707 -66.98   0
        53    760.4075    939.2706 307.5942610  +6.3095212     882.5827     1454.221     1741.907     77.92115     156.0918     312.7442      1.847     5.53     858.7426      55.1427     143.8186        11     1.477     0.584 -50.22   0
        54    433.5110    933.1573 307.7301840  +6.3010948     2188.766     3295.032     3243.562     78.41905      156.341     312.8687      1.589     4.58     861.8028      55.1427     304.3908        18     1.556     0.725 -45.54   0
        55    106.8873    934.7599 307.8657281  +6.2894571     452.8658     581.2326     402.9745     78.41905     156.4032     312.8687      1.181     3.46     859.9229      55.1427     91.88342         5     1.024     0.338 -44.29   0
        56    602.5863    933.2262 307.6599873  +6.3067344     606.9811     628.7887     164.3612      78.1705     156.2787     312.7753      1.364     4.87     861.9425      55.1427     103.3273         7     1.199     0.561 -51.29   0
        57    335.1414    931.5388 307.7710776  +6.2984610     10013.41     15018.11     15935.62     78.41905     156.4032     312.8687      1.589     3.58     862.5092      55.1427     1427.029        38     1.534     1.011 -47.19   0
        58    255.2211    930.4578 307.8042932  +6.2962223     7419.508     10982.98     11017.48     78.04592      156.341     312.6509      1.595     3.55      861.683      55.1427     1104.876        32     1.535     0.928 -51.73   0
        59    174.1571    928.8098 307.8380025  +6.2941770     520.3542     759.7651     726.0659     77.92115     156.2787     312.5886      1.235     3.99     859.6613      55.1427     96.19135         6     0.796     0.571 -57.10   0
        60    897.6926    936.0085 307.5373723  +6.3154562     6681.615      10595.5     11119.48     78.04592     156.1542     312.6509      1.701     3.66     856.1119      55.1427     839.3601        36     1.607     1.073 -56.43   0
        61    583.3289    924.9341 307.6682612  +6.3095128     1122.145     1543.209     1226.589     78.41905     156.5276     312.8376      1.562     4.57     861.8009      55.1427     145.4795        12     1.238     0.692 -26.88   0
        62    913.4420    921.1857 307.5313301  +6.3221020     1029.999     1829.173      2220.17     77.79617     156.2787     312.5886      2.315     5.63     855.3859      55.1427     132.6863        14     1.287     1.049 -10.04   0
        63    869.7647    920.2691 307.5494952  +6.3210216     684.4599     1109.769     512.3299     78.29488     156.4654     312.9619      1.622     5.09     856.6928      55.1427     114.7216         8     0.956     0.767 -76.24   0
        64    217.2448    920.4808 307.8203958  +6.2990646     708.4805     1108.783     1317.232     78.41905     156.4654     312.8064      1.569     4.63     860.5121      55.1427     90.42432         7     0.875     0.697  77.02   0
        65    146.0880    920.4707 307.8499368  +6.2966755     606.8228     751.5276     980.7033     78.54304      156.714     312.8376      1.522     5.34      859.431      55.1427     92.13654         9     1.276     0.631 -28.15   0
        66    411.9789    918.9857 307.7396006  +6.3062231     600.9397      889.662     1042.869      78.1705     156.2165     312.7442      1.540     3.82     861.4717      55.1427     108.4188         6     0.878     0.676 -39.24   0
        67    573.2263    915.0735 307.6727871  +6.3132454      711.514     1224.373      998.618     78.04592      156.341     312.7753      1.969     5.29     861.4329      55.1427     98.88135         9     1.257     0.629 -43.25   0
        68    749.8304    913.9870 307.5995010  +6.3196061     1776.506     2696.933     3013.707     77.92115     156.2787     312.7753      1.577     3.86     858.6478      55.1427     263.5737        18     1.349     0.818 -55.71   0
        69    980.9562    909.8969 307.5036769  +6.3290167     1378.347       2100.6     3315.932     78.41905     156.4032      312.993      1.632     3.94     853.0754      55.1427     195.0006        15     1.258     0.803 -55.26   0
        70    613.8409    910.4328 307.6560809  +6.3165219        838.1      997.892     1144.146      78.1705     156.4032      312.682      1.339     4.68     861.0394      55.1427     121.4776         8     0.941     0.659 -53.23   0
        71    534.7122    909.9449 307.6889497  +6.3140721     1303.012     1749.578     1492.025     78.41905      156.341      312.993      1.417     3.92     861.2648      55.1427     195.0206        11     1.129     0.655 -60.10   0
        72      1.2740    910.8120 307.9103817  +6.2957872     577.3004     637.3733     658.7685     67.04772     123.2831     234.1793      1.219     2.49     859.7869      55.1427     147.6754         5     0.846     0.441  84.69  24
        73    668.2816    907.3910 307.6335803  +6.3196006     2493.396     3707.549     3629.571     78.04592     156.0918      312.682      1.554     3.66     859.5403      55.1427     365.4972        20     1.429     0.796 -48.13   0
        74   1019.0499    906.3800 307.4879783  +6.3317397     503.8734     840.1445     794.5259     77.92115     156.5276     296.1897      1.768     4.62     851.5949      55.1427     76.47021         5     1.073     0.564 -72.16  16
        75     64.7888    903.3532 307.8842662  +6.3010059     2977.311     4610.742     4447.304     77.92115     156.2787     312.5263      1.677     4.04      859.266      55.1427     429.7469        24     1.492     0.991 -59.29   0
        76    829.2040    903.6868 307.5668916  +6.3265126     724.2831      1116.69     973.1808     77.92115     156.1542     312.5575      1.720     3.99     857.0837      55.1427     101.1448         7     0.986     0.557 -72.76   0
        77    208.2722    902.3824 307.8247316  +6.3062348     2173.533     3444.376     3273.414     77.92115     156.4032     312.7753      1.643     4.07     860.2629      55.1427     325.1803        20     1.513     0.778 -47.52   0
        78     82.3266    902.7458 307.8770059  +6.3018471     1921.207     2927.698     2964.143     78.29488      156.341     312.8376      1.643     4.16     859.2272      55.1427     307.9799        16     1.453     0.660 -51.98   0
        79    946.4390    902.6844 307.5182499  +6.3308424     728.4777     1180.268     838.3531     78.41905     156.4032     312.7753      1.642     6.00     854.2054      55.1427     108.9468         8     1.393     0.726 -39.67   0
        80    662.9287    896.5916 307.6361656  +6.3238801     7211.293     10867.33     11611.72     77.92115     156.0295     312.7131      1.615     3.54     859.5237      55.1427     1084.774        33     1.550     0.975 -56.18   0
        81    242.1917    899.2320 307.8107559  +6.3086759     864.3256     1150.031     773.5366     77.92115     156.2787     312.6508      1.441     3.81     860.9572      55.1427      144.555        11     1.174     0.596 -62.48   0
        82    347.4932    898.5761 307.7670606  +6.3124846     946.0836     1404.447     2082.655     78.54304     156.2787      312.682      1.898     4.65     861.6334      55.1427     136.7892        12     1.166     0.849 -53.65   0
        83    800.1649    897.2912 307.5791630  +6.3281824     769.8406     1148.044     1246.907     78.54304      156.341     312.8687      1.435     4.44     857.5894      55.1427     118.5586         7     1.015     0.553 -55.08   0
        84     23.0425    894.5170 307.9018957  +6.3032478     1181.677     1460.849     1891.912     78.41905     156.4654     312.7753      1.349     3.32     859.0195      55.1427     191.3773        11     1.050     0.682 -54.63   0
        85    900.8013    892.6191 307.5375359  +6.3334742      2701.43     4263.325     4538.408     78.04592     156.0295     312.5575      1.721     3.85     855.3857      55.1427     300.6559        23     1.372     1.006 -55.63   0
        86    775.4792    893.6089 307.5895359  +6.3288773     502.0078     708.5906     521.5368     78.04593     156.0918      312.682      1.572     4.19     857.9409      55.1427     85.33832         6     1.082     0.462  78.81   0
        87     36.3184    892.8474 307.8964407  +6.3043843     1090.253     1733.275     1474.473     78.41905     156.4654     312.8687      1.628     4.84     858.9281      55.1427     182.2856        12     1.407     0.624 -51.78   0
        88    345.9399    889.6920 307.7680048  +6.3161003     17028.35     25244.22     26876.52     78.29488     156.4032     312.9308      1.557     3.46     861.3981      55.1427     2625.166        49     1.576     1.050 -49.92   0
        89     80.3492    890.8152 307.8782300  +6.3067061     1253.486     2059.085     1945.223     77.79617     156.4654     312.5886      1.696     5.29     858.8437      55.1427     182.1522        17     1.444     0.814 -52.45   0
        90    216.7227    889.1384 307.8216702  +6.3119867     1307.079     1879.786     1932.527     78.66682     156.5276     312.8376      1.494     3.32      860.412      55.1427     189.6114        12     1.034     0.742 -41.19   0
        91    396.7641    888.6470 307.7469393  +6.3182380     694.5362     922.2114      1119.57     78.04592     156.5276     312.7753      1.525     4.31     860.6975      55.1427     111.9218         7     1.187     0.445 -64.63   0
        92    423.8336    880.6655 307.7359694  +6.3224417     1100.001     1517.047      1162.58     78.29488     156.4654     312.8064      1.467     4.51     860.1357      55.1427     176.4911        11     1.193     0.644 -67.52   0
        93    109.2044    880.3877 307.8666029  +6.3119824     1767.498     2670.011     2965.448     78.04592     156.2165     312.7131      1.698     4.37     858.6406      55.1427     258.8447        14     1.347     0.662 -54.28   0
        94    675.4216    881.4124 307.6314886  +6.3305653     736.5209      1089.48      1587.61      78.1705     156.2165     312.7442      1.655     4.72     859.1241      55.1427     102.9684         7     0.959     0.660 -22.97   0
        95    455.6240    879.3675 307.7228144  +6.3240442     481.3976     645.2261     461.2702     77.79618      156.341     312.6509      1.112     4.21     860.0684      55.1427     75.39496         5     1.248     0.404 -52.60   0
        96    504.2567    876.4050 307.7027227  +6.3268983     653.6356     1048.243     1326.214     77.79618      156.341     312.5575      1.627     3.16     859.9832      55.1427     130.3855         6     0.814     0.555 -61.69   2
        97    677.5208    876.3414 307.6307874  +6.3327292     956.9036     1508.685     1682.273     78.54304     156.4654     312.8064      1.802     3.91     859.0272      55.1427     156.7437        11     1.137     0.769 -12.23   0
        98    890.9217    874.3891 307.5422490  +6.3406708     1955.088     3134.426     3208.602     78.04592     156.0918     312.7131      1.720     4.78     855.2635      55.1427     248.9426        23     1.552     0.979 -39.19   0
        99     92.6742    873.7772 307.8736889  +6.3141551     2653.509     3918.688     4148.721     78.04592     156.2787     312.8064      1.637     3.61     858.3336      55.1427     389.5556        22     1.475     0.814 -52.71   0
       100    861.7449    874.0450 307.5543748  +6.3398381     2064.124     2973.975     2794.485     78.41905     156.4654     312.8376      1.508     3.31     855.6896      55.1427     314.8002        18     1.217     0.908 -62.33   0
       101    825.1058    873.4359 307.5696079  +6.3388652     2997.656     4471.807     4351.283     78.54304      156.341     312.9308      1.587     3.89     856.7574      55.1427      372.818        23     1.468     0.854 -55.15   0
       102    560.9958    864.9515 307.6795506  +6.3335290     345640.2     515611.3     543462.9     77.79617     156.2787     312.4952      1.549     3.66     859.5513      55.1427     52304.32       168     1.763     1.201 -53.91   4
       103    340.7505    872.0764 307.7707531  +6.3231986     672.3359     782.9741     1131.695     78.29488     156.5276     312.8375      1.219     3.52     860.9379      55.1427     117.3578         5     0.725     0.684 -85.59   0
       104    405.2927    867.5321 307.7441096  +6.3272417     8161.064     12031.02     12828.82     78.29488     156.5898     312.8687      1.613     3.60     859.9016      55.1427     1155.484        33     1.465     0.989 -50.36   0
       105    648.9316    867.9409 307.6429397  +6.3352403     1230.279     1717.183     1378.028     78.54304     156.4032     312.8375      1.446     3.55     859.2141      55.1427     191.4637        12     1.093     0.735 -56.38   0
       106    348.4353    865.8940 307.7677709  +6.3260092     12973.28     19289.64     20154.75     78.54304      156.341     312.9308      1.574     3.53     860.7504      55.1427     1960.976        40     1.580     0.963 -50.55   0
       107    899.3000    861.1192 307.5392151  +6.3464293     5209.834      8347.76     9186.651     78.41905     156.9621     312.9308      1.739     3.76     854.9368      55.1427     698.1304        31     1.518     1.024 -47.24   0
       108    666.9320    862.0008 307.6356656  +6.3382954     3611.759     5231.092     5321.396     77.79617     156.0295     312.6198      1.522     3.35     858.9617      55.1427     569.5696        22     1.398     0.852 -51.76   0
       109    738.8837    858.4429 307.6059107  +6.3421722     887.2089     1298.756     1254.044     78.41905     156.4654     312.7753      1.548     3.37     857.8364      55.1427     194.3405        11     1.111     0.889 -50.36   0
       110    641.7723    856.1470 307.6463086  +6.3398698     3433.452     5074.084     5789.508     78.17049     156.5898     312.7442      1.558     3.69     859.0075      55.1427     543.5245        23     1.420     0.853 -47.72   0
       111    830.2226    855.3894 307.5680888  +6.3464870     1593.561     2469.643     3134.782     78.04592     156.2787     312.7131      1.680     4.68     856.2716      55.1427     213.3625        16     1.412     0.744 -54.42   0
       112    751.4924    856.7170 307.6007335  +6.3433065      559.078     876.2526     1031.563      78.1705      156.776     312.9619      1.561     3.44     857.7012      55.1427     124.7524         5     1.060     0.322 -67.74   0
       113    633.9154    851.8528 307.6497151  +6.3413797      1817.77      3771.65     4888.816     78.41905     156.4032      312.993      2.355     8.55     858.9868      55.1427     319.0851        30     2.634     0.775 -60.19   0
       114    184.6954    855.8403 307.8360907  +6.3246568     589.3907     776.2422     601.7549     78.41905     156.4032      312.993      1.321     4.88     859.4146      55.1427     82.36731         7     1.343     0.502 -43.36   0
       115    957.4046    853.9147 307.5153308  +6.3513440     724.1147     952.8348     851.0613     77.92115     156.0918     312.5263      1.387     4.68      852.918      55.1427     85.98199         7     1.119     0.555  61.46   0
       116    455.2885    871.6606 307.7232132  +6.3272148     493.0414     781.7772     841.7223     78.41905     156.5898     312.8687      1.564     4.52     859.8326      55.1427     94.34119         5     0.815     0.714  73.15   0
       117    917.6519    849.3486 307.5319897  +6.3519020     2921.939     5444.817     5485.197     78.54304      156.341     312.8376      1.931     7.84     854.3364      55.1427     888.5427        24     1.936     0.888 -40.25   0
       118    328.6458    849.5511 307.7765380  +6.3320918      1008.28     1437.274     1114.863     78.41905      156.341     312.8687      1.511     4.62      860.421      55.1427     159.1155        12     1.289     0.634 -37.28   0
       119    376.4591    844.7539 307.7568483  +6.3356779     2669.446     4137.955     4465.109     78.41905     156.4654     312.9308      1.624     3.69     859.9471      55.1427     398.9939        19     1.389     0.866 -51.10   0
       120    512.6740    834.5201 307.7006374  +6.3444731     3310.116     4726.682     4761.537     78.66682      156.714     312.8997      1.575     3.75     859.1732      55.1427     496.8272        24     1.481     0.872 -53.47   0
       121    857.5434    833.4827 307.5574796  +6.3564446     1056.651     1498.972     1324.641     78.41905     156.4654     312.9308      1.389     4.98      855.199      55.1427     197.1483        11     1.302     0.610 -55.71   0
       122    578.0911    832.0773 307.6735583  +6.3476743     766.8039     1165.979     941.1919      78.1705      156.714     312.8687      1.684     5.48     858.8771      55.1427     108.4505        10     1.455     0.583 -59.28   0
       123    559.4257    830.6812 307.6813552  +6.3476252     6394.978     9610.663     10320.64     78.29488     156.2787     312.8376      1.607     3.60     858.8835      55.1427     975.3861        30     1.484     0.908 -52.59   0
       124    566.2703    829.9988 307.6785363  +6.3481363     1306.918     2055.399     2605.288     77.79617     156.0295      312.682      1.855     3.95     858.8546      55.1427     185.7651        14     1.273     0.700 -55.71   0
       125    271.1147    830.4493 307.8010681  +6.3380450     709.4496     1022.356     579.4135     78.41905     156.4654     312.8997      1.524     3.75     859.8092      55.1427     125.4411         6     1.203     0.336 -49.97   0
       126    119.0434    829.1537 307.8642489  +6.3334653     1422.898     2382.015     2163.305     78.41905     156.4654     312.7753      1.747     5.07     858.1041      55.1427     230.9647        17     1.420     1.138 -72.69   0
       127    477.2764    829.5164 307.7155028  +6.3453519     1732.167     2396.167     2252.852     78.54304      156.776     312.9308      1.472     3.83     859.3246      55.1427     235.7133        14     1.202     0.717 -48.45   0
       128    894.9729    828.8495 307.5420936  +6.3596079     1376.167     2060.402     2217.318     78.04592     156.5276     312.7753      1.644     3.62     854.2663      55.1427     181.0885        13     1.115     0.759 -29.91   0
       129    695.1228    827.5693 307.6251174  +6.3534545     875.3272      1248.17     702.5038     78.29488     156.5276     312.8376      1.394     5.50     857.9331      55.1427     135.8931        10     1.266     0.673 -51.82   0
       130    530.1182    824.5620 307.6937296  +6.3491693     20685.18     30222.04     31149.44     78.41905     156.5276     312.8064      1.553     3.53     858.8979      55.1427     3040.235        49     1.577     1.009 -52.81   0
       131    371.0868    826.7223 307.7596865  +6.3429420     657.8183     821.4614     619.3633     78.41905      156.776     312.9308      1.521     4.56     859.6604      55.1427     117.3348         7     1.166     0.557 -50.78   0
       132    943.7111    822.9593 307.5220538  +6.3636674     3804.418     5749.871     5642.295     78.41905     156.4032     312.8687      1.638     3.71     852.6108      55.1427     523.7894        27     1.389     1.002 -58.22   0
       133     64.3305    820.7859 307.8872471  +6.3350779     503.2813     674.2273     832.0349     77.92115      156.341     312.7442      1.547     3.53     857.2339      55.1427     101.4615         5     0.800     0.448 -77.63   0
       134     40.4327    814.9586 307.8973658  +6.3366788     1490.323     2189.742     2115.975     78.17049     156.4654     312.7131      1.524     4.09     856.6527      55.1427     224.5566        16     1.377     0.709 -48.32   0
       135    322.7162    813.2199 307.7802247  +6.3468921     3471.152     5169.539     5057.449     78.04592     156.1542     312.8064      1.539     3.56     859.5065      55.1427     587.3339        23     1.494     0.820 -45.16   0
       136    788.2941    809.1831 307.5870484  +6.3641624     57183.35     85245.16     90062.51      78.1705     156.2787      312.682      1.584     3.71     855.9982      55.1427     7811.287        73     1.630     1.106 -51.75   0
       137     22.6312    811.3406 307.9048788  +6.3375728     2362.634     3535.755     3612.528      78.1705     156.4654     312.8064      1.536     3.48     856.1938      55.1427     371.2784        21     1.458     0.789 -49.28   0
       138    727.4018    810.5124 307.6122875  +6.3615769     686.1406     1013.465     1320.549     77.67101     156.0918     312.5575      1.611     3.29     857.5324      55.1427     137.3926         5     1.040     0.609 -36.85   0
       139    245.0191    785.6616 307.8134138  +6.3556586     749371.4      1717025      1920781     78.04592     156.4032     312.7131      2.308     6.31     858.0717      55.1427     63455.67       621     2.855     2.075 -72.69   4
       140    913.5907    804.4428 307.5351811  +6.3703065     8696.723      13006.7     13701.97     77.92115     156.2787     312.5886      1.612     3.45     853.0314      55.1427     1248.134        33     1.498     0.973 -49.29   0
       141    716.5240    803.7793 307.6170303  +6.3639928     22322.33     33245.16     35485.26     78.04592     156.2787     312.7753      1.598     3.57     857.4695      55.1427     3437.647        50     1.586     1.032 -51.44   3
       142    710.2329    800.2736 307.6197603  +6.3652296      92498.8     134771.6     141492.2     78.29488     156.4654     312.8064      1.557     3.60     857.3859      55.1427     13439.98        85     1.642     1.091 -51.78   2
       143    355.0683    801.1232 307.7672000  +6.3529728     21537.48      31655.1     33357.33     78.54304     156.5898     312.8064      1.546     3.33     859.1682      55.1427     3391.142        48     1.593     1.009 -54.63   0
       144    416.9677    798.9998 307.7415707  +6.3559276     22854.04     34104.93     36074.43       77.671     156.2787     312.5886      1.519     3.53     859.0236      55.1427     3570.497        53     1.603     1.018 -53.52   0
       145    643.8819    800.7318 307.6472951  +6.3628194     874.4109     1317.236     1745.548     78.54304      156.714     312.8687      1.373     4.29     857.8201      55.1427     170.4978         9     1.300     0.465 -65.15   0
       146    404.3809    801.1956 307.7467229  +6.3545986      1520.91     2023.435     2259.016     78.04592     156.0918     312.6509      1.412     3.47     859.1401      55.1427     238.4133        13     1.177     0.671 -53.38   0
       147    431.8993    807.6469 307.7350798  +6.3528586      889.584     1216.765     898.4235     78.41905      156.341     313.0552      1.563     4.67     859.1759      55.1427     125.6531         9     1.079     0.810 -67.79   0
       148    953.9910    798.0884 307.5186186  +6.3742790     1896.586     3037.602     2985.307     78.04592     156.1542     312.6198      1.678     4.09     851.5616      55.1427      304.314        21     1.504     0.816 -56.21   0
       149    910.5016    795.8143 307.5367530  +6.3737658     6775.325     10287.13     11269.92     78.29488     156.2165     312.6198      1.632     3.61     852.9373      55.1427     914.4495        33     1.545     0.966 -54.97   0
       150    651.0245    794.8503 307.6445270  +6.3654868     6586.008     9460.166     9974.179     78.04592     156.4654     312.7442      1.498     3.54     857.4385      55.1427     1013.417        28     1.460     0.865 -52.85   0
       151    883.2222    796.4498 307.5480590  +6.3725922     793.4194     977.2214     718.6959     77.92115     156.5276     312.7131      1.253     4.08     853.9335      55.1427     166.6172         7     1.128     0.487  -5.86   0
       152    141.2056    794.7336 307.8562102  +6.3484214     645.4315     1126.863     1248.371     77.92115     156.1542     312.6509      1.575     4.63      857.663      55.1427     111.3641         7     1.180     0.515 -72.76   0
       153    439.6798    792.8372 307.7323481  +6.3592340     1819.687     2747.202     2411.006     78.29488     156.5276     312.8376      1.481     3.42     858.6764      55.1427      293.327        15     1.291     0.792 -55.29   0
       154    164.6965    792.5764 307.8465299  +6.3501024     863.8553     1327.845     1121.365     78.54304     156.2165     312.7131      1.767     5.61     857.6273      55.1427     117.6536        12     1.265     0.701 -46.70   0
       155    739.4443    789.1282 307.6080053  +6.3708085     607.2805      630.719     537.8405     78.29488     156.4654     312.8687      1.354     4.82     856.8269      55.1427     73.42249         7     1.010     0.652 -42.06   0
       156    604.1047    786.9371 307.6642751  +6.3671824     948.0841     1564.318     2156.693     78.29488     156.5898     312.8687      1.869     4.88     857.5436      55.1427     153.6342        12     1.459     0.539 -46.79   0
       157    879.4194    786.1360 307.5499839  +6.3767235     729.1484     813.7946     896.4728     78.04592     156.4654      312.682      1.464     5.19     853.7679      55.1427     121.1847         8     1.275     0.598 -61.26   0
       158    686.1698    784.8606 307.6302696  +6.3707878     2567.787     3600.127     3579.808     78.17049     156.4654     312.8064      1.470     3.72     856.7044      55.1427     348.4608        20     1.377     0.819 -55.30   0
       159    419.8992    781.6393 307.7409384  +6.3631933     56084.71     82645.95     86739.81     78.41905      156.341     313.0552      1.553     3.48     858.0931      55.1427     9071.644        69     1.637     1.056 -50.70   0
       160    155.6082    785.4182 307.8505450  +6.3527519     965.3811     1278.487     1026.753     78.04593     156.2165      312.682      1.422     4.03     857.1245      55.1427     165.3683         9     1.206     0.525 -48.86   0
       161    130.3472    785.2482 307.8610390  +6.3519720     1147.634     1677.314     1652.796     78.54304     156.4032     312.8376      1.681     3.92     857.1624      55.1427     171.8032        12     1.218     0.712 -49.40   0
       162    537.6195    780.7052 307.6920906  +6.3675274      7541.16        10737     11476.05     78.29488     156.2787     312.6509      1.550     3.56     857.1952      55.1427     1160.762        32     1.574     0.874 -53.38   0
       163    963.5396    782.8870 307.5151631  +6.3808740     735.1835      971.847     955.3146     78.54304     156.5898     312.9619      1.373     5.14     850.9852      55.1427     125.9384         9     1.046     0.713 -47.00   0
       164    454.5238    779.1771 307.7266447  +6.3653716     4773.826     7293.325     8124.503     78.04592     156.2787     312.7442      1.612     3.61      857.879      55.1427      679.959        26     1.388     0.904 -48.20   0
       165    782.8892    777.2917 307.5903631  +6.3771486     11951.76     17555.59     17928.31     78.41905     156.9621     312.9308      1.559     3.52     855.1068      55.1427     1859.513        38     1.503     0.990 -50.81   0
       166    677.8366    776.3983 307.6340140  +6.3740026     582.4758     896.8704     1071.137     77.54562     156.2787     312.6509      1.614     4.31     856.2956      55.1427     87.42572         7     0.886     0.598 -80.90   0
       167    451.1570    772.5613 307.7282654  +6.3679901     2451.736     3819.446     4454.014      78.1705     156.4654     312.7131      1.636     3.76     857.5496      55.1427     418.8512        21     1.483     0.799 -45.50   0
       168     12.4037    773.0025 307.9104216  +6.3530558     1169.351     1608.451     1573.573     77.79617     156.0295     312.6198      1.397     2.76     855.7917      55.1427     206.3925        10     0.957     0.626 -34.39   0
       169    804.5785    771.4197 307.5815540  +6.3802981     1238.579     1897.616     1763.215      78.1705     156.4032     312.7753      1.690     3.55     854.3948      55.1427     197.0193        12     1.143     0.675 -48.07   0
       170    140.6102    769.2435 307.8573184  +6.3589249     11926.61     17920.09     19672.32     77.92115     156.2787     312.5575      1.614     3.52     856.3198      55.1427     1855.425        42     1.646     0.979 -47.07   0
       171    972.4545    770.3479 307.5118813  +6.3863486     611.9068     806.8101     1318.412     78.54304     156.4032     312.8376      1.447     3.41     850.5076      55.1427     115.7744         5     0.996     0.337 -66.97   0
       172    148.8001    769.3546 307.8539143  +6.3591547     3039.132     4448.799     4879.705     77.67101     156.2165     312.3706      1.562     3.65     856.2525      55.1427     497.0839        21     1.457     0.834 -60.81   0
       173    928.4453    765.8460 307.5303067  +6.3867380     6576.224     9924.269     10301.07     78.41905     156.4032     312.8376      1.609     3.60     851.7823      55.1427     869.7313        32     1.454     1.022 -53.20   0
       174    132.8049    766.6454 307.8606469  +6.3597348     3001.103     4639.186     5400.989     77.79617     156.1542     312.5263      1.680     3.92     856.2906      55.1427     452.9056        23     1.420     0.865 -53.38   1
       175    977.6625    765.5735 307.5098787  +6.3884936     1493.292      2242.15     2656.555     78.04592     156.4032     312.7753      1.659     3.26     850.2524      55.1427     232.8562        13     1.090     0.747 -55.15   0
       176    683.9001    763.5268 307.6319288  +6.3795198     1750.049     2357.555     2289.279     78.17049     156.5898     312.8064      1.432     4.15     855.7504      55.1427      289.656        13     1.271     0.607 -46.76   0
       177    570.8091    762.5988 307.6789186  +6.3761152     2391.753     3628.137     3818.023     77.79617     156.1542     312.6198      1.594     3.54     856.1355      55.1427     461.9016        18     1.428     0.705 -53.77   0
       178    418.6086    762.1459 307.7421309  +6.3711980     1371.874     2069.705     2247.913     77.79617     156.4032     312.5575      1.602     4.24     857.0027      55.1427     230.9778        14     1.338     0.764 -67.80   0
       179    132.8135    760.2844 307.8608583  +6.3623613     2093.047     3301.545     3832.876     78.04592     156.2787      312.682      1.680     3.63     855.9532      55.1427     333.6331        20     1.306     0.886 -47.96   0
       180    952.0665    757.3060 307.5207843  +6.3910526     2957.942     4336.335     4273.591     78.29488     156.6519     312.8376      1.540     3.47     850.8879      55.1427     413.8647        24     1.480     0.876 -51.73   0
       181    922.6205    757.9094 307.5329914  +6.3898203     3050.026     4847.878     5292.212     78.29488     156.2787     312.7131      1.689     3.65     851.7652      55.1427     423.1735        24     1.355     1.000 -38.86   0
       182    982.8859    757.0735 307.5079944  +6.3921773     1993.777      3135.01     3638.385     78.54304      156.776     312.8375      1.676     3.63     849.9396      55.1427     283.2142        19     1.228     0.969 -48.63   0
       183    674.9119    757.0861 307.6358774  +6.3818780     1533.267     2090.666     1957.077      78.1705      156.714     312.9619      1.460     3.62     855.4324      55.1427     230.7045        13     1.146     0.790 -55.55   0
       184    125.5371    757.7822 307.8639640  +6.3631494     1381.454     1072.492     1628.438     78.04592     156.4032      312.682      0.805     1.92     855.9492      55.1427       513.77         5     0.686     0.384  55.98   0
       185    822.1059    755.3309 307.5748159  +6.3875266     1016.538     1205.494     1369.559     78.29488     156.5898     312.8687      1.293     3.35     853.6927      55.1427     158.5771        10     0.975     0.712 -60.06   0
       186    897.5907    753.0060 307.5435493  +6.3910088     625.2795     876.8762     1131.685     77.79617     156.2787      312.682      1.413     4.15     852.2834      55.1427     128.1239         6     1.047     0.469 -80.85   0
       187    247.3512    752.0547 307.8135796  +6.3696116     2022.521     2793.657     4095.104     78.41905     156.4654     312.8997      1.717     3.84     856.9497      55.1427     265.4181        19     1.285     0.893 -55.40   0
       188    684.5836    749.1837 307.6321269  +6.3854644     831.6235     1287.334     1961.678      78.1705     156.1542     312.7753      1.885     4.98      855.069      55.1427     119.1164         9     1.144     0.614 -54.20   1
       189    940.2018    747.3894 307.5260434  +6.3947507     861.0395     1502.133     1537.883     78.04592     156.1542     312.6509      1.855     4.69      851.075      55.1427     166.2504         9     1.166     0.595 -50.31   0
       190    162.8936    747.2119 307.8488105  +6.3687704      775.108     1085.701     1296.278     78.17049     156.2165     312.6508      1.482     4.67     854.8835      55.1427     123.0879         8     1.129     0.549 -56.50   0
       191    966.9402    745.1692 307.5150147  +6.3965600     2409.259     3768.068     3488.746      78.1705     156.4654     312.8064      1.608     4.18      850.215      55.1427     366.6285        24     1.481     0.922 -48.67   0
       192    914.3914    746.1027 307.5368043  +6.3944201     1210.953     1660.096     2156.771     78.17049     156.0918     312.6198      1.517     3.49     851.7357      55.1427     189.0088        12     1.106     0.700 -50.47   0
       193    267.8465    747.0378 307.8052389  +6.3723718     828.1653     1295.393     1419.817      78.1705     156.4032     312.7131      1.629     4.53     856.8315      55.1427     137.7574         8     0.870     0.670 -57.33   0
       194    686.4249    744.3482 307.6315247  +6.3875224      1028.46     1594.467     2138.913     78.04592     156.4654     312.7442      1.744     4.10     854.8419      55.1427     133.1241        11     1.170     0.648 -52.67   1
       195   1008.5935    738.7101 307.4979344  +6.4006169      1745.38     2657.314     2306.154     77.92115     156.1542     312.6198      1.585     3.78     848.8279      55.1427     224.9987        17     1.262     0.825 -57.91   0
       196    810.0734    736.9214 307.5804300  +6.3947250     1208.093     1584.767     1540.799     78.66682      156.714     312.8687      1.409     4.55     853.2794      55.1427     167.5844        13     1.333     0.780 -57.57   0
       197    477.6935    738.9125 307.7183799  +6.3827725     572.9747     914.3527     1016.751     78.41905     156.9001     312.8997      1.500     3.65     855.5685      55.1427     116.9692         6     0.926     0.547 -17.86   0
       198    635.4047    737.6776 307.6529344  +6.3885682     616.0191     907.9424      820.072     78.04592     155.9671     312.6198      1.329     3.13     854.8053      55.1427     100.9803         5     0.729     0.446 -69.21   0
       199    896.4006    734.2050 307.5446738  +6.3987314     1566.995     2264.663     3147.705     77.79617     156.0918     312.6198      1.637     4.37     851.8099      55.1427      221.439        15     1.239     0.781 -58.53   0
       200    871.0383    729.3926 307.5553669  +6.3998710     869.9774     1331.212     1626.508       77.671     156.2165     312.5575      1.674     2.70     852.1433      55.1427     179.7703        10     0.971     0.675 -65.13   0
       201    853.2235    725.6230 307.5628910  +6.4008321     1657.343     2291.477     1909.595     77.92115      156.341     312.8064      1.481     3.45     852.3437      55.1427     250.0139        14     1.147     0.739 -45.70   0
       202     52.2046    724.6604 307.8955311  +6.3743544     2514.799     3735.609     3644.539     77.79617      156.341     312.6198      1.602     3.85     855.6824      55.1427     355.4232        20     1.415     0.796 -48.90   0
       203    116.1783    722.9660 307.8690261  +6.3772081     850.9344     2068.029     2061.198     77.92115     156.2787     312.5886      2.345     7.52     854.8555      55.1427     147.8421        17     1.861     0.850  87.41   0
       204    464.1709    723.4583 307.7245153  +6.3886993     525.2923     729.2939     398.5535     78.04592     156.5276     312.7442      1.389     4.73     855.2184      55.1427     88.01208         7     1.039     0.611 -49.03   0
       205    570.5795    718.9724 307.6804814  +6.3941192     600.2764     792.8124     559.1023     77.92115     156.2787     312.7753      1.283     4.17     854.4191      55.1427     120.4588         6     0.817     0.607 -49.03   0
       206    665.0295    713.1600 307.6414570  +6.3996826     6771.909     10077.01      10761.8     77.92115     156.2165     312.7131      1.534     3.58     854.1446      55.1427      1122.35        29     1.471     0.879 -54.74   0
       207    611.8538    712.2949 307.6635672  +6.3982590     1335.257     2142.969     2415.834     78.29488     156.4032     313.0863      1.937     4.04     854.6282      55.1427     279.7408        14     1.402     0.650 -66.09   0
       208    533.8868    712.6445 307.6959306  +6.3955018     753.6546     965.7482      1293.49     78.41905      156.341     312.8376      1.492     5.60     854.2712      55.1427     115.5225        10     1.231     0.719 -77.31   0
       209    522.5067    712.5815 307.7006583  +6.3951463     798.2173     1277.366     1581.979     78.29488     156.2165     312.7442      1.675     3.72     854.4293      55.1427     158.4879         5     1.066     0.385 -52.02   0
       210    127.9522    708.9775 307.8646100  +6.3833795     3941.464     5950.085     6863.147     78.04592     156.4654     312.7131      1.588     3.56     854.3137      55.1427     650.8788        24     1.437     0.880 -56.07   0
       211    638.9235    708.6295 307.6524498  +6.4006790     2315.941     3464.219     4030.992     78.29488     156.5276     312.8687      1.625     3.34     854.3298      55.1427     392.7922        19     1.396     0.723 -55.49   0
       212    314.4203    709.2405 307.7871755  +6.3895416     713.2176     900.4086     1142.281     78.04592     156.2787     312.5886      1.272     4.01     855.2296      55.1427     113.5905         7     0.993     0.462 -78.62   0
       213   1002.0103    708.2912 307.5016870  +6.4129563     2544.807     3704.613     4243.344     78.17049     156.0918     312.6198      1.540     3.65     848.6953      55.1427     381.7982        19     1.299     0.838 -44.46   0
       214    781.8923    705.2816 307.5931941  +6.4068458     20988.82      30620.8     32473.25      78.1705      156.714     312.8997      1.563     3.54     852.9394      55.1427     3400.197        49     1.583     1.007 -52.28   0
       215    911.8341    705.0652 307.5392419  +6.4112778     3823.913     5478.971     5558.554     78.29488     156.4654     312.8375      1.529     3.51     850.5621      55.1427     562.5695        26     1.522     0.868 -54.73   0
       216    480.9556    705.6232 307.7181461  +6.3966256     1412.275     2068.768     1943.137     77.92115     156.4032      312.682      1.560     4.10     854.9124      55.1427     222.4803        15     1.209     0.833 -50.50   0
       217    282.7724    705.3873 307.8004465  +6.3900690     576.9081     895.2218     644.0721     77.92115     156.2787     312.7442      1.754     6.04     855.1239      55.1427     122.4107         8     1.507     0.681 -58.92   0
       218    509.4914    705.4332 307.7063033  +6.3976611     1024.977     1485.335     1219.278     78.54304      156.341     312.8687      1.651     3.44     854.4982      55.1427     174.7653        10     1.229     0.594 -51.48   0
       219    326.3929    704.8129 307.7823534  +6.3917718     660.7074     934.9124     1271.899     78.04592     156.2787     312.7442      1.598     4.90     855.0407      55.1427     115.0844         7     1.074     0.882  45.81   0
       220    255.3821    698.7751 307.8120428  +6.3918782     6408.888     9492.678     9656.161      78.1705      156.341     312.7753      1.544     3.51     854.6924      55.1427     989.5762        29     1.476     0.883 -49.87   0
       221    662.4680    698.0308 307.6430292  +6.4058432     7256.544     10697.28     11102.03     78.29488     156.4654     312.8064      1.524     3.50     853.9111      55.1427      1112.44        33     1.499     0.902 -55.16   0
       222    644.9064    698.9283 307.6502915  +6.4048846      878.753     1215.623      1424.77     78.29488     156.5276     312.8997      1.337     4.37     854.1191      55.1427     132.4822         8     0.897     0.605 -51.49   0
       223    357.5722    697.5756 307.7696507  +6.3958070      845.677     1325.777     1314.987     77.92115      156.341      312.682      1.819     4.90     854.7061      55.1427     129.5397        10     1.102     0.708 -51.86   0
       224    922.5012    690.7374 307.5352926  +6.4175495     1320.684     2006.466     1736.065      78.1705     156.5276     312.8997      1.653     3.84     849.9304      55.1427      221.744        16     1.341     0.770 -53.02   0
       225    734.1080    686.4351 307.6136698  +6.4130284     3732.625      5822.39     6308.707     78.54304      156.341     312.8687      1.640     3.84     852.9772      55.1427     513.9938        25     1.474     0.895 -59.51   0
       226    689.3510    686.9560 307.6322380  +6.4113155     1159.416     1705.629     1540.552     78.41905     156.4032     312.8376      1.572     4.29     853.4285      55.1427     179.8388        11     1.204     0.605 -51.60   0
       227   1000.4274    683.0607 307.5031894  +6.4233204     8970.165     13450.02     13541.18     78.04592     156.5276     312.7442      1.577     3.50     848.4591      55.1427      1208.28        34     1.478     0.992 -51.29   0
       228    938.9520    683.4122 307.5287066  +6.4211232     2476.939     3606.073     4145.639     77.79617      156.341     312.5263      1.529     3.22     849.4263      55.1427     402.2283        20     1.340     0.886 -50.68   0
       229     19.8304    682.8012 307.9103888  +6.3905450     1802.896     2680.892     3013.537     77.79617     156.2787     312.6508      1.617     4.30     856.0432      55.1427     259.5743        16     1.397     0.763 -41.62   0
       230    553.5681    681.1329 307.6888184  +6.4091714     589.3542     973.9818     1254.361     78.29488     156.4654     312.8064      1.958     5.24     853.7137      55.1427     108.5164         7     1.532     0.507 -34.78   0
       231     77.7432    677.8926 307.8865082  +6.3945223     26494.49     39334.13     41390.81     78.29488     156.4032     312.9619      1.565     3.53     854.3412      55.1427     3884.938        59     1.620     1.059 -50.59   0
       232    436.7119    680.2870 307.7373713  +6.4056015     614.1687     956.7336     1658.395      78.1705     156.8381     312.9308      1.923     4.24     854.1893      55.1427     120.2986         7     1.220     0.419 -64.94   0
       233    538.9954    678.9559 307.6949430  +6.4095817     2100.321     3153.572      3049.84     77.79617     156.0918     312.5263      1.542     4.18     853.6617      55.1427      318.277        18     1.508     0.701 -49.20   0
       234    507.7822    676.1415 307.7079990  +6.4096972     1399.161     1991.434     1876.299     78.04592      156.341     312.5886      1.471     4.22     854.0323      55.1427     263.9376        14     1.451     0.638 -48.21   0
       235    928.7618    675.1555 307.5332151  +6.4241919     1170.689      1598.16     1371.028     78.17049     156.4032     312.7442      1.470     3.62     849.3411      55.1427     172.9023        12     1.160     0.702 -68.65   0
       236    548.3078    672.7432 307.6912850  +6.4124589     1098.958     1588.818     1532.327     78.29488     156.4032     312.9308      1.487     4.80     853.5223      55.1427     156.0109        11     1.321     0.620 -49.18   0
       237    723.7949    670.0764 307.6185019  +6.4194373     3555.679     4929.214      4502.48     78.04592     155.9671     312.7131      1.417     3.36     852.6155      55.1427     604.3237        21     1.356     0.757 -48.00   0
       238    745.7849    668.4495 307.6094248  +6.4208448     4327.848     6157.547     6179.193     77.79617     156.4654     312.5575      1.506     3.37     852.3304      55.1427     755.5124        23     1.381     0.837 -52.79   0
       239    577.2533    666.3669 307.6794797  +6.4160616      3331.09     4688.735     4396.985     78.29488     156.4032     312.7753      1.457     3.32     853.6205      55.1427     542.0884        18     1.357     0.710 -54.00   0
       240    413.6889    666.7125 307.7473888  +6.4104331     1439.353     2097.389      2035.23      78.1705     156.9621     312.9308      1.458     3.17     853.6828      55.1427     223.0209        13     1.162     0.654 -36.00   0
       241    237.8757    665.7797 307.8204256  +6.4049117     1819.428     2701.147      2912.66     78.04592     156.2787     312.7753      1.527     3.65     853.1718      55.1427     266.1241        16     1.328     0.738 -46.54   0
       242   1018.7227    664.6148 307.4962097  +6.4315466     5062.006      7485.03     7626.964     78.04592     156.1542     299.1968      1.615     3.63     847.6807      55.1427     744.8527        28     1.430     0.966 -52.72  16
       243    984.0782    663.4869 307.5106346  +6.4308562     8451.175     12474.49     13163.42     78.41905      156.776     312.9619      1.590     3.49     848.1318      55.1427      1237.38        34     1.480     0.967 -54.85   0
       244    321.3803    665.2880 307.7857677  +6.4079214     1407.559     1913.036     1681.313      78.1705     156.2165     312.7442      1.524     3.31     853.5431      55.1427     224.8141        13     1.133     0.697 -49.00   0
       245    537.9940    664.1544 307.6958569  +6.4156591     607.9921     928.4575     732.6542     77.92115     156.2165     312.4952      1.554     4.44     853.4037      55.1427     100.8577         7     1.074     0.523 -60.17   0
       246    704.1027    662.1857 307.6269445  +6.4220360     997.9428     1378.287     1375.667     78.29488     156.2165     312.6198      1.476     3.71     852.5813      55.1427     175.5779        11     1.165     0.610 -63.38   0
       247    810.6761    657.5304 307.5828440  +6.4275231     1179.944     1948.377     2101.377     78.54304     156.5898     312.8376      1.694     5.33     851.2849      55.1427     239.2645        12     1.554     0.585 -61.13   0
       248    429.4611    657.6863 307.7411435  +6.4146890     2916.623     4224.224     4479.837     78.54304     156.5898     312.8997      1.632     3.59      853.496      55.1427     435.6458        25     1.752     0.806 -61.13   0
       249    142.5275    656.7724 307.8603217  +6.4054228     25164.96     37241.06     38949.31      78.1705     156.4032     312.7753      1.590     3.52     853.2342      55.1427     3920.239        54     1.616     1.028 -51.41   0
       250     95.6749    660.1520 307.8796622  +6.4024503     862.9456     1069.379     1473.216     78.29488     156.5276     312.8687      1.247     3.93     853.4576      55.1427     170.6573         6     0.802     0.550 -41.19   0
       251    362.0786    651.1675 307.7693439  +6.4151181     856.9673     1322.694     1659.406     78.29488     156.4654     312.8064      1.643     5.00     853.0027      55.1427     135.6074         9     1.155     0.613 -64.45   0
       252    979.0406    646.4367 307.5132979  +6.4377276     6850.188     11429.18      12250.2     78.17049     156.4654     312.7131      1.771     3.50     847.5115      55.1427     856.2025        44     1.521     1.288 -55.01   0
       253     23.6533    645.3845 307.9100670  +6.4061210     1235.253     1547.853     1527.527     77.79618     156.4654     312.5575      1.373     2.95     854.9805      55.1427     237.7263        12     1.105     0.652 -48.91   0
       254    572.5496    641.6583 307.6822642  +6.4261052     50600.35     73573.35     77313.19     78.41905     156.4654     312.8376      1.568     3.37      852.783      55.1427       8463.7        68     1.635     1.050 -51.29   0
       255    937.1276    642.7665 307.5308267  +6.4378437     615.2773     943.5362     838.5074     78.29488     156.4654     312.8064      1.513     4.47     848.2822      55.1427     104.4749         6     1.121     0.508 -43.40   0
       256    215.8929    642.4117 307.8303425  +6.4138200     676.3618     1003.255     1119.533      78.1705     156.1542     312.6509      1.899     4.82     852.7794      55.1427     91.10199         9     1.133     0.582 -65.80   0
       257    531.7997    641.6771 307.6991856  +6.4247314     687.4776     1035.485     867.8664       77.671     155.8423     312.5575      1.561     3.38     853.0137      55.1427     134.8531         5     0.939     0.353 -44.27   0
       258    797.3775    641.1632 307.5889160  +6.4338359     666.6381     699.5155     200.1547     78.04592     156.2165     312.6198      1.259     4.01     851.0233      55.1427     120.2947         6     0.915     0.503 -49.73   0
       259    180.1912    638.2595 307.8453077  +6.4143332     2936.228     4189.238     3954.807     77.79617      156.341     312.5575      1.480     3.43     852.8895      55.1427     472.7626        20     1.323     0.806 -49.67   0
       260    502.9152    638.2019 307.7112973  +6.4251976     734.0287     1022.988     804.0897     77.79617     156.0918     312.5263      1.502     3.84     853.1066      55.1427     109.4777         8     0.946     0.627 -65.70   0
       261     72.6466    632.4775 307.8901598  +6.4131001     1349.002     2123.571     2241.432     78.29488     156.5276     312.8376      1.606     4.08     853.5143      55.1427     237.9611        13     1.377     0.613 -57.97   0
       262    469.7793    625.4471 307.7254869  +6.4293521     65244.52     95715.93     100725.2     78.04592     156.4654      312.682      1.568     3.47     852.7555      55.1427     11159.42        78     1.641     1.094 -50.41   0
       263     13.2166    627.0334 307.9150213  +6.4133454     1842.359     2907.067     2777.573     78.04592     156.2165     312.7131      1.672     4.01     854.5842      55.1427     258.5765        21     1.427     0.912 -49.36   0
       264    655.6445    622.7782 307.6483921  +6.4366837      880.194      1268.99     999.9291     77.92115      156.341     312.6509      1.580     4.79     851.4377      55.1427     142.5729        11     1.347     0.580 -50.18   0
       265    144.2751    620.4125 307.8608245  +6.4204927     1677.251      2321.91     1643.053     77.92115     156.1542     312.6509      1.488     3.58     852.7989      55.1427     263.1932        16     1.245     0.787 -52.15   0
       266    939.1419    618.4530 307.5308052  +6.4479492     681.2661     1142.248     737.7432     78.41905     156.4654     312.8376      1.762     4.10      847.482      55.1427     107.7185         6     1.048     0.459 -53.76   0
       267    423.4276    617.9362 307.7449882  +6.4308976     944.4431     1343.625     1359.206     78.04592     156.4654     312.7442      1.445     3.11     852.2216      55.1427       176.02         7     1.011     0.435 -41.54   0
       268    616.2034    616.6954 307.6649756  +6.4378740     833.8595     1174.622     855.6967      78.1705     156.1542     312.5263      1.438     4.34     851.2562      55.1427     149.9136         8     1.166     0.460 -42.01   0
       269    323.4179    616.3189 307.7865730  +6.4282069     555.1026     686.0364     1193.681     78.04592     156.1542     312.7442      1.388     4.09     851.5419      55.1427      89.9231         5     1.219     0.392 -74.96   0
       270    497.7513    615.8351 307.7141947  +6.4342588     620.8871     915.0809     1370.291     78.29488     156.4654     312.7753      1.924     4.77      852.521      55.1427     96.84296         8     1.315     0.491 -48.44   0
       271    315.3651    614.7471 307.7899701  +6.4285853     2193.259      3279.75     3403.793     78.29488     156.4654     312.8064      1.667     3.66     851.5011      55.1427     333.6248        16     1.202     0.817 -56.10   0
       272     16.1403    616.2416 307.9141724  +6.4178992     797.4336     1064.974     1581.502     78.41905     156.4654     312.9308      1.543     4.43     854.1285      55.1427     116.7587         7     0.916     0.609 -29.21   0
       273    467.4213    613.1719 307.7268795  +6.4343409     821.5502     1141.483      1928.09     77.79617     156.2165     312.7753      1.688     4.21     852.3587      55.1427     119.2916        11     1.143     0.667 -37.88   0
       274    741.8923    608.9268 307.6130404  +6.4452893     5726.958     8139.643     8270.087     78.29488     156.5898     312.8687      1.458     3.36     850.7751      55.1427      950.995        30     1.432     0.939 -52.20   0
       275    795.3975    604.2524 307.5909773  +6.4490089     14466.61     20866.25      21781.9     77.79618     156.2165     312.4329      1.540     3.47     849.9687      55.1427     2286.999        43     1.546     0.955 -51.47   0
       276   1012.7037    604.9529 307.5007077  +6.4559784     1041.297      1458.17     975.5148     78.41905      156.341      312.993      1.534     5.62     844.9136      55.1427     146.2187        13     1.289     0.746 -41.90   0
       277    537.9243    603.6337 307.6979226  +6.4406433     1193.894     1959.857     1995.048     78.29488     156.4654     312.8064      1.865     6.79     852.0884      55.1427     206.1005        15     1.882     0.686 -71.37   0
       278    619.2632    602.3364 307.6641878  +6.4439048     3052.782     4360.345     4112.964     78.41905     156.4654     312.8687      1.465     3.46     850.6418      55.1427     458.6982        21     1.362     0.846 -53.84   0
       279    942.9100    602.7316 307.5297673  +6.4545659     452.0745     936.7239     1025.072     78.54304     156.6519     312.8064      2.640     3.64     846.9622      55.1427     91.35205         5     0.847     0.622  38.03   0
       280     40.3541    602.9915 307.9045660  +6.4241853     648.0668     991.0164     1074.487     77.92115      156.341     312.4952      1.610     6.04     853.4346      55.1427     93.03424         8     1.157     0.886  59.22   0
       281    936.2745    598.6343 307.5326603  +6.4560360     1155.345     1969.789     2754.649     78.29488     156.4654     312.8064      2.021     4.36     847.0811      55.1427     215.4359        12     1.392     0.618 -46.18   0
       282    377.7723    596.0366 307.7646854  +6.4384062     971.0375     1258.112     1043.975     77.92115     156.1542     312.6509      1.362     3.59     851.0399      55.1427     180.2792         9     1.131     0.608 -63.01   0
       283    231.5618    596.1259 307.8253986  +6.4334560     1374.742     2005.524     2018.234     78.29488     156.5276     312.8997      1.586     3.10     851.5905      55.1427     242.5334        11     1.090     0.687 -48.53   0
       284    362.5868    595.7005 307.7710028  +6.4380350     629.0738      984.382     775.4352      78.1705     156.2165     312.5886      1.359     3.42     850.8765      55.1427      111.689         5     0.783     0.433  68.87   0
       285    871.4493    587.5111 307.5599552  +6.4584630     2824.769     4028.197      4398.22     78.41905     156.2787     312.9308      1.471     3.82     848.5559      55.1427     473.3505        20     1.518     0.714 -54.93   0
       286    830.2512    584.9787 307.5771496  +6.4581317      2692.85     3985.985     3891.988     77.92115     156.5276     312.7131      1.520     3.51     849.1294      55.1427     394.6462        20     1.462     0.820 -57.22   0
       287    166.4082    587.2615 307.8527535  +6.4349239     823.1091     1041.151     1567.056     77.79618     156.2787     312.6198      1.635     4.58     852.1806      55.1427     128.4072         7     1.246     0.478 -52.26   0
       288    743.6373    581.4209 307.6132396  +6.4567039     752.9807     1052.963     1410.373     78.04592     156.2165     312.5886      1.368     4.85     849.9903      55.1427     138.4633         9     1.342     0.587 -66.07   0
       289    810.7853    576.1445 307.5855303  +6.4611282       165422     240122.6       252686     77.79617     156.4032     312.5575      1.532     3.40      849.229      55.1427     27748.04       119     1.683     1.127 -53.13   0
       290    801.1064    580.8832 307.5893909  +6.4588482     2652.118     3978.047     5287.618      78.1705      156.776     312.9619      1.671     3.39     849.4883      55.1427     418.6554        19     1.261     0.816 -49.39   1
       291    258.2095    579.7830 307.8148843  +6.4410992     8060.068     11941.81     12506.15     78.17049     156.2165     312.7131      1.560     3.42     850.6106      55.1427     1173.325        34     1.558     0.926 -50.00   0
       292    192.3724    574.3730 307.8424069  +6.4411185     60760.36      90215.9     96139.38     77.92115     156.2787      312.682      1.609     3.42      851.356      55.1427     8967.817        86     1.699     1.144 -51.48   0
       293    740.2867    576.7170 307.6147891  +6.4585339     644.0349     1027.469      1293.37      78.1705     156.6519     312.8997      1.707     4.47     849.9146      55.1427     126.4659         8     1.187     0.480 -44.35   0
       294    116.3824    570.5645 307.8740914  +6.4401333     6447.979     9588.546     9941.262     77.92115     156.2787     312.6198      1.584     3.37     852.2556      55.1427     971.0747        30     1.470     0.931 -48.80   0
       295    981.8694    567.8941 307.5147549  +6.4702499     1301.094     1898.355     1907.101     78.29488     156.5276     312.8687      1.524     3.91     845.3037      55.1427     188.3338        11     1.236     0.567 -55.64   0
       296   1002.6942    566.6948 307.5061463  +6.4714400     710.6111     906.3181     736.0136     78.41905     157.0861     312.7753      1.207     4.34     844.7922      55.1427     129.3555         7     1.080     0.496 -59.90   0
       297    231.0520    565.4292 307.8266465  +6.4461120     734.2609     1231.252     1496.282     78.17049     156.5898     312.7442      1.828     4.14     850.1943      55.1427     111.7042         8     0.993     0.740 -53.30   0
       298    847.3395    563.3878 307.5707774  +6.4676170     4709.123     7044.569     7376.433     77.79618      156.341     312.5575      1.567     3.22      848.228      55.1427     730.3498        26     1.453     0.867 -52.34   0
       299    365.7789    561.5170 307.7708297  +6.4522550     17907.97     25873.16     27463.89      78.1705     156.1542     312.7442      1.563     3.40     849.6569      55.1427      2855.68        45     1.538     1.000 -50.31   0
       300    167.5317    560.6116 307.8531872  +6.4459640     2012.545     2869.231     3496.458     77.92115     156.2787     312.7131      1.627     4.56     851.5828      55.1427     300.7269        16     1.346     0.778 -58.30   0
       301    456.1611    561.4942 307.7332962  +6.4552986     791.7532     1108.891     309.1454     78.54304      156.341     312.9308      1.462     4.16     850.3425      55.1427     126.0714         7     1.084     0.456 -49.61   0
       302    801.3184    556.7552 307.5901128  +6.4688169     5987.489     8450.525     9092.765     78.41905     156.4654     312.8064      1.495     3.50     849.0662      55.1427     929.9905        27     1.426     0.837 -51.46   0
       303    242.8087    558.4380 307.8220003  +6.4493936     955.2825     1515.482     2050.227     77.67101     156.2165     312.5886      1.862     4.98     849.8156      55.1427     139.5058        10     1.190     0.601 -48.42   0
       304    532.1716    556.4624 307.7018993  +6.4599256     6640.015     9724.885     9829.632     78.04592     156.4654     312.8064      1.541     3.41     849.8552      55.1427     1024.534        30     1.426     0.935 -45.66   0
       305    105.5690    557.3135 307.8790296  +6.4452399     978.2347     1307.067     1517.339     78.54304     156.2787     312.7753      1.746     5.28     852.1929      55.1427     148.3752        10     1.096     0.719 -46.09   0
       306    390.4884    552.9988 307.7608554  +6.4566016     1464.541     2081.964      1948.03       77.671     156.0295     312.5886      1.519     3.72     849.6464      55.1427     227.3409        14     1.272     0.701 -43.82   0
       307    179.1486    549.6068 307.8487348  +6.4508982     6858.108     10507.37     10961.89     77.92115     156.2787     312.4641      1.626     3.57     850.9935      55.1427     966.4717        32     1.515     0.974 -52.39   0
       308    576.8585    549.4564 307.6835768  +6.4643161     2513.312     3827.402     3912.967     78.54304     156.4654     312.8687      1.624     4.50     849.2917      55.1427      366.256        20     1.432     0.823 -38.76   0
       309    274.3899    546.0283 307.8093042  +6.4555788     87462.87     132239.4       139399     78.04592     156.2787     312.7131      1.593     3.62     849.2271      55.1427     12438.36        92     1.699     1.131 -52.32   0
       310    817.7814    549.1460 307.5835311  +6.4725089     1381.414     1981.625     2342.102     77.92115     156.4654     312.6198      1.622     5.01      848.515      55.1427     213.2223        13     1.401     0.677 -47.46   0
       311     50.7262    548.2235 307.9021112  +6.4471454     4887.835     7488.142     7952.612     78.04592     156.2787     312.7753      1.600     3.58     852.5757      55.1427     775.2793        30     1.466     0.942 -55.64   0
       312    563.7409    543.6290 307.6892206  +6.4662823     836.0627     1490.052     2066.323     78.04592     156.5276     312.7442      2.179     4.63     849.1395      55.1427     148.1606         9     1.350     0.577 -57.14   0
       313    258.2909    541.2888 307.8161497  +6.4569943     1495.166     1097.906     945.3654     78.41905     156.9621     312.9308      0.938     4.73     849.1393      55.1427     233.4934        15     1.372     0.743 -59.35   0
       314    797.5449    538.5632 307.5922907  +6.4762015        17074     24361.47     25482.53     78.29488     156.4654     312.8687      1.531     3.31     848.6022      55.1427     2915.919        44     1.527     0.968 -53.25   0
       315    974.0112    539.8607 307.5189580  +6.4815617     1664.994     2388.447     2506.487     77.79617      156.341     312.5575      1.415     2.95     844.9616      55.1427     281.0988        14     1.125     0.736 -46.17   0
       316    501.1742    536.8854 307.7154314  +6.4669686      41159.3     66296.59     70840.77     78.54304     156.2165     312.7131      1.735     3.49     849.2027      55.1427     5453.453        75     1.699     1.266 -41.58   0
       317    651.3742    535.5712 307.6530973  +6.4725451     1055.954     1814.385     2006.349     77.92115     156.2787     312.7131      1.765     6.15     848.6161      55.1427     159.2328        13     1.447     0.790 -54.01   0
       318     49.3256    533.5356 307.9031895  +6.4531620     1268.492      2076.31     2476.851     78.54304     156.4654     312.8064      1.753     3.87     852.4263      55.1427     208.7643        16     1.306     0.890 -59.12   0
       319    661.1441    531.9026 307.6491631  +6.4743870     2979.943     4029.239     4927.798     78.29488     156.4654     313.0552      1.455     3.16     848.4716      55.1427     490.8367        21     1.440     0.778 -43.52   0
       320    213.6243    533.1019 307.8349752  +6.4588721     1818.966      2702.57     3280.295     78.54304     156.2165     312.7131      1.607     3.85     849.4744      55.1427     273.2306        15     1.316     0.669 -53.74   0
       321    671.0685    531.7498 307.6450466  +6.4747824     1320.727     1919.842     1846.251     78.29488     156.4032     312.8376      1.494     4.69     848.4609      55.1427     204.1274        13     1.387     0.623 -52.94   0
       322    723.2695    530.6515 307.6234039  +6.4769832     1377.143     1892.458     2138.615     78.29488      156.341     312.8376      1.411     3.54     848.5384      55.1427     211.7751        10     1.075     0.616 -46.27   0
       323     80.6711    529.5367 307.8903080  +6.4558688     786.2388     1170.686     1039.886     78.41905     156.4654     312.8997      1.441     3.65     852.0198      55.1427     146.3983        10     1.185     0.601 -57.08   0
       324    398.8447    527.6274 307.7582403  +6.4673568     1780.838     2646.217     2436.406     78.04592     156.5276     312.7442      1.529     4.32     848.7969      55.1427     294.1017        14     1.308     0.715 -49.42   0
       325    330.3307    525.8093 307.7867549  +6.4658063     4002.554     5796.872     6052.337     77.92115     156.2787     312.7131      1.512     3.38     848.4507      55.1427     626.8683        26     1.477     0.853 -50.09   0
       326    145.4670    524.4031 307.8635734  +6.4601700     26517.67     39567.11     41502.08     77.79618     156.1542     312.6509      1.627     3.50     850.9944      55.1427      3959.19        62     1.664     1.081 -48.80   0
       327    510.4035    525.1866 307.7119924  +6.4721081     2291.035     3058.593     3113.826     78.04592     156.1542     312.7131      1.438     3.99     848.5851      55.1427     330.8556        18     1.475     0.786 -41.80   0
       328    873.3910    524.6529 307.5612574  +6.4844800     1494.432     2140.252     2316.306     77.92115      156.341     312.5575      1.552     3.95     846.6502      55.1427     259.4685        14     1.272     0.737 -56.18   0
       329    311.0176    525.5827 307.7947831  +6.4652509     437.5151     630.5914     442.4729     78.17049     156.1542     312.7753      1.579     3.91     848.5148      55.1427       67.677         5     1.332     0.329 -49.81   0
       330    110.5866    522.6799 307.8781166  +6.4597071     2767.807     4226.706     4284.149     78.04592     156.2165     312.6509      1.590     3.65     851.4706      55.1427      444.751        22     1.412     0.928 -45.99   0
       331    971.0924    518.9930 307.5208696  +6.4900799     5297.128     7782.918     8077.749     78.04592     156.1542     312.6508      1.491     3.31     844.3327      55.1427     841.2978        26     1.454     0.838 -54.07   0
       332    347.3763    520.9821 307.7798389  +6.4683718     890.9718     1246.461     1203.613     78.04592      156.341     312.7442      1.204     2.79     848.2653      55.1427     161.2242         9     0.945     0.598 -38.16   0
       333    544.3345    511.3693 307.6983658  +6.4789504     1537.855     2248.809      2525.33      78.1705     156.5276     312.7753      1.536     3.34     847.8069      55.1427     256.8177        13     1.151     0.676 -41.38   0
       334      9.7436    508.7041 307.9204668  +6.4620795     25566.78     38367.62     40249.88     78.29488     156.4654     313.0241      1.611     3.67     852.7721      55.1427      3787.17        55     1.635     1.056 -52.25  16
       335    442.5012    505.5470 307.7408539  +6.4779383     44701.48     64512.05     67930.93     78.29488     156.4654     313.0552      1.578     3.35     847.8684      55.1427     7003.346        67     1.609     1.074 -51.48   0
       336    650.5240    505.2103 307.6544712  +6.4850515      12528.1     17903.31      18925.5     78.04592     156.0295     312.6509      1.521     3.50     847.5791      55.1427     2030.131        36     1.504     0.901 -49.02   0
       337    290.3631    505.7728 307.8040291  +6.4727353     1016.875     1348.667     1538.117     77.92115     156.2165     312.6509      1.562     5.15     847.9881      55.1427     146.2337        11     1.264     0.654 -47.95   0
       338    207.6428    503.1460 307.8384709  +6.4710381     19239.72     30682.54     32792.28     78.41905     156.4654     312.8376      1.733     3.46     849.1018      55.1427     2871.728        61     1.622     1.289 -44.43   0
       339    173.4438    504.0539 307.8526426  +6.4695126     1601.942     2382.859     2375.748     78.41905     156.4654     312.8376      1.578     3.43     849.8344      55.1427     253.7264        14     1.083     0.855 -58.05   0
       340    913.2234    502.7589 307.5454484  +6.4948500     673.0917     838.9498     857.8712     78.04592     156.2787     312.6198      1.729     4.25     845.4695      55.1427      100.676         7     1.162     0.444 -58.03   0
       341    824.6545    502.8846 307.5822293  +6.4918384     1069.333     1439.822     1328.777     78.41905     156.4654      312.993      1.473     3.51     846.7415      55.1427     183.0818        10     0.986     0.777 -57.56   0
       342    572.3764    501.9761 307.6870358  +6.4837685     2713.712     3857.019     3740.552     77.92115     156.2787     312.7753      1.518     3.55     847.3936      55.1427     424.9412        19     1.391     0.784 -46.03   0
       343    946.2029    499.1889 307.5318707  +6.4974254     4848.018     6884.326     7493.844     78.04592     156.1542     312.7131      1.496     3.37     844.5287      55.1427     761.3966        24     1.356     0.855 -49.84   0
       344    619.2708    497.6284 307.6677061  +6.4871349     6796.207     10006.96     10470.09      78.1705     156.4654     312.8064      1.568     3.46      847.233      55.1427     1073.716        31     1.518     0.911 -53.76   0
       345    106.9093    498.2379 307.8804700  +6.4696740     1231.532     1580.764     1918.132     78.54304     156.4032     312.8687      1.416     3.62     850.9151      55.1427     189.4664        13     1.157     0.769 -46.89   0
       346    984.3748    503.9100 307.5158585  +6.4967505     1253.031     1732.725     2304.774     78.54304     156.2787      312.682      1.677     4.56     843.4117      55.1427     219.0834        17     1.441     0.853 -59.30   0
       347    871.9188    494.3396 307.5628858  +6.4969461     456.9052      475.778     817.6204     78.54304     156.4654     312.8064      1.369     4.69     845.9824      55.1427      88.3775         5     0.991     0.629 -74.09   0
       348    968.8734    491.4615 307.5227140  +6.5013727     3612.808     4989.749     4798.703     78.54304     156.4654     312.8687      1.458     3.27     843.4812      55.1427     586.5096        24     1.333     0.883 -55.11   0
       349    531.5027    488.7931 307.7044549  +6.4878410     7701.762     11405.25     12577.34      78.1705     156.0918     312.5886      1.591     3.56     846.8883      55.1427     1135.378        37     1.647     0.931 -53.98   0
       350    407.2274    490.6184 307.7560064  +6.4829176     705.2041     1031.548     1756.438     78.04592     156.2787     312.7442      1.844     5.11       847.26      55.1427     107.2139         7     1.155     0.640 -57.22   0
       351    377.6457    488.8453 307.7683516  +6.4826563     2691.646     3867.696     4264.586     78.41905     156.4654     312.8064      1.474     3.23     847.3178      55.1427     413.8634        18     1.284     0.764 -46.65   0
       352    100.3554    488.6762 307.8835149  +6.4734008     548.3544     878.0263     1223.949     78.29488     156.5276     312.8687      1.692     4.56     850.8393      55.1427     74.63702         6     1.074     0.551 -34.67   0
       353    887.9680    484.7944 307.5565404  +6.5014233     3260.507     4672.395     5392.002     77.79617     156.2787     312.6198      1.473     3.69     845.5157      55.1427     510.5324        19     1.393     0.712 -53.59   0
       354    540.8214    485.8828 307.7006827  +6.4893550      712.422     1191.674     1573.623     78.17049     156.1542     312.7442      1.887     4.31     846.7486      55.1427     101.2938         7     1.204     0.439 -34.17   0
       355    235.8215    484.0070 307.8274147  +6.4798874      624.901     966.7286      873.731     77.92115     156.2787     312.6508      1.672     2.02     848.3135      55.1427     142.6135         5     0.748     0.456 -35.76   0
       356    895.4620    479.0409 307.5536208  +6.5040491     2264.134     3381.124     3029.829     78.41905     156.4654     312.8687      1.526     3.54     845.2097      55.1427     341.8183        19     1.377     0.803 -46.67   0
       357    934.6835    478.5252 307.5373480  +6.5055721     1193.891     1779.328     1770.559     78.54304      156.776     312.8997      1.543     4.62     844.4165      55.1427     194.4514        12     1.251     0.693 -35.97   0
       358    114.5226    478.3235 307.8779814  +6.4781519     713.0235     730.6132     821.8792     78.66682      156.714     312.8997      1.270     4.96     850.2504      55.1427     118.8047         8     0.948     0.788 -75.29   0
       359    719.3377    475.1455 307.6269018  +6.4997680     3211.107     4401.503     4449.772     78.54304     156.4032     312.8064      1.474     3.56     846.5161      55.1427     452.3033        19     1.316     0.779 -53.35   0
       360     81.0443    474.0607 307.8920288  +6.4787843     1907.452      2857.61     2971.189     78.29488     156.4654     312.9619      1.543     4.29     850.9061      55.1427     326.9127        17     1.393     0.756 -51.17   0
       361    390.2624    473.2179 307.7636386  +6.4895318     3632.491     5320.446     5500.724     78.04592     156.4032      312.682      1.553     3.50     846.5576      55.1427     545.8757        24     1.420     0.866 -49.26   0
       362    618.0504    469.8804 307.6691463  +6.4985501      10250.7     15042.52     16314.45     78.41905     156.5276     312.8375      1.522     3.44     845.9218      55.1427     1575.008        34     1.559     0.890 -48.94   0
       363    780.9413    466.1680 307.6016174  +6.5055356      17120.2        25028     28405.04     78.29488     156.5276     312.7753      1.567     3.59     845.4777      55.1427     3106.882        58     2.123     0.965 -50.70   0
       364    300.2218    466.7936 307.8012500  +6.4891592     2635.017     4008.124     4097.621     78.04592     156.2787     312.6509      1.597     3.80     846.6625      55.1427     415.5146        22     1.503     0.845 -50.91   0
       365    383.5783    463.3617 307.7667469  +6.4933765      1674.95     2365.047     2642.906     78.04592     156.2165     312.6509      1.527     3.85     846.0908      55.1427     275.0539        16     1.256     0.776 -61.43   0
       366    809.6412    463.5673 307.5897846  +6.5075692     1371.122     2081.062     2221.135      78.1705     156.4654     312.7131      1.545     3.36     845.1281      55.1427     231.1086        12     1.121     0.684 -49.59   0
       367    910.1536    463.6299 307.5480357  +6.5109025     523.1693     629.1948     238.6681     77.92115     156.5898     312.7442      1.288     3.46     844.2048      55.1427     86.22742         5     0.821     0.422 -19.49   0
       368    430.6960    473.3077 307.7468430  +6.4908522     1260.155     1810.331       2276.3     78.41905     156.9621     312.8064      1.606     4.22     846.3271      55.1427     192.9857        14     1.267     0.772 -47.22   0
       369    966.0298    461.2066 307.5249091  +6.5137690     1988.974     2862.281     2922.177     77.92115     156.2165     312.6198      1.446     3.24     842.5134      55.1427     363.4321        16     1.272     0.715 -47.17   0
       370    714.1918    460.6629 307.6295258  +6.5055751     654.6678     1079.103     510.5001     77.79617     156.2165     312.6509      1.563     4.88     845.6119      55.1427     110.8712         8     1.299     0.520 -38.50   0
       371    371.8766    459.1363 307.7717493  +6.4947280     671.9672     1104.752     1209.802     78.66682     156.4654     312.8064      1.814     3.53     845.9484      55.1427     126.1693         7     1.032     0.841 -30.37   0
       372    117.9441    458.2703 307.8772383  +6.4865459      4625.13     7206.979     7770.137     78.41905     156.4032     312.8064      1.630     3.57     849.7354      55.1427     711.3057        29     1.495     0.972 -35.62   0
       373    756.2904    457.2545 307.6121552  +6.5083911     2266.878     3317.387     3310.235     78.29488     156.2787     312.9619      1.550     3.87     845.1924      55.1427     314.6928        21     1.433     0.832 -54.55   0
       374   1019.8337    456.1168 307.5027324  +6.5176662     3952.308     6771.657     7345.203     78.41905     156.4654     288.0624      1.851     4.32     840.5659      55.1427     407.9333        33     1.622     1.157 -35.88  16
       375    276.0625    455.3199 307.8116708  +6.4930840     1483.771     2127.892     2570.003     78.54304     156.5276     312.8376      1.481     3.59     846.5903      55.1427     208.0378        14     1.143     0.772 -49.68   0
       376    354.2038    453.0464 307.7792944  +6.4966486       3282.3     5018.304      4996.32     77.79617     156.2165     312.5263      1.581     3.61     845.7133      55.1427     473.1819        24     1.496     0.880 -52.31   0
       377    709.8679    450.9091 307.6316494  +6.5094573     1556.521     2175.774     2356.272     78.54304     156.5898     312.8375      1.524     4.61     844.9661      55.1427     247.3667        14     1.355     0.618 -55.85   0
       378    983.8903    449.1577 307.5178947  +6.5193398     615.0781     1078.642     1176.606     78.41905     156.4654     312.8687      2.108     5.23     841.5068      55.1427     90.64673         7     1.196     0.647  82.28   0
       379    413.6563    448.5589 307.7547539  +6.5004979     518.4709     656.6067     854.9486     78.29488     156.4654     312.8687      1.563     4.61     845.2661      55.1427     94.27106         6     1.229     0.491 -45.33   0
       380    241.8869    448.6843 307.8260883  +6.4946743     915.2441     1430.587     1324.643      78.1705     156.6519     312.8997      1.688     5.23     847.3674      55.1427     127.2228         9     1.094     0.707 -45.60   0
       381    551.5615    443.4290 307.6976511  +6.5072424     919.3076     1329.771     2016.793     77.92115     156.1542      312.682      1.431     3.75     844.5685      55.1427     183.0967         8     1.018     0.571 -48.35   0
       382    452.7889    444.3813 307.7386421  +6.5035361     648.7134     797.9756     380.4988     78.04592     156.1542     312.7442      1.365     3.38     844.8326      55.1427     104.8668         5     0.787     0.421 -21.40   0
       383    699.6769    442.6973 307.6361581  +6.5125066     535.3356     801.6378     273.6982     78.04592     156.6519     312.8997      1.562     4.37     844.4495      55.1427     84.85754         5     0.946     0.574 -36.58   0
       384    473.6659    441.8647 307.7300561  +6.5052757     1434.039     2156.632      2279.54     78.41905     156.4654     312.8376      1.530     3.52     844.6226      55.1427     223.7003        13     1.237     0.672 -60.16   0
       385    836.2626    441.1721 307.5794794  +6.5177054     1582.928     2190.034     2083.477     78.04592     156.4654     312.8064      1.442     3.84     843.7958      55.1427     238.6317        14     1.277     0.655 -51.78   0
       386    821.8195    440.0091 307.5855174  +6.5177027     2003.489      2943.35     3189.245     78.04592     156.2165      312.682      1.463     3.49     843.8232      55.1427     326.1256        17     1.301     0.736 -48.73   0
       387    719.1685    438.1193 307.6282163  +6.5150491     15316.66     22390.31     24001.72     78.29488     156.4654     312.8064      1.518     3.49     844.1265      55.1427     2530.934        44     1.562     0.966 -49.39   0
       388    620.8535    440.2023 307.6689803  +6.5108969     661.3651     1017.216     1095.066     77.79617     156.2165     312.4641      1.891     6.03     844.1201      55.1427     116.4486         9     1.335     0.767 -63.66   0
       389    640.2814    434.0910 307.6611168  +6.5140708     2719.709     4123.356     4786.792      78.1705      156.714     312.8997      1.624     3.77     843.7975      55.1427     390.5192        20     1.411     0.771 -47.82   0
       390    615.4834    430.9767 307.6715211  +6.5145259     5633.098     8124.421      9103.56     78.29488     156.2165     312.7753      1.563     3.36     843.5636      55.1427     767.9589        29     1.521     0.922 -56.43   3
       391    611.6996    428.4998 307.6731759  +6.5154217     15078.81     22189.76     23527.98     78.41905     156.8381      312.682      1.596     3.51     843.3783      55.1427     2447.917        43     1.619     0.966 -48.84   3
       392    713.2676    432.2608 307.6308641  +6.5172703     770.4384     1018.548     1768.396     78.54304     156.4032     312.8376      1.429     2.77     843.7391      55.1427     133.9605         5     0.877     0.353 -45.04   0
       393    383.5824    423.9260 307.7680748  +6.5096578     29478.26     44083.97      46249.4     77.92115     156.2787     312.7442      1.568     3.61     844.1136      55.1427     4184.557        59     1.649     1.066 -53.29   0
       394    944.5696    428.0039 307.5349358  +6.5267608     3921.606     5661.163     5476.922     77.92115      156.341     312.6198      1.488     3.67     841.7662      55.1427     586.2527        18     1.281     0.760 -52.17   0
       395    900.1921    423.6325 307.5535148  +6.5270833     1486.891     2414.868     3014.757     77.92115      156.341     312.6509      1.565     3.48     842.2977      55.1427     253.1019        12     1.221     0.614 -56.87   0
       396    913.2192    418.3879 307.5482798  +6.5296839     5283.316     7538.021     7924.549      78.1705     156.2165     312.7442      1.480     3.29     841.8445      55.1427     854.1196        28     1.430     0.886 -46.56   0
       397    129.7320    423.2231 307.8735274  +6.5014119     2435.178     3865.431     3506.298     78.04592     156.4032     312.8064      1.611     4.03     848.7803      55.1427     361.1387        23     1.457     0.899 -59.77   0
       398    595.2797    419.2340 307.6803075  +6.5186969     603.1529     824.5442     709.3417     78.29488     156.5276     312.8687      1.568     4.92     842.9573      55.1427     107.4509         8     1.146     0.602 -78.67   0
       399     63.0388    418.7621 307.9013765  +6.5010073     1489.528     2400.725     2581.962     78.17049      156.341     312.7131      1.748     4.32     849.9096      55.1427     215.9891        14     1.410     0.727 -41.19   0
       400    241.1125    414.4282 307.8275665  +6.5087909     14024.71     21053.68     22092.28     78.54304     156.2165     312.7131      1.603     3.54     846.4881      55.1427      1967.88        46     1.608     1.016 -49.67   0
       401    969.6187    415.5255 307.5249498  +6.5327491      617.038     932.3926     886.8199     77.92115      156.341     312.7753      1.360     3.08     840.7132      55.1427     137.2266         5     0.742     0.449 -21.69   0
       402    704.3306    407.8305 307.6353971  +6.5270575     741.0913     953.7712     1184.358     78.29488     156.4654     312.7753      1.350     5.48     842.4285      55.1427     123.8989         9     1.640     0.517 -56.60   0
       403    736.2377    407.9831 307.6221393  +6.5280624     714.3875      1099.48      1155.32     78.04592      156.341     312.5886      1.435     3.79     842.5298      55.1427     126.9822         8     1.107     0.639 -44.85   0
       404     76.5026    408.5631 307.8961298  +6.5056715      875.833     1326.542     1691.353     78.41905      156.341      312.993      1.756     3.37     849.3971      55.1427     131.8799        10     0.944     0.758 -47.96   0
       405    964.6664    406.3685 307.5273137  +6.5363643     953.4341     1480.683     1982.408     78.29488     156.4654     312.7753      1.714     3.88     840.4707      55.1427     142.4829         9     1.101     0.559 -45.26   0
       406    353.9421    404.0687 307.7810549  +6.5168604     1271.429         1937     2352.937     78.54304     156.4032     312.7753      1.680     3.65     843.4142      55.1427     216.9101        11     1.126     0.676 -53.73   0
       407    141.4080    403.0809 307.8693590  +6.5101206     5292.377     8099.341     8282.932     78.04592     156.0918      312.682      1.606     3.44     848.1705      55.1427     717.3041        33     1.585     0.946 -47.28   0
       408    187.0249    404.0021 307.8503823  +6.5112757     924.0403     1335.002     1175.224     78.04592     156.1542     312.6508      1.520     2.38     847.3647      55.1427     175.1594         9     0.767     0.735  76.97   0
       409    246.3785    401.8704 307.8258034  +6.5141524     1332.764     1928.198     2293.214     78.04592      156.341     312.8064      1.555     3.70     845.7715      55.1427     196.8415        13     1.248     0.626 -47.29   0
       410    438.4769    401.8005 307.7460211  +6.5206355     813.2653     1425.765     947.9483     77.67101     155.8423     312.5886      1.614     5.03     842.9789      55.1427     127.3847        10     1.273     0.620 -35.18   0
       411    634.9614    401.4096 307.6644256  +6.5273854     550.7429     863.1098     883.2546     77.79617     156.2787     312.5575      1.617     5.26     841.9646      55.1427     94.60382         7     1.120     0.697 -13.89   0
       412    163.4321    398.8464 307.8603551  +6.5126101     2590.164     4048.061     4624.951      78.1705     156.4654     312.7442      1.666     4.40     847.6993      55.1427     359.7764        25     1.632     0.887 -61.53   0
       413    827.5613    399.3831 307.5844963  +6.5346677     698.8138     812.9638     663.8948     78.04592      156.341     312.6198      1.408     3.19     842.2288      55.1427     126.9722         5     0.903     0.516 -49.61   0
       414    559.0601    398.1999 307.6960590  +6.5261670     984.2993      1294.01     913.4298       77.671     156.2165     312.4952      1.372     3.35     842.1477      55.1427     185.2161         9     0.988     0.606 -51.58   0
       415    975.1002    393.7335 307.5234035  +6.5419292     974.8705     1832.729     1929.013     78.41905     156.5898     312.8064      2.101     6.27     839.7502      55.1427     142.3627        14     2.035     0.542 -60.81   0
       416    386.9024    393.7120 307.7677146  +6.5222432     2009.622     2913.459     2297.195     78.41905     156.9001     312.8687      1.497     3.57     843.0244      55.1427     313.3169        16     1.317     0.707 -49.90   0
       417    274.9023    394.0793 307.8142197  +6.5183281     962.8666      1306.66     489.0446      78.1705      156.714     312.8687      1.483     4.06     844.4537      55.1427     147.0082        10     1.004     0.690 -61.63   0
       418      5.6442    393.9517 307.9260524  +6.5093157     785.1219     1181.147     1163.518     78.41905     156.4032     293.3177      1.497     4.98     850.5634      55.1427     114.4219         8     1.069     0.656 -35.38  16
       419    440.7404    387.2584 307.7455710  +6.5267152      7566.41     11324.43     11588.97     78.41905     156.4032     312.8687      1.592     3.44     842.2977      55.1427     1252.846        36     1.546     0.951 -55.55   0
       420     37.1993    387.8977 307.9131520  +6.5128787     3257.085     5231.115     6042.978     77.92115     156.0918     312.4952      1.756     4.02     849.8025      55.1427     528.9205        27     1.783     0.844 -50.33   0
       421    781.3850    384.7047 307.6041690  +6.5391837     13494.29     19260.03      19658.8      78.1705     156.2165     312.6509      1.480     3.33     842.1104      55.1427     2228.263        35     1.465     0.913 -50.57   0
       422    773.4208    386.1273 307.6074293  +6.5383299     1907.119     2878.137     3716.483     78.04592      156.341     312.8064      1.763     3.88     842.0986      55.1427     287.8312        15     1.255     0.774 -63.54   0
       423    201.2912    386.3221 307.8450544  +6.5190548     574.4816     805.3088     456.0617      78.1705      156.714     312.8687      1.516     4.09     846.3481      55.1427       86.521         6     0.944     0.506 -46.89   0
       424    344.8619    382.9160 307.7855397  +6.5252882     1133.715     1703.492     1614.005     78.54304     156.4654     312.8687      1.616     5.40      842.957      55.1427     152.3804        13     1.376     0.681 -45.27   0
       425   1023.8107    380.6653 307.5036085  +6.5489504     1107.767     1298.578     1165.245      65.8765     121.8541     232.8459      1.086     2.95     837.5288      55.1427     295.9717         6     0.997     0.357 -80.07  24
       426    955.9367    376.3669 307.5319456  +6.5484595      583.354     715.4202     1042.924     78.29488     156.5276     312.8064      1.301     5.37     839.7526      55.1427     92.00421         7     1.260     0.646  -9.69   0
       427    189.3708    375.6414 307.8503661  +6.5230632     829.4171     1105.328     372.8923     78.04592      156.341     312.7131      1.363     3.07     846.2859      55.1427     123.8501         6     0.813     0.525  44.50   0
       428    528.6751    372.7902 307.7095348  +6.5356387     457.8007     594.1884     31.46835     78.04592     156.0918     312.6509      1.564     3.91     840.8919      55.1427      78.7467         6     1.080     0.405 -76.42   0
       429    488.8715    370.9793 307.7261283  +6.5350512     3247.936     4771.316     5070.849     78.04592      156.341     312.8064      1.568     3.55     840.8337      55.1427     462.7052        23     1.444     0.836 -54.72   0
       430    461.1839    371.4416 307.7376129  +6.5339314     2459.065     3463.287     3778.843     77.92115     156.2787     312.6198      1.536     3.69     841.2249      55.1427     370.9338        18     1.349     0.771 -61.77   0
       431    846.7195    367.6267 307.5776046  +6.5484192     34692.97     51469.35     54259.77     78.29488     156.2787     312.8687      1.573     3.45     841.4329      55.1427     5449.683        56     1.638     1.013 -58.16   0
       432    917.5207    370.7776 307.5480900  +6.5494842     842.8072     1146.299     1209.202     78.04592     156.1542     312.8064      1.488     3.55     840.7605      55.1427      157.051         7     1.013     0.479 -44.55   0
       433     64.1098    364.1240 307.9027798  +6.5236002     647.5838     984.5095     349.0717     78.41905      156.714     312.8687      1.524     5.22      848.806      55.1427     113.0743         7     1.040     0.741 -79.87   0
       434    338.8321    362.6881 307.7887265  +6.5334367     878.1437     1228.361     1082.387     78.54304     156.2787     312.8376      1.498     5.07     842.4668      55.1427     126.4801        10     1.007     0.721 -87.12   0
       435    618.6420    359.9701 307.6725978  +6.5439474     2880.417     4382.946     4737.365     78.04592     156.4032      312.682      1.555     3.48      839.979      55.1427     479.0769        22     1.423     0.870 -53.00   0
       436     26.6031    360.5582 307.9184778  +6.5238083     1185.423     1817.244     2035.903     77.79618     156.1542     312.5575      1.709     5.20     849.3717      55.1427      164.106        17     1.510     0.837 -49.55   0
       437    703.1809    353.5815 307.6376981  +6.5494163     83723.37     119746.9     125871.6      78.1705     156.4032     312.7753      1.521     3.40     840.3553      55.1427     12285.65        84     1.617     1.084 -49.51   0
       438    150.0070    357.8899 307.8673149  +6.5290669     594.0355     1018.493     1118.484     77.92115     156.1542     312.6198      1.758     3.92     846.8583      55.1427     85.76709         5     0.850     0.518 -62.95   0
       439    861.4110    355.0525 307.5719242  +6.5541017     1216.874     1798.945     2169.112     77.79617     156.4032     312.5886      1.593     4.47      841.014      55.1427     166.7554        14     1.295     0.727 -55.12   0
       440     82.5261    353.0422 307.8955058  +6.5287957     1357.221     2136.219     2398.315     78.29488     156.5276     312.8687      1.699     3.99     848.2875      55.1427     235.4408        13     1.186     0.749 -61.34   0
       441    565.6559    350.2900 307.6949320  +6.5461680     2635.602     3618.697     3328.904     78.29488      156.341     312.9619      1.473     3.76     839.5585      55.1427     455.7164        19     1.450     0.707 -44.66   0
       442    102.9057    348.9128 307.8871812  +6.5311869      6388.57     9650.293     10359.09     78.41905     156.9001     312.8997      1.590     3.55      847.817      55.1427     954.0131        36     1.512     1.014 -51.32   0
       443    944.9860    350.1685 307.5373728  +6.5589103     807.0286     1077.335     1058.316     78.04592     156.2165     312.7753      1.250     3.14     839.3745      55.1427     164.2816         8     0.869     0.589 -49.83   0
       444    393.4473    349.6064 307.7664833  +6.5406721     565.3357     891.6044     828.1601     77.92115     156.2787     312.4952      1.810     4.18     841.5113      55.1427     99.39429         5     1.002     0.497 -89.40   0
       445    772.8497    347.5569 307.6089621  +6.5542351     519.2848     728.4771      359.114     78.41905     156.4032     312.8376      1.627     4.35     841.1262      55.1427     75.34509         5     0.948     0.569 -45.69   0
       446    548.9883    346.3748 307.7019869  +6.5472256     7422.572     10705.57     10980.56     78.04592     156.2787     312.7753      1.531     3.39     839.3493      55.1427     1216.327        31     1.516     0.883 -49.92   0
       447    411.8173    341.6522 307.7591214  +6.5445729     26299.98     39831.65     41865.05     77.92115     156.5276     312.5575      1.599     3.55     840.9281      55.1427     4028.663        56     1.636     1.051 -50.15   0
       448    277.9868    343.8784 307.8146330  +6.5391572     2737.706     4070.325     4123.871     78.04592     156.2165     312.6508      1.521     3.45     842.7217      55.1427     418.5052        21     1.394     0.805 -45.48   0
       449    590.6572    340.5634 307.6848747  +6.5510218     600.6552     692.1627     361.7123     78.41905     156.4654     312.8376      1.272     3.11     839.0264      55.1427      131.782         5     0.976     0.316 -67.45   0
       450    519.4570    340.2293 307.7144601  +6.5487725     1400.526     2081.001     1867.519     78.04592     156.5276     312.7442      1.510     3.77     839.0262      55.1427     205.1221        12     1.150     0.672 -45.40   0
       451    391.6014    339.5400 307.7675894  +6.5447660     1071.532     1634.713     2377.523     77.79618     156.2165     312.5575      1.624     4.39     841.0535      55.1427      176.921        13     1.328     0.809 -50.51   0
       452    491.1723    336.7921 307.7263243  +6.5492428      1185.03      1840.25       1784.9     78.04592     156.2787     312.6508      1.609     4.66      838.877      55.1427     208.0749        13     1.221     0.786 -59.13   0
       453    388.8528    334.2525 307.7689093  +6.5468567     837.0213     1179.328     1334.397     78.66682      156.341     312.8687      1.503     4.41     840.8062      55.1427     128.0018         8     1.106     0.501 -55.90   0
       454    807.1812    333.5774 307.5951710  +6.5611550     916.3918     1150.505     1281.922      78.1705     156.4032     312.7753      1.631     3.90     840.5032      55.1427     151.2759        12     1.147     0.859  51.60   0
       455    500.9679    331.9613 307.7224183  +6.5515658     8892.117     13248.49     13432.02     78.04592     156.2787     312.6508      1.513     3.50     838.5598      55.1427     1419.773        37     1.538     0.963 -52.64   0
       456    770.1422    330.6850 307.6106535  +6.5611102     3300.479     4882.493     5268.846     78.41905     156.4654     312.9308      1.547     3.66     840.2345      55.1427     502.1808        21     1.343     0.844 -53.21   0
       457    925.6136    330.3691 307.5460837  +6.5664378     822.4138     1198.899     1094.537     78.04592     156.2165     312.7753      1.711     3.47     838.9919      55.1427     169.1724         9     1.121     0.524 -48.56   0
       458    718.1248    330.0450 307.6322819  +6.5596338      697.324     1020.587     1188.193     78.29488     156.5276     312.8687      1.614     3.02     839.6793      55.1427     147.5793         6     0.910     0.435 -51.36   0
       459    327.4315    328.7192 307.7946077  +6.5470776     1022.407     1316.696     1005.818     78.29488     156.4654     312.8064      1.529     3.39     841.5121      55.1427     180.9291        13     1.122     0.776 -64.60   0
       460     86.0686    326.0715 307.8949467  +6.5400496      502.358     675.7195     1006.278     78.41905     156.5898     312.8064      1.763     5.28     847.6379      55.1427     79.29382         7     1.341     0.588 -40.35   0
       461    163.0888    322.2907 307.8630847  +6.5442042     1157.232     1823.997     2037.298     78.41905     156.9621     312.9308      1.667     4.54     845.6021      55.1427     175.6246        15     1.302     0.860 -38.21   0
       462    390.7427    316.1415 307.7687351  +6.5543973     7698.167     11468.52     12203.97     78.54304     156.4654     312.8687      1.597     3.65     839.9412      55.1427     1180.761        32     1.485     0.945 -49.38   0
       463    744.0817    316.2407 307.6219638  +6.5662017     1038.238     1366.576     1698.094     78.41905     156.4654     312.7753      1.384     4.74     839.3764      55.1427     154.5787         9     1.055     0.604 -53.99   0
       464    679.3566    316.7759 307.6488315  +6.5638141     555.3994     749.8572      220.645     77.92115      156.341     312.6509      1.583     5.44     838.5729      55.1427     83.45209         8     1.393     0.599 -52.71   0
       465    246.6514    316.5547 307.8285707  +6.5493839     2231.231     3055.183     3494.753     78.54304     156.4032     312.8376      1.497     3.93     842.8717      55.1427     358.1032        15     1.181     0.779 -57.20   0
       466    758.6777    312.1268 307.6160391  +6.5683886     56814.39     80996.65     84668.46     78.66682      156.714     312.8687      1.516     3.26     839.2308      55.1427     9897.094        74     1.600     1.053 -52.31   0
       467    430.1723    311.5163 307.7525133  +6.5576308     2405.843     3547.231     3760.545     78.41905     156.2165     312.7131      1.557     3.77     839.0145      55.1427     354.3613        23     1.489     0.868 -56.83   0
       468    576.3483    309.0401 307.6918792  +6.5635567     1322.389     1816.923     1700.284     78.29488     156.5276     312.8376      1.499     5.00      837.236      55.1427     190.5256        13     1.390     0.721 -58.14   0
       469    993.3589    309.1465 307.5186545  +6.5774618     1771.928     2746.586     2485.255     78.29488     156.5276     312.8687      1.576     4.09     835.6531      55.1427     284.0739        18     1.387     0.853 -43.36   0
       470    934.4604    308.3804 307.5431464  +6.5758116     2192.186      3223.51     2874.871     78.04592     156.4032     312.7442      1.500     3.83     837.5502      55.1427     374.7238        18     1.436     0.687 -53.97   0
       471    467.2111    307.7721 307.7372547  +6.5604198     1126.198     1791.574     1823.571     78.04592     156.2787     312.7131      1.699     4.86     837.5718      55.1427     206.0657        10     1.251     0.673 -47.89   0
       472    416.8435    307.1374 307.7581972  +6.5589911     1985.557     3144.944     3245.443     78.41905     156.4032     312.8997      1.695     4.09     839.2001      55.1427     316.9388        19     1.433     0.809 -48.28   0
       473    297.0023    306.5331 307.8079954  +6.5552143     728.2432     958.2123     824.5127     77.92115     156.1542     312.6509      1.529     3.97     841.7478      55.1427     127.0806         8     1.105     0.640 -54.73   0
       474    447.4253    298.5146 307.7457851  +6.5635777     1091.845     1678.196     1728.208     78.54304     156.2165      312.682      1.714     4.47     837.7538      55.1427     194.3767        11     1.267     0.622 -57.47   2
       475    838.1408    301.5421 307.5833864  +6.5754163     1202.419     1869.715     1862.882     78.41905     156.4032     312.8687      1.715     3.79     838.3687      55.1427     167.0725        11     1.075     0.660 -53.66   0
       476    467.0015    302.0682 307.7375339  +6.5627676      799.589     1315.158     1944.183     77.92115     156.0295     312.6508      1.793     4.05     837.2204      55.1427     119.9359         7     0.942     0.498 -43.56   0
       477    969.5651    300.0025 307.5288449  +6.5804428     544.2626     969.0129     341.1825     77.54562     156.2787     312.6198      1.525     3.81      836.011      55.1427     94.01843         6     1.253     0.332 -39.67   0
       478    193.4444    298.5212 307.8512796  +6.5550389     2396.684     3445.243     3780.985     78.41905     156.4654     312.8376      1.549     3.62     843.9637      55.1427     317.4323        21     1.407     0.843 -54.61   0
       479    757.1178    296.7535 307.6172036  +6.5746835     6300.764     9037.643     9752.174     78.41905     156.4654     312.8375      1.480     3.36     838.4839      55.1427      983.785        29     1.447     0.884 -54.35   0
       480    228.5717    296.8979 307.8367441  +6.5568910     716.7094     1109.494     1025.304     78.54304     156.2165     312.8064      1.684     4.31     842.7258      55.1427     123.9486         8     1.290     0.493 -58.27   0
       481    773.6366    294.5278 307.6104166  +6.5761550     2838.734     4103.714     4589.465     78.29488     156.4654     312.8687      1.548     3.52     838.3985      55.1427      482.994        19     1.335     0.777 -51.56   0
       482    348.0305    295.8663 307.7871601  +6.5613331      560.451      843.984     1337.028      78.1705     156.4654     312.7753      1.382     3.77     839.6738      55.1427     101.2299         5     1.265     0.323 -31.36   0
       483     89.8033    295.4152 307.8944322  +6.5528316     1143.862     1635.719     1447.497     78.04592     156.0918      312.682      1.469     3.99     846.8558      55.1427     179.7625        10     1.193     0.536 -61.44   0
       484    475.9866    293.8463 307.7340788  +6.5664635     475.8996     461.5357     409.5228     77.79617     156.2787     312.6198      1.371     3.62      836.423      55.1427     83.86487         5     0.802     0.501 -58.96   0
       485     76.7112    289.8904 307.9000569  +6.5546714     1364.036     2103.882     2262.219     78.41905     156.9621     312.9308      1.622     3.98      847.047      55.1427     216.5413        15     1.357     0.714 -60.54   0
       486    363.0503    289.2138 307.7811457  +6.5645842     1748.898     3268.194     3811.135     77.79617     156.4032     312.5575      2.010     5.55     839.0414      55.1427     266.4347        23     1.694     0.915 -13.58   0
       487   1011.7709    285.5906 307.5117957  +6.5878018     6225.626     8957.538     9319.856     77.92115     156.2787      312.682      1.491     3.36     834.2602      55.1427     1032.905        29     1.447     0.894 -53.41   0
       488    489.9358    285.3354 307.7285713  +6.5704454     2221.587     3299.766     3189.479     78.41905     156.4654     312.8687      1.569     3.46     835.7899      55.1427     414.7126        20     1.479     0.828 -57.67   0
       489    651.2269    286.7522 307.6615258  +6.5752676      460.643     479.8268     699.8323     78.04592     156.5276     312.7753      1.406     4.32     837.0599      55.1427     72.32068         5     0.856     0.620 -44.36   0
       490    252.3223    280.9532 307.8274174  +6.5642726     5925.261     8986.416     9342.038     78.29488     156.5276     312.8376      1.606     3.72     842.1439      55.1427     852.8678        33     1.639     0.905 -55.70   0
       491    920.2250    279.7980 307.5500185  +6.5871367     665.4501     953.0292     811.4156     78.04592     156.1542     312.6509      1.474     6.17     836.3425      55.1427     98.93005        10     1.359     0.786 -57.50   0
       492    816.9393    279.7011 307.5929268  +6.5837247     656.7314     998.3251     1061.432      78.1705     156.4032     312.9619      1.660     4.23     837.5706      55.1427     98.65393         7     1.173     0.436 -54.66   0
       493    771.8682    274.1494 307.6118358  +6.5845093     797.0028     1053.288     1128.512     78.29488      156.341     312.7753      1.417     3.92     837.5743      55.1427     130.6423         7     1.089     0.495 -40.52   0
       494    229.1045    273.4247 307.8373156  +6.5665997     740.8524     974.7559     1042.514     78.54304     156.2165     312.7131      1.520     3.65     842.3349      55.1427     136.5959         6     1.093     0.351 -47.14   0
       495    386.5576    271.6434 307.7719740  +6.5726278     1687.739     2732.702     2773.313      78.1705     156.4654      312.682      1.745     3.45     838.2862      55.1427     245.8462        16     1.180     0.834 -50.20   0
       496    973.4438    270.5499 307.5282212  +6.5927322      1188.38     1394.778     1618.848     78.54304      156.341     312.8687      1.269     3.12     834.7139      55.1427     195.3745        12     1.112     0.647 -55.26   0
       497    193.2088    268.6994 307.8523851  +6.5673427        502.4     832.4284     875.9403      78.1705     156.0918      312.682      1.802     4.52     843.4683      55.1427     87.09912         6     1.158     0.502 -46.61   0
       498    156.2624    267.3992 307.8677753  +6.5666359     1935.754     2940.434     3057.428     77.67101     156.2787     312.5263      1.702     3.94     844.7086      55.1427      263.085        18     1.449     0.720 -59.26   0
       499    308.9496    267.5123 307.8043499  +6.5717256      1345.78     2076.414     1864.798     78.41905     156.2787     312.9619      1.470     4.24     840.6981      55.1427     221.1588        14     1.393     0.656 -46.09   0
       500    565.7168    263.3258 307.6978341  +6.5820737      2164.04     3322.027     3593.105     78.54304      156.776     312.8997      1.578     3.61     835.0113      55.1427     375.5502        20     1.553     0.734 -53.72   0
       501    909.7133    262.4477 307.5549672  +6.5939489     1768.398     2611.789     2894.985     78.41905      156.341     312.8687      1.583     3.11     835.6759      55.1427      324.007        13     1.127     0.682 -52.03   0
       502    729.5373    260.7450 307.6298704  +6.5886269     5382.813     7947.911     8225.176     78.54304     156.4032     312.8064      1.592     3.55     837.0278      55.1427     863.9381        30     1.494     0.918 -52.99   0
       503    670.5030    260.7765 307.6543922  +6.5866374     2373.864       3288.3     2971.786     78.54304     156.2165     312.6509      1.459     3.45     836.1833      55.1427     379.7581        18     1.328     0.794 -54.58   0
       504    848.2954    262.6001 307.5804755  +6.5918335      479.718     664.8274     464.8118     77.92115     156.0918     312.4329      1.346     3.45     836.4908      55.1427     77.45599         5     0.763     0.450 -18.39   0
       505    967.6482    260.5335 307.5309646  +6.5966741     770.5966     1018.013     706.3369     78.29488     156.4032     312.8376      1.410     5.04     834.4377      55.1427     107.0327         9     1.020     0.706 -42.68   0
       506    860.5617    256.9366 307.5755701  +6.5945817     474.3792      420.389     219.6229     78.41905     156.4032     312.8997      0.947     3.79     836.0488      55.1427     121.7312         6     0.972     0.488  83.99   0
       507    385.2582    254.5411 307.7730905  +6.5796448     734.7149     976.4717     969.5112     78.41905     156.4032     312.8687      1.639     4.98     837.8951      55.1427     109.6469         9     1.267     0.555 -63.57   0
       508    925.5584    252.9389 307.5487039  +6.5984040     1169.701      1700.22     1927.895     78.41905     156.4654     312.8997      1.642     3.30     835.0991      55.1427     180.3043        12     1.107     0.681 -49.06   0
       509    871.8273    244.9683 307.5712920  +6.5998995     1770.089     2659.118     3049.645     77.92115     156.2165     312.6508      1.583     4.01     835.4026      55.1427     294.2803        16     1.378     0.810 -69.85   0
       510    229.0276    246.0070 307.8382736  +6.5779163      2349.64     3665.195     3667.637     77.92115     156.2787     312.6508      1.560     3.79     841.9888      55.1427     356.7703        20     1.356     0.884 -52.22   0
       511    762.3655    244.3324 307.6167850  +6.5965016     1777.427      2425.44      2424.24     78.29488     156.5276     312.9308      1.536     3.68     836.5452      55.1427     266.0666        14     1.212     0.723 -40.56   0
       512    251.0458    239.4987 307.8293476  +6.5813439     802.5773     890.3472     1062.716     78.41905      156.341     313.0552      1.418     5.01     841.6314      55.1427     131.6578         9     1.308     0.542 -64.64   0
       513    462.9930    235.9354 307.7414275  +6.5899361     23376.09     35207.61     37360.63     77.92115     156.2165     312.6508      1.553     3.55     834.7429      55.1427     3622.337        50     1.642     0.993 -52.98   2
       514    468.8932    230.3070 307.7391663  +6.5924578     1399.363     1999.752     2600.108     78.41905     156.9621     312.8064      1.608     4.44     834.3244      55.1427     232.4722        13     1.333     0.716 -54.99   3
       515    878.8196    239.4206 307.5685735  +6.6024236     456.7255     780.5779     1317.727      78.1705     156.4032     312.7753      1.502     3.47     835.0657      55.1427      77.1153         5     0.757     0.460 -17.25   0
       516    789.0478    235.1334 307.6060099  +6.6011922     13688.13     20177.31     22166.52     78.41905     156.4032     312.8687      1.544     3.34     836.2364      55.1427     2338.253        44     1.606     1.001 -44.59   0
       517    324.0097    237.3770 307.7991112  +6.5846731     569.3589     767.8834      470.625     78.04592     156.2165      312.682      1.510     4.99     839.6961      55.1427     93.26959         8     1.312     0.536 -69.39   0
       518    727.9382    230.2935 307.6315582  +6.6011455     796.1155      1212.18     1117.944     78.29488     156.4654     312.8997      1.730     4.46     835.8702      55.1427     111.7673         8     1.130     0.500 -52.64   0
       519    151.2295    229.1933 307.8711572  +6.5822394      2238.34     3476.696      3756.16     77.92115     156.2787     312.6198      1.648     3.75     844.3657      55.1427     307.2381        21     1.425     0.846 -55.30   0
       520    780.8721    227.6279 307.6096584  +6.6040174     525.2733     966.7805     1551.542      78.1705     156.4032     312.7753      1.853     6.21     835.9963      55.1427     74.14551         9     1.488     0.729 -86.38   0
       521    126.0561    228.1779 307.8816479  +6.5818109     1166.996     1657.151     1242.984     78.04592     156.4654     312.6508      1.456     5.03     844.9775      55.1427     169.9514        12     1.454     0.605 -44.36   0
       522    178.1680    227.6850 307.8600186  +6.5837690     732.1165     1180.764     1013.638     78.41905     156.2787     312.7753      1.552     4.17     843.4932      55.1427     112.7247         6     1.073     0.463   2.32   0
       523    925.5036    225.1369 307.5496594  +6.6098806      1479.39      2091.02     2105.053     78.29488     156.5898     312.8997      1.447     3.23     833.8775      55.1427     304.7416        16     1.237     0.825 -66.23   0
       524    623.3251    223.7379 307.6752360  +6.6003486     531.5281      813.695      763.665     78.66682     156.4654     312.8376      1.359     4.31     834.2274      55.1427     104.4943         6     1.051     0.505 -59.17   0
       525    587.0507    221.7377 307.6903720  +6.5999587     4760.774     7177.974     7248.056     78.41905     156.4032     312.8997      1.564     3.42     833.7484      55.1427     718.0775        27     1.526     0.859 -49.96   0
       526    549.6980    221.8025 307.7058864  +6.5986797     2177.464     3276.422     3290.236     78.04592     156.2165     312.5263      1.566     3.46      833.149      55.1427      345.933        19     1.275     0.835 -52.46   0
       527    391.4535    221.0060 307.7716480  +6.5936978     1509.616     2334.721     2193.015     77.92115     156.2165     312.5575      1.532     4.20     836.8249      55.1427     255.1931        17     1.406     0.738 -59.65   0
       528    307.3153    222.2735 307.8065556  +6.5903473     1154.387     1653.449     793.6024     78.54304      156.776     312.8687      1.438     3.36     840.2507      55.1427     181.6405        10     1.034     0.635 -53.31   0
       529    894.0964    218.3079 307.5629358  +6.6116507     11870.44     16953.52     17549.85     78.41905     156.9621     312.8064      1.500     3.32     833.9069      55.1427     2011.671        39     1.512     0.929 -52.46   0
       530    948.0071    218.8199 307.5405227  +6.6132402     2819.582     3963.414     3840.647     78.04592     156.2165     312.6508      1.449     3.37     833.1204      55.1427      463.196        20     1.357     0.823 -38.14   0
       531    569.0335    218.1855 307.6979760  +6.6008213     973.1889     1504.633     1580.091     78.04592     156.2165     312.7131      1.461     4.10     833.3479      55.1427     170.5225        12     1.326     0.666 -54.21   0
       532    321.8427    218.3032 307.8006551  +6.5924748     862.5978     1398.401     1354.327     78.41905     156.4032     313.0241      1.658     4.46     839.6201      55.1427     139.6129         8     1.195     0.474 -56.63   0
       533    213.3351    218.1499 307.8457330  +6.5888890     633.5088     833.1251     980.0357     78.29488     156.4032     312.8376      1.711     4.58     842.1445      55.1427     102.9756         7     1.325     0.449 -67.28   0
       534    980.7681    216.1330 307.5270031  +6.6154435     10436.72     14888.99     15679.41     78.29488     156.4654     312.8064      1.484     3.24      832.215      55.1427     1797.595        33     1.452     0.915 -54.49   0
       535     20.2109    214.8139 307.9260652  +6.5837615     25937.81     39436.55     41314.76     78.17049     156.2165     312.7753      1.607     3.51     846.7697      55.1427      3783.24        52     1.627     1.031 -54.52   0
       536    692.0653    215.9528 307.6469424  +6.6058653     2870.202      4311.21      5096.39     78.29488     156.4032     312.8687      1.574     3.43     834.5409      55.1427     495.3679        22     1.303     0.915 -53.70   0
       537    266.6467    215.6488 307.8236725  +6.5917149      1217.93     1771.146     1535.666     78.41905      156.341     312.8687      1.524     3.15     841.2534      55.1427     202.2045        10     1.004     0.649 -53.78   0
       538    500.7991    210.8359 307.7265686  +6.6015671      2058.23     3091.477     3212.507     77.54562     156.2787     312.6508      1.519     3.51     833.1514      55.1427     331.8253        17     1.290     0.760 -49.60   0
       539    832.6564    207.8274 307.5888112  +6.6139241     2010.139     2927.596      2959.77     78.04592     156.5276     312.7131      1.440     3.93     834.2596      55.1427     304.7473        15     1.361     0.662 -50.99   0
       540    884.7971    206.8446 307.5671836  +6.6160727     2233.385     3260.774     3608.713     77.79617     156.0295     312.4952      1.612     3.37     833.3989      55.1427      353.546        19     1.400     0.768 -49.38   0
       541    512.6567    206.8128 307.7217784  +6.6036259     2582.758     3822.579      3680.24     77.79617     156.4032     312.5263      1.522     3.52     832.9561      55.1427     391.2404        20     1.467     0.756 -51.45   0
       542    744.2540    204.2750 307.6256549  +6.6124336     41399.51     60017.51     62815.32     78.29488     156.4654     312.8687      1.522     3.37     834.6259      55.1427     6296.664        59     1.584     1.014 -51.15   0
       543    347.2610    203.5764 307.7905934  +6.5994089     6166.502     11787.48     12969.06     78.04592     156.4032     312.7442      2.039     6.06      838.543      55.1427     725.5436        41     2.077     0.991 -66.83   0
       544    977.9808    203.0156 307.5286008  +6.6207661     2955.408     4178.786     4646.815      78.1705     156.2165     312.7442      1.426     3.34     831.5989      55.1427     493.1733        20     1.426     0.734 -56.83   0
       545   1016.4564    201.5835 307.5126648  +6.6226416     1881.804     2807.235     3056.129     77.79618     156.4032     312.5886      1.567     3.70     830.6274      55.1427     282.2653        16     1.294     0.779 -59.54  16
       546    912.1286    201.3786 307.5560128  +6.6192427     7916.818     11490.96     11885.06     78.04592      156.341     312.8064      1.511     3.39     832.8306      55.1427     1209.293        32     1.468     0.912 -52.56   0
       547    455.6735    200.4052 307.7456655  +6.6043591     5283.597     8011.405     8360.723     78.04592     156.0295     312.7442      1.619     3.62     833.7825      55.1427      817.823        33     1.502     1.025 -45.17   0
       548    230.4780    196.5631 307.8393413  +6.5983777     670.8669     860.5511     841.4194     78.29488     156.5276     312.8376      1.233     2.81     841.6127      55.1427     144.7406         6     0.877     0.413 -68.75   0
       549    112.9927    191.7563 307.8883058  +6.5964072     4831.772     7277.905     7387.933     77.92115     156.2165     312.5575      1.581     3.67     844.6423      55.1427     684.2449        29     1.508     0.936 -56.91   0
       550    932.3958    191.0448 307.5479398  +6.6241861     834.0391     1253.495      1572.53     77.79617     156.1542     312.5263      1.413     4.54     832.1256      55.1427     161.7144        11     1.364     0.596 -79.07   0
       551    283.3369    188.3810 307.8176602  +6.6035335     34977.74        52826      55734.7     78.04592     156.4654     312.7131      1.619     3.44     841.0605      55.1427     5012.545        60     1.631     1.081 -52.40   0
       552    258.5802    189.4854 307.8279068  +6.6022450     6768.761     10169.82     10882.42     78.04593     156.2165     312.7753      1.628     3.63     841.2985      55.1427     1052.489        34     1.572     0.945 -55.52   0
       553    712.5578    187.8282 307.6393751  +6.6181628     1015.839     1353.281     1283.977     78.04592     156.4032     312.7131      1.469     4.69     833.5885      55.1427     158.2567        11     1.327     0.565 -44.45   0
       554    609.9655    189.5532 307.6819361  +6.6140142      658.637     1095.913     1100.844     78.04592     156.4032     312.7753      1.404     3.01      832.961      55.1427     104.8622         6     0.776     0.497  -0.64   0
       555    407.3882    183.9019 307.7662799  +6.6095513     50778.95     76829.38     81155.43     78.17049     156.2165     312.6198      1.601     3.52     835.1071      55.1427     7166.104        65     1.650     1.085 -52.55   0
       556    163.3019    185.1551 307.8676312  +6.6008266     4325.358     6647.292     6952.968     78.41905     156.4032     313.0552      1.631     3.65     843.0097      55.1427     599.0976        27     1.527     0.872 -52.27   0
       557    424.5170    184.3818 307.7591483  +6.6099284     1468.961     2228.718     2215.318     78.04593     156.1542     312.8064      1.558     4.18     834.2675      55.1427     236.1904        17     1.337     0.847 -38.80   0
       558    746.6930    180.1655 307.6254519  +6.6224690     34342.23     49552.23     52011.07     78.54304      156.341     312.8997      1.529     3.38     833.1772      55.1427     5897.097        56     1.585     0.999 -52.38   0
       559    319.1192    180.8155 307.8030516  +6.6078599     2037.371     3684.372      4227.25     78.04592     156.2165      312.682      2.102     5.48     839.7037      55.1427     311.2615        31     2.050     0.991 -72.24   0
       560    311.4040    181.6038 307.8062299  +6.6072751     18742.76     28207.32     29669.97     77.79618     156.0295     312.6509      1.613     3.56     840.0506      55.1427     2799.509        46     1.606     1.012 -51.27   0
       561    694.5386    181.9038 307.6470599  +6.6200054     1050.841     1460.006     1435.347     78.17049     156.5276     312.8997      1.552     3.77     833.3077      55.1427     176.4766        10     1.084     0.714 -33.70   0
       562    545.1998    181.6101 307.7091084  +6.6151224     511.9401     841.9718     1169.889     78.04592     156.1542     312.6509      1.663     4.24     832.1901      55.1427     85.13489         5     1.129     0.454 -57.02   0
       563    795.1720    180.4943 307.6053013  +6.6239552     1147.688     1663.448     1885.902     78.54304     156.2165     312.7442      1.695     3.81     833.1772      55.1427     210.4882        11     1.280     0.561 -47.93   0
       564     34.3333    180.4211 307.9213632  +6.5984362     760.8546     1042.615     1221.857     78.04592     156.4654     312.8064      1.494     4.45     846.5287      55.1427     131.0002         8     1.287     0.438 -46.56   0
       565     63.5024    177.3517 307.9093507  +6.6006865     9406.521        14147     14795.83     78.41905     156.4032      312.993      1.631     3.51     845.7355      55.1427     1470.326        32     1.506     0.954 -52.79   0
       566     97.3015    175.1976 307.8953838  +6.6027146     1621.624     2455.224      2327.73     77.92115     156.2165     312.5263      1.511     3.20     844.8307      55.1427     239.1507        14     1.115     0.779 -54.27   0
       567   1005.4869    174.3662 307.5181343  +6.6335125     1101.291     1810.376     2168.099     78.41905      156.341     312.8376      2.014     4.20     829.3494      55.1427     176.4376        12     1.221     0.816 -66.07   0
       568    973.1703    173.3662 307.5315935  +6.6328466     601.7069     983.7758      1192.62     77.92115     156.2165     312.5886      1.436     2.99     830.1531      55.1427     131.2564         5     0.855     0.514 -53.19   0
       569    731.0634    168.3732 307.6323413  +6.6268144     729.4832       1132.3     1002.825     78.04592     156.4032     312.7753      1.422     4.61     832.4993      55.1427      104.824         8     1.120     0.565 -65.64   0
       570    580.5138    164.5942 307.6950111  +6.6233315      950.564     1351.726     1696.821     77.92115     156.1542     312.5575      1.886     5.74     831.9489      55.1427     138.4589        14     1.463     0.783 -46.14   0
       571   1006.1647    160.6796 307.5183115  +6.6391858     2454.538     3555.866     4097.265     78.29488     156.5276     312.8376      1.564     3.57     828.6046      55.1427     376.9404        19     1.209     0.890 -70.95   0
       572    589.1326    158.4914 307.6916361  +6.6261400     1031.424     1531.844     1906.229     78.41905     156.5898     312.8687      1.712     3.74     831.7589      55.1427     149.5938        11     1.044     0.681 -68.45   0
       573    282.1763    154.7127 307.8192791  +6.6173942     31094.58     47634.82     51036.33     78.41905     156.2787     312.7131      1.637     3.62     840.9955      55.1427     4452.608        73     1.801     1.168 -45.84   0
       574     27.4851    153.1940 307.9251294  +6.6094456     4618.073     7247.535     8186.995     77.92115     156.1542     312.5886      1.723     3.90     846.7036      55.1427     723.6815        30     1.583     0.920 -57.66   2
       575    597.4904    156.3291 307.6882368  +6.6273128     2093.427     2817.876     2937.455     78.29488      156.714     312.8375      1.437     3.21     831.7175      55.1427     325.6996        15     1.209     0.753 -50.12   0
       576    341.9020    156.0835 307.7944221  +6.6188361     1014.387     1560.234     1242.479     78.41905     156.8381     312.8997      1.564     4.55     838.6588      55.1427     157.1484        10     1.114     0.662 -47.62   0
       577    713.9196    151.2875 307.6400378  +6.6332944     8387.189     12404.64     13431.81      78.1705      156.714     312.9619      1.545     3.44     831.9281      55.1427     1451.538        35     1.504     0.953 -50.29   0
       578    268.1553    149.5439 307.8252781  +6.6190566     847.0584     1330.003     1322.528     78.41905     156.4654     312.8376      1.639     5.97     841.0775      55.1427     111.9279        12     1.326     0.755 -58.36   0
       579    124.6737    148.4054 307.8849196  +6.6146975     5147.859     7716.631     8420.829     78.04592     156.0295     312.7442      1.608     3.67     843.2185      55.1427     798.0014        29     1.445     0.972 -57.38   0
       580    652.4350    145.4855 307.6657759  +6.6336308      740.993     1195.447     1374.374     78.41905      156.341     312.8376      1.847     5.07     831.7953      55.1427     125.1106        10     1.356     0.565 -67.11   0
       581    463.8203    145.4647 307.7441330  +6.6273147     1456.367     1901.734     1493.553     78.04592     156.4654      312.682      1.489     3.89     832.1229      55.1427     250.0878        16     1.400     0.702 -48.46   0
       582    587.0213    145.9312 307.6929360  +6.6312547     791.1083     1253.188     1084.766     78.04592     156.4032     312.7442      1.667     4.36     831.3831      55.1427     128.1678         8     1.100     0.493 -54.44   0
       583    395.4169    144.3264 307.7725877  +6.6254879     3949.414     6576.591     6360.503     77.92115     156.2787     312.7131      1.812     3.89     835.1835      55.1427     503.0457        33     1.629     1.077 -59.59   0
       584    359.7480    143.3824 307.7874371  +6.6246793      3248.21     5002.703     5270.604     77.92115     156.5276     312.5886      1.635     4.07     837.6835      55.1427     447.2676        23     1.483     0.848 -50.63   0
       585    114.2815    143.0888 307.8894164  +6.6165424     1885.765     2774.745     3002.873      78.1705     156.6519     312.9308      1.521     3.83     843.4205      55.1427     253.4412        16     1.234     0.862 -58.29   0
       586    750.5497    140.5833 307.6251801  +6.6389398     553.1574     815.7155     796.2119     77.92115     156.5276     312.5575      1.444     3.77     831.3998      55.1427      106.567         6     0.964     0.424 -72.53   0
       587    675.2524    140.9184 307.6564503  +6.6362806     788.4214     1240.036     988.8774     78.41905     156.4654     312.8687      1.574     5.46     831.7839      55.1427     131.5124         8     1.219     0.771 -31.50   0
       588   1006.6495    137.3129 307.5188935  +6.6488492     1697.115     2413.866     2446.551     78.41905      156.341     312.9308      1.511     3.84     828.0835      55.1427     258.2097        15     1.315     0.736 -62.54   0
       589    191.3733    152.5529 307.8570723  +6.6152310     952.3409     1254.155     1129.064     78.04592     156.5276     312.7442      1.404     4.27     841.8606      55.1427     147.8942        10     1.129     0.715 -46.86   0
       590    211.6682    132.1781 307.8493301  +6.6243256     5705.529     8809.459     8880.439     78.04592     156.4032     312.8064      1.599     3.59     841.4354      55.1427     866.4529        31     1.501     0.976 -53.65   0
       591     94.3453    131.9719 307.8980739  +6.6204602     2206.444     3688.659     3539.785     78.17049     156.5276     312.7442      1.708     3.72     843.7518      55.1427     353.3641        24     1.538     0.936 -52.56   0
       592    849.8795    132.3590 307.5841901  +6.6456577     541.2012     1099.443     1670.261     78.29488     156.4654     312.8376      1.965     4.20     830.0436      55.1427     106.8162         7     1.108     0.455 -49.01   0
       593    673.4517    131.0042 307.6575319  +6.6403134     6429.771     9490.626     9929.309     77.79617     156.2787     312.4329      1.535     3.57     831.3104      55.1427     900.7275        28     1.472     0.866 -51.80   0
       594    821.2708    130.6018 307.5961347  +6.6454266     1213.515     1908.652     1458.473     77.92115     156.0295     312.6509      1.577     3.20     830.5468      55.1427     175.0798        12     1.023     0.748 -59.01   0
       595    625.6255    128.2983 307.6774919  +6.6398283     9755.086      14533.1     16253.65     78.54304     156.2165     312.7131      1.630     3.42     830.9388      55.1427     1520.696        40     1.643     1.030 -54.41   3
       596    629.1582    119.8158 307.6763097  +6.6434487     55343.13     81259.45      85544.4     77.92115     156.2165     312.6198      1.522     3.37     830.6569      55.1427     8723.536        70     1.601     1.069 -53.12   2
       597    259.9674    128.4052 307.8293934  +6.6275082     883.1689     1613.088     1869.503     77.79617      156.341     312.6509      2.030     5.08     840.9805      55.1427     137.2393         9     1.155     0.754  74.11   0
       598     24.2401    127.1288 307.9273597  +6.6200968     946.1439      1588.42      1280.42     78.29488     156.4654     312.8997      1.687     4.94     846.7273      55.1427     153.2719        12     1.348     0.600 -59.12   0
       599    564.1450    127.2923 307.7030672  +6.6381829     725.1676     1134.392     1280.491     78.29488      156.341      312.993      1.579     2.25     830.7664      55.1427     133.4941         6     0.712     0.559  52.12   0
       600    352.8098    124.1339 307.7909688  +6.6323929     3732.885     5940.866     6457.332     77.92115      156.341     312.7442      1.745     3.86     838.1845      55.1427     582.4895        28     1.664     0.887 -51.01   0
       601    998.7981    123.1378 307.5226306  +6.6544395     789.4296     1171.051     1235.439     77.79617     156.2787     312.5575      1.474     5.03     827.9479      55.1427     137.6168         9     1.418     0.506 -48.08   0
       602    534.6727    123.3293 307.7154445  +6.6388306      2000.93      2620.73     2563.235     78.54304     156.5898     312.8376      1.458     3.58     830.7432      55.1427     296.3769        16     1.213     0.824 -46.16   0
       603    308.2217    113.5457 307.8098492  +6.6352655     3792.587     5900.562     6511.167     77.92115     156.4654     312.6509      1.642     3.73     839.7845      55.1427     558.7277        27     1.485     0.962 -49.32   0
       604    503.2552    110.5606 307.7289267  +6.6430482     652.0193     947.7441     1064.813     78.41905     156.5276     312.8376      1.593     3.54     830.9275      55.1427     98.36743         5     0.795     0.455 -17.81   0
       605      5.7980     96.6453 307.9360526  +6.6320595     714364.2      1552244      1705266     77.79617     156.0918     294.5426      2.202     6.83     847.6704      55.1427     61902.64       371     2.310     1.699 -60.25  28
       606    708.3161    108.1584 307.6438159  +6.6509129     815.3571     1193.762     1317.966     78.41905     156.4032     312.7442      1.539     4.37     830.3294      55.1427     148.0065         9     1.180     0.536 -50.19   0
       607    679.4325    107.0304 307.6558536  +6.6504114     1412.743     2024.901     2474.306     77.92115     156.2165     312.5575      1.550     3.83     830.1714      55.1427     236.3577        16     1.323     0.808 -45.39   0
       608    693.5710    103.7569 307.6500898  +6.6522364     3611.714     5183.641     5617.216     78.04592     156.5276     312.7442      1.503     3.39      830.106      55.1427     555.5404        19     1.334     0.759 -52.78   0
       609     65.6685    101.4913 307.9110178  +6.6320773     523.2587     826.9888     653.5996     78.41905     156.5898     312.8375      1.493     4.26     844.3089      55.1427     68.12244         6     1.155     0.448 -54.55   0
       610    435.3104     94.6537 307.7576898  +6.6473348     4293.936     6135.666     6035.039     78.41905     156.2787     312.9619      1.508     3.53     832.6562      55.1427     615.5875        26     1.440     0.905 -61.08   0
       611    889.8520     91.1559 307.5689665  +6.6640048     2255.751      3102.94     3001.973     78.41905     156.4032     312.8687      1.431     3.49     828.2183      55.1427     407.6475        18     1.306     0.821 -62.82   0
       612    907.9526     90.1253 307.5614809  +6.6650352     3968.713     6060.551     6391.969     78.29488     156.5276     312.8375      1.536     3.63     828.0953      55.1427     692.6246        26     1.531     0.891 -52.67   0
       613    588.1886     90.3645 307.6943217  +6.6542346     710.3248      880.082     1448.707     77.92115     156.2787     312.6198      1.406     3.09     829.7114      55.1427     135.2603         5     0.917     0.382 -84.30   0
       614    599.9426     88.8098 307.6894908  +6.6552705     1811.079     2469.115     2506.171     77.79617     156.4032     312.5575      1.454     3.44     829.6888      55.1427     295.6046        16     1.230     0.773 -53.02   0
       615    620.4888     88.3531 307.6809703  +6.6561477     481.3214     666.9548     269.6432     78.41905      156.341      312.993      1.519     4.65     829.6332      55.1427     74.28101         6     1.262     0.486 -43.82   0
       616    245.8468     88.0071 307.8366239  +6.6437112     834.7277     1531.596     2295.094     77.92115     156.2787     312.4952      2.041     3.44     840.8641      55.1427     143.4266         7     1.029     0.520 -52.06   0
       617    398.7874     86.5207 307.7731372  +6.6494660     1873.064     2677.695     2131.977     78.04592     156.1542      312.682      1.555     4.02     834.6512      55.1427     266.7382        18     1.409     0.805 -51.98   0
       618    146.6277     83.4281 307.8779969  +6.6422619     3367.558     4788.001     5580.179     77.92115     156.2787     312.6509      1.545     3.75     840.4279      55.1427     514.4538        23     1.429     0.838 -52.52   0
       619     28.4855     81.2897 307.9271479  +6.6391637     12834.05     19477.53     21295.71      78.1705      156.776     312.9619      1.671     3.54     845.4094      55.1427     1910.371        45     1.631     1.029 -52.64   0
       620    295.1221     81.7034 307.8163662  +6.6479709     1357.898     2287.634     2895.724      78.1705     156.6519     312.8997      1.800     4.15     840.0721      55.1427     222.7365        17     1.441     0.760 -56.69   0
       621    568.2129     81.0698 307.7029336  +6.6574022     710.8713      913.697     998.2332     77.92115     156.2165     312.7131      1.603     4.66     829.5073      55.1427     118.2444         7     1.339     0.460 -40.10   0
       622    763.4014     80.2654 307.6218680  +6.6642724     774.1935     1328.515     1707.623     77.79618     156.0918     312.6198      1.654     4.57      829.469      55.1427     111.8448         8     1.200     0.494 -67.58   0
       623    555.2139     80.7094 307.7083462  +6.6571151     835.9133      1437.05     1116.133      78.1705     156.2165     312.6509      1.660     4.66     829.5073      55.1427     123.1808        10     1.094     0.672 -73.76   0
       624    950.0291     80.1590 307.5443338  +6.6705554     514.9372     788.2062     700.3574     78.04592      156.341      312.682      1.432     2.93     827.2393      55.1427     100.7628         5     0.782     0.494 -60.88   0
       625    157.5060     79.6084 307.8736069  +6.6442052     476.0348     744.1198     881.6371     78.04593     156.0918     312.6198      1.869     4.25     840.0846      55.1427     95.61774         5     1.303     0.396 -34.42   0
       626    830.2467     76.0159 307.5942389  +6.6682629     6623.958     9600.158     9988.188     77.92115      156.341     312.5886      1.490     3.38     828.6813      55.1427     1030.597        27     1.381     0.897 -54.64   0
       627    775.3525     76.3460 307.6170345  +6.6662905      3608.69     5307.975     5414.576     78.41905     156.4654     312.8687      1.544     3.61     829.2844      55.1427     521.6754        22     1.432     0.796 -54.06   0
       628    420.5847     76.7877 307.7644099  +6.6542162     1140.115      1674.74     1343.095     78.29488     156.1542     312.7753      1.500     3.60     833.1108      55.1427      191.704        14     1.260     0.835 -60.70   0
       629    100.1785     76.5732 307.8975248  +6.6435273     611.4874     1030.139     1070.746     77.92115     156.2787     312.7753      1.845     5.28     841.3856      55.1427     114.4937         7     1.193     0.971 -72.65   0
       630    897.4053     76.9822 307.5663041  +6.6701089     724.3246      1001.94      879.923     78.04592     156.0918      312.682      1.532     3.64     827.8052      55.1427      140.989         7     1.078     0.526 -62.62   0
       631    537.5758     74.1950 307.7158934  +6.6592130     1239.425     1615.091      2068.68     77.92115     156.2165      312.682      1.480     3.53     829.5095      55.1427     190.8459        11     1.066     0.670 -38.73   0
       632     68.8325     73.1038 307.9106640  +6.6439033     3288.025     4936.211     5382.756     78.54304      156.341     312.9308      1.601     3.56     842.7396      55.1427     538.6979        23     1.389     0.880 -50.60   0
       633     53.4935     73.9764 307.9170066  +6.6430260     1058.969     1681.589     1567.969     78.41905     156.2787      312.682      1.744     4.37     843.6444      55.1427     149.4938        14     1.342     0.671 -50.44   0
       634    657.5032     73.4965 307.6660923  +6.6635214     631.1241     1081.802     1366.503     78.41905     157.0241      312.682      1.553     3.68     829.2007      55.1427     112.5995         6     0.934     0.417 -70.71   0
       635    430.2562     72.8256 307.7605255  +6.6561768     1009.528     1569.223     1926.273     78.04592     156.4654     312.6509      1.526     3.69      832.762      55.1427     177.7878         9     1.012     0.634 -59.87   0
       636    592.6946     69.7705 307.6931430  +6.6628879     1373.961     1973.758     1979.104     78.54304     156.2165     312.7442      1.521     3.15     829.2579      55.1427     236.4384        13     1.183     0.652 -53.00   0
       637     11.1363     68.5438 307.9347865  +6.6438407     2541.549     3823.183     4437.429     78.54304     156.4032     312.8376      1.608     3.43      845.548      55.1427     406.6219        20     1.481     0.794 -50.73   0
       638    719.5526     66.2949 307.6405553  +6.6685726     571.4914      821.712      684.478     78.29488      156.341     312.9619      1.671     4.14     829.1869      55.1427     88.89911         6     1.069     0.457 -78.28   0
       639    770.0857     63.7929 307.6196445  +6.6712968     2026.095     2951.032     3058.745     78.04592     156.1542     312.6509      1.476     3.15     828.9946      55.1427     328.1018        16     1.253     0.770 -66.41   0
       640     83.4418     64.4618 307.9048874  +6.6479633     922.9355     1519.804     1444.714     78.41905     156.4654     312.9308      1.649     4.60     841.5288      55.1427     157.2159         9     1.282     0.469 -50.51   0
       641    410.7682     63.7672 307.7689272  +6.6592620     1059.362     1478.298     1332.836     77.92115     156.2165     312.5575      1.492     4.96     833.7286      55.1427     159.4396        10     1.202     0.579 -46.00   0
       642    107.7926     62.5479 307.8948362  +6.6495739     1028.348     1635.389     1214.358     77.92115     156.2787     312.5263      1.839     4.38     840.5865      55.1427     133.7401        12     1.147     0.733 -55.04   0
       643     96.5473     57.4677 307.8996797  +6.6512923     9855.518     14697.66     15300.75     78.29488     156.4032     312.7442      1.611     3.39      840.464      55.1427     1527.339        37     1.530     0.992 -50.53   0
       644    425.5926     57.3936 307.7629834  +6.6623912     2628.127     3792.649      3912.51     77.79618     156.2787      312.682      1.573     3.45     832.8842      55.1427     420.6645        19     1.345     0.766 -55.61   0
       645    639.3145     49.6007 307.6744531  +6.6727774     19320.45     28493.91     29997.11     77.67101     155.9671     312.5263      1.570     3.53     828.7479      55.1427     2948.893        51     1.603     1.033 -52.55   0
       646    263.1798     51.3721 307.8306606  +6.6594186       1670.8     2641.607     3776.155     78.04592     156.2787     312.7753      1.806     3.50      840.383      55.1427     272.4141        15     1.255     0.760 -62.94   0
       647    668.8352     51.0895 307.6621381  +6.6731518     574.5132     722.7473     493.2098     78.54304     156.4032     312.8375      1.500     3.23     828.7124      55.1427     150.4081         5     1.184     0.297 -59.58   0
       648    539.0969     45.5889 307.7162251  +6.6710740     5441.134     8106.639     8321.312     78.17049     156.1542     312.6509      1.537     3.53     828.8746      55.1427     830.6479        30     1.515     0.925 -55.90   0
       649    257.3094     45.8291 307.8332867  +6.6615095     1955.364     3070.135     4526.612     78.54304     156.2165     312.7753      1.748     3.57     840.3698      55.1427     337.4227        20     1.442     0.822 -54.89   0
       650    695.7244     44.0801 307.6512022  +6.6769462     456.4281     777.1859     1195.942     78.66682      156.714     312.9619      1.502     4.90     828.5869      55.1427      87.8382         5     1.460     0.466 -66.79   0
       651    625.6809     40.0977 307.6804372  +6.6762439     3146.989     5703.644     6760.638     78.29488      156.776     312.8997      2.086     4.85     828.5506      55.1427     540.0352        37     1.997     1.172 -87.85   0
       652      6.7466     43.6353 307.9374535  +6.6539756     1259.417     2011.906     1762.483     78.29488     156.4654      303.331      1.656     4.37     844.0995      55.1427     195.4434        13     1.267     0.701 -61.99  16
       653    444.6555     41.2373 307.7556084  +6.6697013     23371.68     34666.73     35964.81     78.41905     156.5276     312.8687      1.587     3.41     831.9918      55.1427     3681.228        48     1.586     1.012 -52.37   0
       654    265.2867     41.4941 307.8301189  +6.6635675     9675.712      14543.5     16480.03     78.41905     156.9001     312.8997      1.644     3.51      840.313      55.1427      1403.05        41     1.584     1.017 -52.95   0
       655     30.4788     41.2253 307.9276761  +6.6557708     2348.447     3578.394      3527.62      78.1705      156.341     312.8064      1.574     3.65     842.8197      55.1427     382.1229        16     1.321     0.736 -57.41   0
       656    922.5663     41.0545 307.5570561  +6.6857826     2023.603     2766.442     2912.169     78.29488     156.4654     312.8064      1.519     3.74     826.1248      55.1427     315.6397        17     1.333     0.761 -48.19   0
       657    325.2797     41.6204 307.8051907  +6.6655327     1087.219      1581.71     2131.908     78.04592     156.1542     312.8376      1.633     4.19     839.1573      55.1427     164.6142        10     1.199     0.563 -53.71   0
       658    253.3096     38.2024 307.8352060  +6.6645236     3189.295     4704.768     5198.684     77.79617     156.1542     312.6198      1.541     3.24     840.3099      55.1427     479.5469        23     1.389     0.857 -52.60   0
       659    306.6585     36.0553 307.8131148  +6.6672042      1080.82      1598.19      1683.71     78.54304     156.4654     312.8376      1.509     3.54     839.7142      55.1427     171.9326         9     0.989     0.597 -36.75   0
       660    943.1912     31.2914 307.5488143  +6.6905023     1127.887     1631.417     1854.461     78.04592     156.1542     312.5886      1.553     4.48     825.2195      55.1427     150.1068        11     1.131     0.668 -53.70   0
       661    694.3913     30.8299 307.6522017  +6.6823719     1986.619     2889.551     3007.758     77.92115     156.2787     312.6509      1.482     3.60     828.2841      55.1427       296.74        17     1.308     0.797 -29.44   0
       662     99.3735     31.4471 307.8993859  +6.6621297     561.4151     673.7961     726.4972     78.04592     156.5276     312.7442      1.509     3.40     839.1771      55.1427     100.5689         5     1.043     0.320 -68.57   0
       663    205.6720     26.6828 307.8553861  +6.6676763      782.339     924.4875     831.3681     78.66682      156.776     312.8687      1.469     4.00      839.874      55.1427     147.9815         9     1.297     0.551 -57.72   0
       664    259.6805     25.7942 307.8329783  +6.6698604     788.2097     1240.086     1561.858     78.04592     156.0295     312.5886      1.853     4.29     840.2128      55.1427     130.4775         9     1.033     0.716 -39.80   0
       665    715.1456   1020.8438 307.6103137  +6.2743285     1141.028     1768.134     2553.353     78.41905     155.2167      276.304      1.808     5.95     859.3521      55.1427     146.8585        13     1.086     0.941 -31.52  19
       666    720.3618   1018.1769 307.6082377  +6.2756040     2697.946     4438.507     5507.119     78.04592     156.2165     303.8438      1.897     4.02     859.3189      55.1427     329.4001        27     1.522     1.038 -47.17  18
       667    928.3188     21.4457 307.5553240  +6.6940704      4448.22     6284.018     6241.745     78.41905     156.4654     312.8376      1.497     3.50     825.1733      55.1427     675.4147        23     1.447     0.787 -51.52   0
       668    465.2155     20.1603 307.7477771  +6.6790930     1764.477     2653.329     2570.623     78.04592     156.2787     312.6198      1.576     3.71     830.8665      55.1427     295.8249        17     1.393     0.733 -49.96   0
       669    729.3772     19.9514 307.6380316  +6.6880345     2000.555       2692.3      2526.46     78.04592     156.4654     312.7442      1.451     3.69       827.98      55.1427     338.0688        17     1.309     0.815 -55.10   0
       670    443.2687   1019.2433 307.7232348  +6.2658810     877.4699     1281.404     1158.391     78.41905     156.4032     294.4104      1.575     5.58     862.8886      55.1427      114.254        11     1.161     0.756 -53.41  16
       671    788.1876     16.2224 307.6137222  +6.6915421     559.8597     866.1844     773.6623     78.04592     156.2787     312.7442      1.695     3.35     827.6264      55.1427     86.19495         5     0.935     0.348 -45.50   0
       672    245.2860   1019.6592 307.8054089  +6.2590615     1503.736     2036.361     2098.312     78.41905     156.4654     290.1827      1.430     4.30      863.378      55.1427     225.8293        14     1.374     0.651 -34.18  16
       673    736.2570   1017.1736 307.6016725  +6.2765500     1102.001     1319.796     1628.052     78.04592     156.5276     310.4647      1.423     4.37     859.2128      55.1427     130.5895        13     1.119     0.806 -50.34  16
       674    366.9478   1015.5701 307.7550417  +6.2648363     1914.817     2802.668     3066.809     78.17049     156.5898     312.7753      1.602     3.83     862.4987      55.1427     277.7315        17     1.196     0.906 -55.06   0
       675    705.3953   1011.7715 307.6146661  +6.2777478     570.4333     791.0403     1323.598     77.92115     156.2787     312.6509      1.702     4.38     859.4185      55.1427     68.78864         5     1.182     0.462 -30.80   0
       676    753.8897   1005.0334 307.5947597  +6.2821520     7769.343     12225.22     13169.32     78.54304      156.341     312.8375      1.688     3.64     859.2134      55.1427     992.6603        39     1.606     1.073 -57.40   0
       677    519.5385   1006.9471 307.6919861  +6.2735152     1141.137     1886.299      2247.91     78.41905     156.4032     312.8064      1.836     4.32     862.7029      55.1427     185.3724        14     1.374     0.776 -47.40   0
       678    549.4017   1005.4772 307.6796380  +6.2751229     4162.192     6474.692     7547.795     77.79618     155.9047     312.6509      1.723     3.84     862.6337      55.1427     554.6196        29     1.571     0.955 -55.05   0
       679    299.6378   1004.2969 307.7833641  +6.2672301     15019.42     23285.24     25950.98     78.41905      156.341      312.993      1.726     3.84     863.5128      55.1427     2142.772        56     1.927     1.088 -42.71   0
       680    814.8777   1004.5920 307.5694550  +6.2843733     1064.789     1837.791     2025.682     78.04592     155.9671     312.6509      1.773     5.05     858.8776      55.1427     152.9529        16     1.497     0.893 -59.04   0
       681    423.7492   1004.8560 307.7318224  +6.2711660     914.2446     1437.478     1467.542     78.41905     156.4654     312.8375      1.741     3.82     862.7119      55.1427     162.1403        10     1.064     0.737 -57.83   0
       682    270.6915   1002.1501 307.7954529  +6.2671439     780.0636     1331.726     1219.641     78.29488      156.341     313.0241      1.543     5.35     863.4138      55.1427     137.1758         9     1.405     0.576 -77.47   0
       683    915.2201    998.5760 307.5279985  +6.2902094     8240.511     14012.79     15044.21      78.1705     156.2787     312.7753      1.839     4.05     857.3528      55.1427     1035.535        43     1.644     1.182 -57.52   0
       684    546.5597    997.9357 307.6810715  +6.2781413     8466.282      12951.1     14112.41     78.41905     156.4032     312.9308      1.632     3.72     862.5895      55.1427     1168.519        40     1.561     1.083 -49.41   0
       685    888.7625    994.7542 307.5391108  +6.2909037     11699.78     19794.93     21325.49      78.1705     156.4032     312.7442      1.851     3.90     857.3952      55.1427     1366.784        50     1.704     1.228 -50.00   0
       686   1010.5363    994.2108 307.4885726  +6.2951929     4274.635     7492.009     7574.065     77.92115     156.2787     312.7131      1.870     4.05     854.1717      55.1427     520.5703        37     1.615     1.200 -56.57   0
