#   1 NUMBER                 Running object number                                     
#   2 X_IMAGE                Object position along x                                    [pixel]
#   3 Y_IMAGE                Object position along y                                    [pixel]
#   4 ALPHA_J2000            Right ascension of barycenter (J2000)                      [deg]
#   5 DELTA_J2000            Declination of barycenter (J2000)                          [deg]
#   6 FLUX_APER              Flux vector within fixed circular aperture(s)              [count]
#   9 FLUXERR_APER           RMS error vector for aperture flux(es)                     [count]
#  12 FLUX_RADIUS            Fraction-of-light radii                                    [pixel]
#  13 FWHM_IMAGE             FWHM assuming a gaussian core                              [pixel]
#  14 BACKGROUND             Background at centroid position                            [count]
#  15 THRESHOLD              Detection threshold above background                       [count]
#  16 FLUX_MAX               Peak flux above background                                 [count]
#  17 ISOAREA_IMAGE          Isophotal area above Analysis threshold                    [pixel**2]
#  18 A_IMAGE                Profile RMS along major axis                               [pixel]
#  19 B_IMAGE                Profile RMS along minor axis                               [pixel]
#  20 THETA_IMAGE            Position angle (CCW/x)                                     [deg]
#  21 FLAGS                  Extraction flags                                          
         1    472.5396     46.1740 307.7478186  +6.6790924     1924.328     3067.204     2894.217     81.07951     162.5471      324.868      1.616     4.14     903.3327     57.28606      269.167        18     1.485     0.764  72.72   0
         2    663.9557     24.1079 307.6690221  +6.6946119     11114.61     16537.06     17501.94     81.46714     162.4825     325.1265      1.561     4.00     900.0649     57.28606     1588.145        33     1.533     0.910  74.31   0
         3    263.9596     21.0002 307.8353371  +6.6824917     6292.964     10317.35     10748.65     80.55976     162.2238      324.674      1.667     4.19      919.022     57.28606     875.5233        34     1.515     1.047  75.53   2
         4    655.5755     19.5825 307.6726567  +6.6962004     9326.813     13909.57     14691.38     81.20893     162.4178     324.9327      1.645     3.79     899.9963     57.28606     1392.395        34     1.542     0.943  74.40   0
         5    425.3775     19.5237 307.7683141  +6.6885171       8125.5     12578.65     12527.76     81.07951     162.4178     324.9004      1.665     3.85     906.1658     57.28606     1188.684        34     1.569     0.956  78.65   0
         6    685.3291     18.8682 307.6603168  +6.6974903     8145.119     12507.28      13090.5     81.46714     162.6763      324.965      1.600     4.09     899.4996     57.28606     1184.031        28     1.553     0.852  72.84   3
         7    688.7598     16.1617 307.6589822  +6.6987226     13358.91     20830.66     21898.66     81.20892     162.6117      324.868      1.632     3.94     899.2883     57.28606     1862.446        39     1.581     0.985  73.88   3
         8    741.0219     18.3872 307.6371901  +6.6995503     1931.409     2625.394     2336.373     81.20892     162.3532     324.9004      1.512     3.64     897.9043     57.28606     305.3216        15     1.269     0.761  64.89   0
         9    664.9974     15.4769 307.6688796  +6.6982110     3083.655     4481.693     5780.517     80.94988     162.0294      324.868      1.661     4.14      899.783     57.28606     487.5728        22     1.473     0.833  83.13   1
        10    203.8704     16.2861 307.8604644  +6.6824200     1125.977     1811.195     1193.908     81.59595     162.8053     325.0296      1.541     3.99      919.418     57.28606     159.8387        11     1.126     0.663  71.85   0
        11     71.8317     12.6010 307.9154524  +6.6795022     3361.434     5179.677     5693.984     80.82005     162.3532      324.771      1.635     3.93     919.6824     57.28606     467.8508        23     1.432     0.881  77.22   0
        12    954.3063     12.2074 307.5487666  +6.7092208      825.921      1325.39      1493.39     81.07951     162.2238      324.771      1.533     4.98     892.1323     57.28606     121.9761        12     1.307     0.659  67.67   0
        13    162.5907     10.1037 307.8778256  +6.6835857     5344.229     7960.005     7956.028     81.20892      162.159     324.8034      1.592     3.82     919.8165     57.28606     721.4338        27     1.465     0.920  73.77   0
        14     93.8760      9.7890 307.9063880  +6.6814050     680.3627     1048.776     533.5338     81.07951      162.159     324.8034      1.565     5.57     920.2502     57.28606     111.6816         8     1.360     0.757  71.21   0
        15    789.4193      8.6499 307.6174058  +6.7051881     1201.284     2316.175     1789.653     80.94989     162.6117     324.8357      1.946     6.04     897.2371     57.28606     171.7221        16     1.376     1.106 -46.34  16
        16    896.8757      6.5258 307.5728230  +6.7096519     2018.582     3169.886     3732.936     81.72454     162.8053     313.3165      1.699     4.47      894.434     57.28606     263.0359        20     1.452     0.879  80.15  16
        17    233.9252      6.1491 307.8483186  +6.6876157     962.2206     1480.718     1588.623     81.46714     162.6117     309.7773      1.766     5.04     919.1641     57.28606     137.6753        13     1.497     0.669  76.54  16
        18    642.7902      5.7761 307.6784341  +6.7014743     1101.936     1666.609     1403.336     81.07951     162.3532     305.9569      1.740     4.47     899.6669     57.28606     170.9939        10     1.320     0.528  71.96  16
        19    981.8833      3.2324 307.5376077  +6.7138464     797.9929     1298.929     1366.894     81.46714     153.9877     274.5909      1.778     5.21     889.2154     57.28606     132.3777        10     1.589     0.483  78.36  24
        20    848.7997      3.7842 307.5928934  +6.7091799     641.2652     1005.812     759.1368     81.07951     158.6234     281.8008      1.663     4.73     895.3175     57.28606     106.1028         7     1.203     0.528  72.84  16
        21    749.0531      3.6544 307.6343479  +6.7059027       1426.8     2027.515     2179.103     81.72454     157.8935     280.4935      1.566     4.46     897.4017     57.28606     204.7061        12     1.228     0.656  71.37  16
        22    269.0201    982.8660 307.8007754  +6.2854519      4356.47     6682.234     6718.952     81.07951     162.5471     324.9004      1.633     3.90     938.3455     57.28606     636.3954        26     1.486     0.906  77.61   0
        23   1018.1370   1020.2802 307.4884749  +6.2950374     4268.735     7783.329     9095.796     81.59595     162.6117     284.5082      2.002     4.54     920.5942     57.28606     479.2682        36     1.712     1.181  68.21  24
        24    922.4447   1023.3206 307.5281067  +6.2905939     5721.688     6757.294      7234.28     75.30448     134.5527     250.4285      1.178     2.65     930.9001     57.28606     1135.102        15     1.069     0.729   2.82  24
        25    896.2934   1020.7465 307.5390515  +6.2907852     11529.59     19399.52     20074.03     81.33814     161.8349     288.6126      1.792     4.04     930.4051     57.28606      1458.64        47     1.628     1.240  73.19  24
        26    553.8270   1022.9891 307.6811723  +6.2784227     7018.268     8572.163      8635.46     78.31237     139.1568     255.6576      1.262     2.79     935.6011     57.28606     1081.661        24     1.129     0.956   8.75  24
        27    479.2048    980.8925 307.7135720  +6.2933102     1071.226     1587.224     1357.261     81.07951     162.2238     324.7387      1.535     4.56     936.9004     57.28606      150.542        14     1.304     0.775  72.49   0
        28     37.7112    980.2249 307.8969020  +6.2787747     2056.794     3364.779     3483.012     81.59595     162.3532     324.8357      1.671     4.04     936.5638     57.28606     303.9661        20     1.443     0.899  84.30   0
        29    888.7029    979.0800 307.5435996  +6.3077395     887.1974     1231.275     1380.433     81.20892     162.8698     325.0619      1.618     5.33     928.4576     57.28606      111.558        10     1.017     0.856  47.38   0
        30    581.6633    975.5040 307.6712108  +6.2989637     1732.439     2762.558     2429.067     81.33814     162.6763     325.0619      1.724     4.81     934.8584     57.28606     255.7629        20     1.535     0.832  80.67   0
        31    304.9010    976.6360 307.7860877  +6.2892280     815.1286     1244.059     1100.205     81.46714     162.4178     325.1911      1.721     5.45     938.4131     57.28606     126.2739         9     1.374     0.610  58.83   0
        32   1012.8841    975.2724 307.4921625  +6.3134498     765.0603     1615.355     2348.277     81.59595     162.8698     325.0296      2.569     7.08      922.142     57.28606      102.108        10     1.327     1.059  55.54   0
        33    620.8882    971.9390 307.6550435  +6.3017474     1246.997     1657.815     1200.786     81.46714     162.7408     325.0296      1.482     4.86     934.4661     57.28606      184.353        11     1.318     0.571  66.82   0
        34     70.2264    972.4185 307.8836659  +6.2830913     866.8323     1468.942     2095.157     81.07951     162.3532     324.9004      2.013     4.15     936.8391     57.28606     143.2245        10     1.140     0.794  61.77   0
        35    300.6080    969.3281 307.7881165  +6.2921019     1379.353     2063.872     2067.245     80.94989     162.0942     324.9004      1.621     4.20      938.357     57.28606     245.0308        16     1.388     0.812  73.99   0
        36     65.3115    971.0482 307.8857528  +6.2834920     702.1829     1164.101      1581.53     81.46714     162.4178     325.0942      1.262     2.64     936.8118     57.28606     140.1292         5     0.748     0.417  71.10   0
        37    767.4046    965.3311 307.5944277  +6.3093708     846.6486     1250.375     785.7479     80.94989      162.159     324.8034      1.662     4.23     931.0372     57.28606     132.1696         7     1.095     0.465  61.35   0
        38    905.0822    962.0685 307.5373683  +6.3153109     6869.538     10874.23     10802.87     81.72455     162.8053     325.0296      1.644     3.81     927.3376     57.28606     888.6515        35     1.576     1.048  74.88   0
        39    114.6956    961.6672 307.8655658  +6.2890254     656.8649     872.6895     816.2564     81.46715     162.6763     324.9973      1.554     6.41     937.1985     57.28606     89.36499        10     1.356     0.852  78.53   0
        40    441.1820    959.1756 307.7300905  +6.3010055     2103.212     3346.014     3721.904     81.20892     162.4178     324.9327      1.626     4.66     936.5293     57.28606     294.4921        20     1.394     1.009  82.96   0
        41    609.9645    958.9059 307.6600173  +6.3067645      580.636     661.0519     498.2246     81.59595     162.4178     325.0942      1.541     5.38     934.4255     57.28606     91.48578         8     1.250     0.653 -79.60   0
        42    342.6244    957.4487 307.7710713  +6.2984164     9577.893     14601.74     15027.79     81.07951     162.5471     324.9004      1.646     3.96     938.0482     57.28606     1425.131        36     1.555     0.982  80.82   0
        43    262.6877    956.4000 307.8042971  +6.2961689     7110.554     10984.46     11594.21     80.69002     162.0294     324.6417      1.665     3.89     938.0826     57.28606     984.7509        32     1.537     0.979  79.95   0
        44    590.7964    950.9682 307.6682433  +6.3094016     1151.224     1616.409     1339.753     80.82005     162.4178      324.771      1.632     5.86     934.5228     57.28606     157.6244        13     1.236     0.841  61.94   0
        45    775.1476    950.2735 307.5917177  +6.3158477      775.596     1084.757     1170.577     81.46714     162.6117     325.0296      1.641     5.11     930.3548     57.28606     106.2715         9     1.162     0.637  71.57   0
        46    920.7983    946.8947 307.5313508  +6.3221013     1080.159     1760.658     2463.912     80.94988     162.2238     324.6093      1.782     4.13     926.0024     57.28606     147.7164        13     1.188     0.881  67.31   0
        47    153.1793    946.7429 307.8500914  +6.2964811     531.7527      801.382     628.3081     81.07951     162.4825     324.8034      1.628     4.49     937.3965     57.28606     73.07471         5     0.793     0.721  35.37   0
        48    877.2184    945.9238 307.5494796  +6.3210494     681.7154     1277.472     1507.724     80.94988     162.2885      324.965      1.757     5.22     927.4045     57.28606     81.84332         8     1.117     0.689 -59.53   0
        49    419.5135    945.1484 307.7395600  +6.3060725      601.356     915.9141     1429.839     81.46714     162.4178     325.0619      1.585     3.78     936.2744     57.28606     104.1202         6     0.824     0.498 -86.44   0
        50    849.8966    941.0408 307.5609885  +6.3221547     690.1235     1186.533     1405.749     81.46714     162.4178     325.1588      1.821     5.87     928.1246     57.28606     91.61896         9     1.201     0.808  33.92   0
        51    757.2283    940.3609 307.5994912  +6.3193431     1736.207     2752.195      2354.93     81.07951     162.2885      324.868      1.735     5.30     930.2214     57.28606       250.21        17     1.409     0.902  63.59   0
        52    580.1743    940.5267 307.6730049  +6.3133585     657.8768     1006.611     747.9495     81.07951     162.4178     324.9327      1.685     4.21     934.5215     57.28606     93.62189         7     0.879     0.604 -80.28   0
        53      7.7560    937.5474 307.9107816  +6.2953912     991.5093     1620.537     1850.616     81.46715     162.5471      322.239      1.586     6.09     936.8906     57.28606     143.0613        13     1.594     0.671  87.30  16
        54    988.4336    935.8995 307.5036336  +6.3288957     1292.082     2160.132      2457.81     81.46714     162.4178     325.1588      1.863     4.98     923.5795     57.28606     171.5239        17     1.430     0.914  69.78   0
        55    632.6070    936.3409 307.6513737  +6.3168401     485.4335     513.0562     182.3735     80.82005     162.4178     324.7064      1.459     3.49     933.6928     57.28606     87.11676         5     1.077     0.327  69.28   0
        56    621.2423    936.6461 307.6560825  +6.3163342     738.4984     1165.345      798.545     81.46715     162.5471     324.9327      1.726     4.68     933.9651     57.28606     99.83875         8     1.053     0.591  69.22   0
        57    542.1512    935.9807 307.6889461  +6.3139639     1172.262     1731.755     1558.825     80.94989     162.6117     324.8034      1.528     3.46      934.824     57.28606     190.3513        13     1.166     0.712  84.86   0
        58    675.7943    933.3975 307.6335396  +6.3194990     2476.865      3847.45     4384.356     80.82005     162.2238     324.8034      1.649     4.11     932.6172     57.28606     369.4266        21     1.440     0.868  81.86   0
        59     72.3340    929.5067 307.8842407  +6.3008828     3026.649      4934.13     5112.429     81.33814     162.7408     324.9973      1.761     4.12     937.0059     57.28606     461.2197        23     1.472     0.932  77.44   0
        60     89.6685    928.8423 307.8770658  +6.3017397     1941.393     3041.086     3331.832     81.46714     162.4825     325.0942      1.743     4.18     937.0095     57.28606     258.1415        20     1.434     0.855  79.56   0
        61    836.5090    929.7976 307.5669247  +6.3263513     951.4189     1373.317      1564.35     80.82005     162.2238     324.7387      1.628     5.54     928.1558     57.28606     118.8779        11     1.093     0.792  51.99   0
        62    215.8679    928.5627 307.8246762  +6.3060935     2294.079     3318.811     3544.991     81.33813     162.5471     325.1265      1.636     4.11       937.42     57.28606     314.1523        18     1.396     0.806  73.46   0
        63    953.7476    928.0651 307.5182994  +6.3309756     711.3131     1156.067     1319.351     81.46714     162.4825      324.965      1.570     4.92     924.0698     57.28606     100.1079         8     1.077     0.635 -86.54   0
        64    670.3450    922.6106 307.6361647  +6.3237716     7093.827     10689.45     10961.29     80.82005     162.4825      324.674      1.611     3.92     932.4011     57.28606     1117.859        30     1.582     0.875  77.07   0
        65    249.8438    925.2415 307.8106809  +6.3086052     919.4258      1315.29     857.6675     81.20892     162.5471      324.868      1.556     4.72     937.7104     57.28606     134.4532         9     0.979     0.646  67.04   0
        66    354.7634    924.0479 307.7671564  +6.3126166      906.149      1284.71     1835.479     81.20892     162.5471     324.9327      1.723     4.16     937.5018     57.28606     147.5921        11     1.173     0.630  76.58   1
        67    807.8495    923.5929 307.5790336  +6.3279575     815.4352     1340.828     2240.658     80.94989     162.3532     324.6093      2.375     6.24     928.8062     57.28606     107.4902        11     1.152     0.950 -83.50   0
        68     30.4269    920.8914 307.9019318  +6.3030317     1242.169     1838.728     1752.773     81.59595     162.2885      324.868      1.556     4.80      937.012     57.28606     190.3962        13     1.279     0.735  67.82   0
        69    908.1292    918.8572 307.5375511  +6.3332578     2744.578     4335.253     4798.836     81.59595     162.5471      324.965      1.694     4.37     925.3086     57.28606      376.839        23     1.568     0.863  75.14   0
        70    459.9450    919.8147 307.7236246  +6.3178885     562.2851     760.0345     217.5371     80.82005     162.4825     324.7064      1.264     3.86     935.4767     57.28606     90.72058         6     0.909     0.470  35.44   0
        71     43.3331    919.2731 307.8966278  +6.3041339     1048.333     1541.991     1377.185     81.59595     162.6763      324.965      1.533     4.49     936.9995     57.28606     151.2084         8     0.951     0.622  65.30   0
        72    353.3783    915.6855 307.7680133  +6.3160236     17003.15     25161.04     26213.03     81.46715     162.2885     324.9004      1.605     3.91      937.539     57.28606     2666.931        42     1.539     1.004  75.57   0
        73     88.1907    916.7114 307.8780892  +6.3066996     1423.797     2104.292     1895.867     81.07951     162.2238      324.771      1.606     5.36     936.9429     57.28606     184.9766        15     1.325     0.779  66.40   0
        74    224.3379    914.9848 307.8216174  +6.3119849     1269.213      1722.06     2050.435     80.94988     162.4825     324.8034      1.459     4.37     937.4528     57.28606     335.2491        14     1.443     0.640  75.61   0
        75    431.0106    906.3497 307.7360925  +6.3224801     1141.485     1684.776     1529.864     80.82005     162.4178      324.674      1.530     5.35     935.6451     57.28606     168.2863        12     1.507     0.608  76.89   0
        76    116.5961    906.2373 307.8666488  +6.3119794     1662.579     2647.662     2688.455     80.55977     162.2885     324.8034      1.707     4.22     936.9055     57.28606     231.9125        16     1.395     0.785  83.01   0
        77    511.8260    903.4858 307.7026313  +6.3263686     679.5786     1014.566     986.8716     81.59595     162.2885      324.868      1.462     4.92     934.6544     57.28606      101.278         9     1.186     0.579  64.30   0
        78    684.6356    902.5482 307.6309044  +6.3325344     907.5539     1324.578     2308.458     81.33814     162.5471     324.9327      1.486     3.86     931.0628     57.28606     128.0928         6     0.889     0.480  87.37   0
        79    898.4546    900.5768 307.5421812  +6.3404847     1993.015      2965.14     2935.824     80.94989     162.5471     324.8034      1.628     4.09     925.5161     57.28606      299.838        18     1.324     0.870  71.31   0
        80    869.1808    900.0974 307.5543535  +6.3397066     2235.083     3269.894     3026.091     81.33813     162.4178     324.7387      1.534     4.31     926.6777     57.28606     331.4899        18     1.474     0.777  77.84   0
        81    100.1872    899.7651 307.8736806  +6.3141008     2576.129     4063.947     4494.434     80.94988     162.3532     324.8034      1.684     4.28     936.8286     57.28606     375.1378        22     1.524     0.882  72.04   0
        82    832.5296    899.5129 307.5695928  +6.3387254     3053.174     4235.599      5101.06     81.59595     162.8053     325.0296      1.574     3.88     927.5315     57.28606      457.626        23     1.421     0.883  79.63   0
        83    404.0756    914.1169 307.7470152  +6.3183703     706.7258     1217.104     1208.692     81.59595     162.8698     325.0942      1.813     5.18     936.1436     57.28606     129.3895         7     1.086     0.697  44.38   0
        84    347.8943    897.7960 307.7708933  +6.3232275     775.5817     1171.953     1626.969     81.20892     162.2238     324.7387      1.416     4.62     937.5289     57.28606     146.4344         7     1.233     0.492  72.73   0
        85    568.4521    890.9205 307.6795403  +6.3334523     345066.3     514257.1     537891.7     81.46714     162.5471     324.9973      1.605     5.15       933.58     57.28606     52644.39       165     1.717     1.205  77.08   4
        86    412.6678    893.5029 307.7441417  +6.3271710     7792.708     11753.75     12059.12     81.46715     162.6117     324.9973      1.603     4.03     935.8372     57.28606     1213.733        32     1.541     0.914  74.73   0
        87    656.1726    894.0475 307.6430093  +6.3350938     1259.296     1692.369      1907.58     81.07951     162.6117     324.9327      1.589     5.65     931.5912     57.28606     165.8099        12     1.187     0.758  63.40   0
        88    355.8945    891.8890 307.7677704  +6.3259350     12900.26     19622.67     20213.48     81.46714     162.9987     325.0619      1.577     4.05      937.405     57.28606     1686.978        38     1.554     0.982  77.73   0
        89    674.3179    888.3188 307.6356669  +6.3380660     3559.543     5553.613     5914.291     81.46715     162.8053     325.0942      1.659     4.24      930.674     57.28606     537.7068        22     1.520     0.791  75.58   0
        90    906.7597    887.1275 307.5391831  +6.3463159     5254.806     8358.719      9074.18     81.33813     162.5471     325.0619      1.707     3.96     924.9945     57.28606     702.9115        33     1.580     1.004  72.70   0
        91    746.1978    884.8658 307.6059342  +6.3418929     874.2325     1169.644     1094.002     80.82005      162.159      324.771      1.406     4.87     929.0908     57.28606     147.7709         9     1.221     0.848  59.94   0
        92    649.0724    882.2050 307.6463555  +6.3397472     3480.402      5101.36     5818.521     81.07951     162.0942     324.9004      1.555     4.02     931.3885     57.28606     540.8324        22     1.414     0.857  76.29   0
        93    837.4558    881.4444 307.5681531  +6.3463517      1726.45     2677.299     2926.162     81.46715     162.5471     324.9973      1.792     4.33     927.0015     57.28606     233.3525        15     1.298     0.752  73.31   0
        94    965.2384    880.9191 307.5151068  +6.3508288     611.6722     1026.739     1063.864     81.46714     162.6117     324.9327      1.723     4.46     922.6842     57.28606     113.2754         6     1.170     0.485  37.67   0
        95    639.4829    880.9598 307.6503795  +6.3399408     999.5703     1791.748     2397.109     81.46714     162.6117     324.9327      2.184     3.42     931.7594     57.28606     150.0088         9     0.981     0.680  71.64   3
        96    641.9852    876.7359 307.6494823  +6.3417689     2239.069     3573.298     4814.217     80.94989     162.4178      324.868      1.831     5.23     931.4943     57.28606     285.4833        19     1.629     0.772  80.05   2
        97    925.6260    874.8952 307.5317585  +6.3519964       3200.7       5017.6     5603.263     81.59595     162.2885      324.868      1.733     3.98     924.1503     57.28606     425.4277        25     1.472     0.924  73.06   0
        98    335.8326    875.2743 307.7766607  +6.3321238     1004.626     1543.115     969.3931     81.33813     162.5471      324.965      1.698     5.42      937.506     57.28606       141.27        11     1.205     0.688  78.17   0
        99    383.7160    870.7514 307.7569299  +6.3355966     2722.721     4172.504     4190.855     81.46715     162.5471     325.0296      1.623     4.08     936.5772     57.28606     341.4092        20     1.391     0.869  80.59   0
       100    520.0975    860.6797 307.7006367  +6.3443230     3249.583     4949.596      5230.61     81.20892     162.8698     325.0296      1.681     4.03     933.7282     57.28606     497.0188        23     1.481     0.881  70.32   0
       101    351.8035    862.6422 307.7704546  +6.3378758     552.7505     980.8469     1163.938     80.82005     162.2238      324.674      1.610     3.68     937.3844     57.28606     81.76068         5     0.998     0.390 -85.21   0
       102    864.7516    859.6201 307.5575498  +6.3562751      1149.99     1479.804     1653.639     80.94989     162.6117     324.8034      1.400     3.60     926.0623     57.28606     160.0281        10     0.957     0.685  82.36   0
       103    566.9105    856.7845 307.6813283  +6.3474979      6151.63     9513.544     10155.38     81.20892     162.3532     324.8357      1.651     4.22     932.6796     57.28606     835.7699        31     1.559     0.973  77.44   0
       104    585.5643    858.1405 307.6735365  +6.3475618     957.2714     1466.886     1002.404     81.46714     162.5471      324.965      1.723     5.69     932.5147     57.28606     128.4183        11     1.278     0.778  65.33   0
       105    573.5363    855.7881 307.6786104  +6.3481310     1167.988     1826.425     1972.387     80.94989     162.3532     324.8034      1.446     4.61     932.5677     57.28606     171.0148        12     1.308     0.614  77.75   0
       106    484.5930    855.7241 307.7155469  +6.3451811     1626.557     2422.159     2084.865     81.07951     162.0294      324.868      1.494     3.87     934.5601     57.28606      280.306        13     1.271     0.736  64.70   0
       107    278.1294    856.3143 307.8012606  +6.3380184     726.6169     1178.649      1569.71     81.59595     162.8053     325.0296      1.734     5.22     937.5316     57.28606     113.8239         8     1.321     0.583  65.57   0
       108    902.6475    854.5931 307.5419811  +6.3596148     1364.686     2273.031      2202.28     80.94989     162.3532     324.6093      1.859     5.00     924.5328     57.28606     205.4421        19     1.521     1.032  72.89   0
       109    126.2792    854.6887 307.8643692  +6.3335920     1194.957     1775.551     1466.394     81.20893     162.8053     325.1265      1.495     5.39     936.5451     57.28606     198.4912        12     1.286     0.694  81.56   0
       110    702.7521    854.4097 307.6249981  +6.3530195     700.2822     1200.326     1170.608     80.94989     162.4178     324.6417      1.637     4.68     929.0272     57.28606     117.2172         6     1.378     0.452  67.56   0
       111    537.5357    850.6163 307.6937339  +6.3490624      20062.3      30275.7     31365.86     80.94989     162.4178      324.868      1.617     4.04     932.9445     57.28606     3259.769        44     1.563     1.001  78.86   0
       112    378.8746    852.0765 307.7595694  +6.3431464     786.9844     903.2231     393.7708     81.72454     162.8053     325.0619      1.424     5.61     936.4263     57.28606     141.8671         9     1.269     0.698  55.40   0
       113    951.3571    849.0842 307.5219378  +6.3635134     3691.845     5824.292      6177.21     81.46714     162.4825      324.965      1.703     4.11     922.4232     57.28606     523.2223        26     1.574     0.908  75.18   0
       114     71.1702    846.8175 307.8875180  +6.3349905     538.1854     783.0926     543.2298     81.07951     162.3532     324.9327      1.570     3.42     936.6489     57.28606     88.68036         5     1.001     0.337  46.20   0
       115     47.9418    841.2399 307.8973516  +6.3365129     1299.987     1807.661     1857.103     81.46714     162.6117     325.0619      1.608     5.81     936.7321     57.28606     173.2974        12     1.503     0.633  80.96   0
       116    330.1859    839.3414 307.7802166  +6.3467734     3416.029     5079.999     5086.042     80.82005     162.4825     324.7064      1.565     3.94     937.0532     57.28606     525.7427        23     1.380     0.887  73.61   0
       117    795.7564    835.1851 307.5870214  +6.3640643     54872.97     84253.68     88252.77     80.82005     162.3532     324.7387      1.622     3.94     926.0462     57.28606      7758.18        67     1.618     1.087  76.32   0
       118     30.0610    837.1985 307.9049129  +6.3375806     1993.533     3193.327     3292.399     80.82005     162.3532     324.7064      1.660     4.99     936.7937     57.28606     283.8877        16     1.474     0.704  84.85   0
       119    253.0145    832.8726 307.8124801  +6.3468564     5334.263     8748.996     10659.18     80.94989     162.2885      324.868      1.862     4.44     937.4682     57.28606     720.6304        37     1.805     1.010  74.19   0
       120    438.9944    833.8997 307.7352167  +6.3526670     1016.417     1493.595     1096.797     81.20892      162.159     324.6417      1.498     4.10     934.7424     57.28606     167.6372        14     1.311     0.742  61.37   0
       121    921.0146    830.4412 307.5351631  +6.3702013     8640.584     13474.64     14293.78     80.94988     162.3532     324.7387      1.658     4.01     923.0621     57.28606     1129.769        34     1.576     0.987  77.86   0
       122    723.9498    829.8209 307.6170210  +6.3638821     21605.33     33516.46     35347.28     80.94989     162.6117      324.868      1.613     4.05     928.1165     57.28606     3042.771        50     1.617     1.059  75.19   3
       123    717.6721    826.2719 307.6197472  +6.3651381      90458.5     134876.6     140698.7     81.72455     162.6763      324.965      1.618     3.95      928.091     57.28606      13420.3        74     1.631     1.061  77.22   3
       124    362.5367    827.1339 307.7671942  +6.3528992     21133.97     31866.93     33868.76     81.46714     162.5471     324.9973      1.603     3.98     936.2701     57.28606     3111.202        44     1.550     1.010  75.10   0
       125    424.4533    824.9700 307.7415557  +6.3558676     22815.14     34522.76     35400.61     81.20892     162.6117     324.9327      1.607     3.99     934.8417     57.28606     3525.872        51     1.578     1.035  76.70   0
       126    411.6143    827.1662 307.7468133  +6.3545305     1494.693     2100.098      1532.53     81.07951     162.2885      324.868      1.480     3.36     935.1265     57.28606     231.7809        12     1.175     0.642  70.68   0
       127    651.4184    826.3068 307.6472595  +6.3629100     835.9838     1373.424     1435.082     81.33814     162.2885      324.868      1.780     5.41     929.4358     57.28606     126.0947         9     1.246     0.662  67.13   0
       128    961.5110    823.8680 307.5185657  +6.3742655     1997.943      3000.87      3524.91     81.59595     162.7408      324.965      1.688     4.49     921.1456     57.28606      242.223        20     1.332     0.952  79.82   0
       129    252.5452    811.4986 307.8133960  +6.3556672     765931.9      1695299      1874523     81.33814     162.5471     325.2557      2.260     6.33     937.4422     57.28606      64019.1       563     2.539     1.932  80.37   4
       130    890.6398    822.6729 307.5480377  +6.3723968     775.8284     1148.226     862.2346     81.33814     162.6117     325.0619      1.359     4.17     923.7463     57.28606     124.1212         8     0.968     0.610 -75.30   0
       131    658.4644    820.9134 307.6445147  +6.3653728     6658.979      9960.13     10222.33     81.46714     162.7408     324.9973      1.590     4.06     929.0704     57.28606     1029.336        26     1.534     0.834  77.53   0
       132    447.0988    818.7600 307.7323610  +6.3591906     1686.095     2464.082     2325.348     81.46714     162.4178     325.2234      1.515     3.59     934.2607     57.28606      245.394        16     1.224     0.814  72.59   0
       133    917.9118    821.8326 307.5367401  +6.3736530     6572.917     10156.36     11138.79     81.59595     162.3532     324.9973      1.641     3.82     922.8839     57.28606     927.1719        32     1.600     0.937  76.02   1
       134    172.2483    818.0998 307.8465165  +6.3502457     803.4615     1322.089     1071.735     81.46714     162.4178     325.1911      1.696     5.82     936.2768     57.28606     105.5652        10     1.474     0.646  88.85   0
       135    611.5936    813.0312 307.6642439  +6.3670611     906.7517     1296.457     2059.805     80.82005     162.3532      324.771      1.742     5.12     930.0836     57.28606     139.6161        11     1.264     0.732  66.10   0
       136    693.6611    811.1072 307.6302277  +6.3705987     2495.859     3713.125     3747.118     81.33813     162.5471     325.0619      1.514     4.09     928.0612     57.28606     400.1661        19     1.441     0.768  69.29   0
       137    162.7393    811.8082 307.8506775  +6.3525246     1028.734     1602.409     1625.132     80.82005     162.3532      324.771      1.589     5.11     935.9995     57.28606     182.5034        10     1.398     0.529  72.45   0
       138    137.5907    811.5957 307.8611276  +6.3517676     1120.211     1637.838      1020.28     80.82005     162.2238     324.8357      1.593     4.66     936.0864     57.28606     185.7871        13     1.372     0.704  65.91   0
       139    886.2013    812.1740 307.5502329  +6.3765846     552.5787      793.506     1065.204     81.07951     162.2238      324.771      1.273     3.07     923.4784     57.28606     94.94922         6     0.742     0.566  37.04   0
       140    427.3638    807.6305 307.7409310  +6.3631257     55406.84     83096.49     87254.22     81.07951     162.2885     324.8357      1.622     3.90     934.4675     57.28606     8998.483        71     1.628     1.092  76.81   0
       141    970.4438    809.6000 307.5153339  +6.3804555     996.8734     1541.219     1498.535     80.69002      162.159      324.577      1.856     5.65     920.3624     57.28606     115.8038        12     1.084     0.830  60.31   0
       142    545.0319    806.6972 307.6920983  +6.3674505     7184.631     10761.24     10911.92     81.59595     162.4178     325.0942      1.580     4.12     931.5344     57.28606     1136.238        30     1.526     0.946  80.99   0
       143    461.8684    805.3508 307.7266791  +6.3652228     4744.252     7074.671     7650.692     81.33813     162.4825     324.9973      1.562     3.89     933.5882     57.28606      685.762        24     1.428     0.859  73.30   0
       144    790.3568    803.3190 307.5903330  +6.3770440     11719.23     17809.17      18561.5     81.46715     162.5471      324.965      1.653     4.02     925.0173     57.28606     1789.739        39     1.559     0.998  73.79   0
       145     19.8505    799.7432 307.9104190  +6.3527045     1218.373     2020.322     2084.342     81.46714     162.5471     324.9973      1.790     5.28     936.5251     57.28606     164.0842        11     1.269     0.620  75.90   0
       146    458.4050    798.6067 307.7283444  +6.3678919     2376.762     3671.147     3724.322     80.69002     162.2885     324.8357      1.617     4.82     933.5031     57.28606     367.1702        16     1.355     0.758  80.23   1
       147    148.0599    795.2664 307.8573317  +6.3588625     11699.25     18083.84     19712.84     81.59595     162.4825     324.9973      1.654     4.24     935.7922     57.28606     1739.439        42     1.625     1.022  79.56   0
       148    812.0569    797.2713 307.5815241  +6.3802658     1323.453     1966.013     1501.767     81.59595     162.5471      324.965      1.566     4.03     924.2603     57.28606     226.1179        15     1.322     0.747  85.34   0
       149    156.2762    795.5675 307.8539097  +6.3590142     2986.491     4512.371     4689.131     81.33814     162.5471     324.9327      1.579     4.43      935.749     57.28606     402.0262        21     1.528     0.789  77.42   0
       150    935.8376    791.8826 307.5302993  +6.3866193     6404.189     9950.331     10245.43     81.46714     162.4825      324.965      1.636     3.77     921.2375     57.28606     810.1407        30     1.529     0.964  72.96   0
       151    984.9350    792.0323 307.5099042  +6.3881935     1331.352     2186.065     3081.906     81.33813     162.5471      324.965      1.845     5.60      919.373     57.28606     187.8169        14     1.410     0.669  72.50   0
       152    140.1631    792.3973 307.8607078  +6.3597821     2999.484     5052.394     6317.588     80.55976     162.3532     324.8034      1.895     4.77     935.8027     57.28606     442.5896        24     1.490     0.977  76.61   3
       153    140.2495    786.0909 307.8608849  +6.3623892     1893.186     3078.759      3640.86     81.46714     162.3532     325.1588      1.704     4.74     935.7015     57.28606     315.7219        18     1.496     0.759  73.33   3
       154    691.2809    789.4557 307.6319434  +6.3794606     1851.272     2666.447     3037.441     81.46715     162.5471     325.0296      1.543     4.63     927.5602     57.28606     257.6038        16     1.263     0.945  69.81   0
       155    578.3006    788.8094 307.6788842  +6.3759506     2227.962     3252.221      3316.06     81.20892      162.159     324.8034      1.493     4.17     929.9948     57.28606     356.4116        18     1.395     0.859  75.24   0
       156    426.1331    788.1379 307.7420985  +6.3711343      1242.58      1981.29     1796.593     81.46714     162.4825     324.9973      1.651     4.14     933.8229     57.28606     193.0769        16     1.269     0.879  79.27   0
       157    709.6524    786.3954 307.6244167  +6.3813382     560.4244     713.3857     972.4651     80.82005     162.2885     324.6093      1.529     4.20     927.0327     57.28606      100.507         5     1.066     0.473 -86.61   0
       158    930.1341    784.0007 307.5329321  +6.3896843     2888.876     4325.483     4914.127     80.69002      162.159     324.7387      1.636     4.24     921.1529     57.28606     442.0524        20     1.436     0.814  71.68   0
       159    228.8783    785.4956 307.8241011  +6.3656112     603.1962     1439.596     2972.125     81.20892     162.8053     325.0296      4.307     6.94     936.7278     57.28606     109.6803         9     1.222     1.105 -71.09   0
       160    959.6353    783.3633 307.5207016  +6.3909307     3005.418     4799.992     4639.935     81.20893     162.3532      324.771      1.707     4.02     920.1284     57.28606     423.5598        25     1.499     0.954  63.60   0
       161    990.1865    782.9055 307.5080289  +6.3921376     1916.878     3233.186     3406.589     81.20892     162.2885     324.8357      1.748     3.43      919.143     57.28606     330.1002        19     1.257     1.002  75.22   0
       162    682.3321    782.9295 307.6358790  +6.3818568     1506.463     2295.524     2344.662     81.46714     162.6763      324.965      1.728     4.74     927.6359     57.28606     210.2983        15     1.373     0.769  66.22   0
       163    829.5804    781.6246 307.5747716  +6.3873122     1079.865     1673.486     1645.844     81.07951     162.3532     324.9327      1.610     4.33     923.6557     57.28606     200.7018        13     1.297     0.733  82.71   0
       164    254.8589    778.1038 307.8135617  +6.3695356      1864.23     2860.554     3550.163     81.33813     162.5471     325.0942      1.638     4.23     936.4205     57.28606     257.8641        17     1.394     0.741  80.95   0
       165    170.6579    773.3129 307.8486890  +6.3686874     773.2388     1183.391     720.8058     81.46715     162.5471     325.1265      1.652     5.49      935.436     57.28606     130.2522        10     1.660     0.628  82.60   0
       166    947.8510    773.1103 307.5259391  +6.3947722     1241.677     1899.791     2027.467     81.46714     162.3532     325.1265      1.642     3.60     920.2354     57.28606     166.3632        15     1.181     0.833 -88.50   0
       167    921.5899    772.3229 307.5368719  +6.3942221      1128.09     1710.903     1944.287     81.07951      162.159     324.8357      1.742     4.21     920.9423     57.28606      204.434        11     1.226     0.687  71.05   0
       168    275.2390    773.4763 307.8052546  +6.3721304     840.5684     1257.745     1273.804     81.33814     162.5471     325.0296      1.688     4.53      936.201     57.28606     166.3896         8     1.176     0.495  59.86   0
       169    974.4800    771.1114 307.5149469  +6.3964851     2258.025     3457.183     3690.842     81.20892     162.8053     325.0942      1.639     4.30     919.5045     57.28606     323.4303        18     1.332     0.821  63.76   0
       170    693.9836    770.1120 307.6314708  +6.3875394     933.5122     1488.902     2251.983     81.20892     162.2885     324.8357      2.297     6.18     926.9877     57.28606      141.885        14     1.500     0.717  80.01   0
       171    414.4562    765.8845 307.7476972  +6.3799330     666.2709     985.1422     659.7612     81.46714     162.5471     325.1265      1.916     5.16     933.1729     57.28606     93.20178         8     1.408     0.534  59.23   0
       172   1016.1307    764.5731 307.4978680  +6.4005726     1691.279     2623.811     2967.346     81.07951     162.4178     324.9004      1.634     4.39     918.4802     57.28606     247.1953        16     1.381     0.763  66.05  16
       173    485.2730    765.7631 307.7182923  +6.3823549     676.7756     1204.673     694.4651     81.33814     162.5471     325.0619      1.741     4.13     931.5874     57.28606      94.2265         6     0.733     0.663  24.37   0
       174    817.7388    762.8986 307.5803176  +6.3946505     1231.389     1948.494     1849.698     81.20892     162.5471     325.1265      1.606     5.51     923.4167     57.28606     172.5395        15     1.531     0.824  73.80   0
       175    642.4730    764.4511 307.6530530  +6.3881557     653.1234     831.8495     519.4814     81.46715     162.6117     325.0296      1.613     5.40     927.9017     57.28606     90.07214         8     1.223     0.674  60.10   0
       176    903.7900    760.5027 307.5446604  +6.3985102      1547.25      2193.04      2456.52     81.20893      162.159     324.8357      1.595     4.97     921.1542     57.28606     232.3773        15     1.482     0.673  75.14   0
       177    878.2676    755.4802 307.5554285  +6.3997333      905.658      1302.66     1275.085     81.59595     162.8053     324.9973      1.699     5.28     921.8892     57.28606     151.4791        10     1.311     0.601  68.68   0
       178    860.6576    751.8883 307.5628625  +6.4006294     1484.998     2218.216     2270.163     81.46714     162.4825     325.1265      1.622     4.28     922.3543     57.28606     218.9941        18     1.412     0.821  62.33   0
       179     59.8154    750.5576 307.8954863  +6.3743598     2755.031     4166.581     4451.413     80.94989     162.2885      324.771      1.582     3.71     936.0255     57.28606     377.8391        21     1.474     0.839  76.87   0
       180    124.0901    750.6445 307.8687925  +6.3764842      1072.47      1887.68     2218.032     81.46714     162.4178     325.0942      2.136     4.86     935.2755     57.28606      191.877        15     1.425     0.788  71.09   2
       181    471.8227    749.6974 307.7244189  +6.3885392     587.1008     826.6169     593.3846     81.46714     162.2885     324.8034      1.166     3.96     931.2837     57.28606     92.63354         6     1.241     0.361  61.17   0
       182    577.4962    744.9681 307.6806925  +6.3940289     518.6705     678.8199     563.9143     81.59595     162.4178     325.0942      1.316     3.75     928.3199     57.28606     88.25891         6     0.811     0.499 -87.07   0
       183    672.5336    739.1624 307.6414187  +6.3996040      6269.58     9291.899     9574.628     81.33813     162.4825     325.0942      1.602     3.94     927.1251     57.28606     1012.363        28     1.528     0.886  77.59   0
       184    530.1252    738.9395 307.7005684  +6.3949336     821.2726     1257.437      1166.78     81.72454     162.5471     324.9973      1.620     5.62      929.229     57.28606      135.972         9     1.515     0.587  64.90   0
       185    619.1339    738.7252 307.6636104  +6.3979995     1335.936     2103.946     2393.169     81.59595     162.5471      324.965      1.680     4.84     927.3493     57.28606     202.1326        13     1.312     0.663  75.12   0
       186    541.0300    738.6670 307.6960488  +6.3954111     709.3724     1063.067     365.2666     81.20892     162.5471      324.965      1.519     4.89     928.9034     57.28606     100.9612         9     1.398     0.484  66.75   0
       187    135.4251    735.1439 307.8646090  +6.3832661     3667.998     5855.941     6047.267     81.07951     162.5471     324.8034      1.664     4.14     934.9124     57.28606     576.6766        27     1.611     0.862  85.37   0
       188    646.3042    735.0405 307.6524503  +6.4004295     2016.937      3138.02     2733.386     81.46714     162.4178     325.1588      1.641     4.22     927.0938     57.28606     355.3348        19     1.458     0.820  78.66   0
       189   1009.5734    734.6114 307.5015946  +6.4127278     2489.701     4027.395     4054.289     81.07951     162.3532     324.9327      1.719     4.48     918.7158     57.28606      336.389        23     1.494     0.931  67.63   0
       190    789.3248    731.3414 307.5931770  +6.4067346     20655.08     30713.88     31977.34     81.59595     162.5471      324.965      1.615     3.92      923.241     57.28606     3359.086        46     1.590     0.975  76.18   0
       191    257.5958    733.8692 307.8139175  +6.3878946     648.8318     982.1036     1147.965     80.82005      162.159      324.771      1.488     3.47     934.5508     57.28606     98.84479         5     0.791     0.440  70.63   0
       192    919.3434    730.9534 307.5391914  +6.4112320     3685.669     5716.428     5623.631     81.46714     162.5471     325.0942      1.602     4.17      919.647     57.28606     578.2743        22     1.465     0.857  74.43   0
       193    488.4125    731.7049 307.7181349  +6.3965250     1357.789     2060.424     2264.404     81.20893     162.2885     324.8357      1.694     4.58     930.2239     57.28606     225.5845        13     1.400     0.609  77.52   0
       194    516.6149    730.9032 307.7064495  +6.3978002     853.2713     1274.721     1294.018     81.20892     162.2885      324.771      1.774     4.83     929.3013     57.28606     127.6666         9     1.231     0.537  72.46   0
       195    290.6864    731.2367 307.8002644  +6.3900920     595.6776     616.6627     691.4077     81.46715     162.4825     324.9973      1.380     4.15     934.4273     57.28606     81.81305         6     1.082     0.454  84.46   0
       196    978.7675    727.3519 307.5146321  +6.4146997     500.6736     770.9357     457.7227     81.20893     162.5471     324.9327      1.496     4.33     918.6646     57.28606     81.80719         5     0.969     0.552  51.11   0
       197    669.8962    724.0668 307.6430212  +6.4057499     7048.651     10750.79     11447.38     81.46714     162.6117     325.0296      1.606     3.99     926.3739     57.28606     1028.022        29     1.556     0.891  75.22   0
       198    262.7926    724.8184 307.8120647  +6.3918066     6226.436      9555.35     10334.48     81.07951     162.2238     324.8357      1.623     4.07     934.3387     57.28606     838.0264        28     1.540     0.892  78.80   0
       199    652.0781    725.2156 307.6503826  +6.4046800     865.9841     1300.371     1071.961     81.07951     162.2885     324.8357      1.535     5.73     926.5753     57.28606     146.4273        10     1.211     0.764  81.77   0
       200    364.9708    723.9641 307.7696602  +6.3955863     641.0973     947.9329     707.2169     81.07951     162.2885     324.8034      1.431     4.61     932.5938     57.28606      121.411         7     1.422     0.425  77.86   0
       201    929.5647    716.7658 307.5354218  +6.4174319     1143.397     1702.361     1901.947     81.20893     162.2885     324.7387      1.622     4.72     919.1083     57.28606     179.6031        11     1.314     0.611  75.01   0
       202    741.5386    712.5359 307.6136546  +6.4129053     3806.863     5741.046     5981.265     81.46715     162.5471     325.0296      1.644     3.87     923.6742     57.28606     536.3298        24     1.528     0.854  80.81   0
       203    696.9028    712.9002 307.6321803  +6.4112639     1156.982      1726.92     2086.563     81.46714     163.0631     324.8357      1.572     4.85     924.9841     57.28606     167.6513        13     1.411     0.601  70.67   0
       204   1007.9460    709.1433 307.5031234  +6.4231915     8754.845     13640.13     13984.87     81.59595     162.5471     325.0296      1.645     3.88     917.4651     57.28606     1201.741        35     1.568     1.004  70.47   0
       205      6.8397    711.3383 307.9188113  +6.3887738     650.6196     1076.462     888.3058     81.46714     162.5471     315.9865      1.415     3.93     936.3929     57.28606     144.9396         6     1.244     0.356 -85.71  16
       206    946.2538    709.4772 307.5287347  +6.4209982     2434.314     3719.248      3838.07     81.59595     162.5471     324.9973      1.602     4.25     918.7058     57.28606     369.6246        19     1.516     0.788  74.66   0
       207     26.9971    708.6956 307.9105299  +6.3905432     1770.721     2828.716     3684.416     81.20892     162.2238      324.674      1.968     4.34     936.1313     57.28606     250.7463        16     1.309     0.901  71.57   0
       208    546.4188    704.7809 307.6949508  +6.4095853     2057.498     3120.692     3393.589     81.20893     162.4825     324.9327      1.633     5.13       927.31     57.28606     296.1411        16     1.434     0.752  75.78   0
       209    443.5248    706.6895 307.7376190  +6.4053523     650.2972     785.5082    -91.01317     81.46715     162.8698     325.0942      1.316     2.84     930.3766     57.28606     114.3317         5     0.752     0.685  37.30   0
       210     85.2493    703.8875 307.8865018  +6.3944874     25586.53     39153.37     40936.37     81.46714     162.4178     325.0619      1.642     4.11     935.4346     57.28606     3783.315        48     1.625     1.007  77.19   0
       211    515.2451    702.1919 307.7079846  +6.4096112     1414.546     2094.301     2020.679     80.94989     162.4178     324.7064      1.552     4.70     928.2473     57.28606     208.2833        15     1.320     0.757  81.58   0
       212    936.2278    701.2273 307.5331752  +6.4240710     1013.972     1411.368     1078.338     80.94988     162.3532     324.8357      1.605     5.35     918.7999     57.28606     177.0846        11     1.242     0.650  84.22   0
       213    555.3987    698.7336 307.6914248  +6.4123831     983.7639      1550.95     1490.818     80.82005      162.159      324.771      1.505     4.02     926.9116     57.28606     160.1479        11     1.197     0.686  83.32   0
       214    731.1909    696.0709 307.6185050  +6.4193593     3626.513     5424.828     5630.875     80.94988     162.0942     324.8357      1.524     4.15     923.6307     57.28606     582.8068        21     1.483     0.784  76.12   0
       215    753.3147    694.4182 307.6093720  +6.4207807     4162.754     6119.816     6287.573     81.07951     162.2885     324.9327      1.595     4.16     923.1885     57.28606     656.6064        22     1.462     0.818  76.29   0
       216    420.8204    693.1207 307.7475052  +6.4101952     1421.048     2197.691     2303.869     81.07951     162.2238     324.9973      1.599     4.66     930.4125     57.28606     205.8195        16     1.535     0.735  81.37   0
       217    584.7153    692.2993 307.6794657  +6.4160211     3443.424     5097.377     5411.484     81.46715     163.0631     325.0942      1.600     3.76     926.1826     57.28606     521.8893        20     1.354     0.819  75.51   0
       218    328.8721    691.4284 307.7857485  +6.4078121      1502.46     2196.731     2165.809     81.33813     162.5471      324.965      1.533     4.51     932.3938     57.28606     212.9111        14     1.362     0.731  71.93   0
       219    245.3044    691.9656 307.8204358  +6.4047867     1814.464     2937.201     2718.834     81.59595     162.4178     325.0942      1.654     4.01     933.6102     57.28606     288.9547        16     1.313     0.769  74.88   0
       220    991.5447    689.4490 307.5105950  +6.4307785     8171.541     12375.74     12510.42     81.46715     162.5471     325.0619      1.649     3.93     916.9695     57.28606     1215.745        33     1.560     0.969  74.30   0
       221    545.1315    690.1974 307.6959761  +6.4155648     692.2067     1045.216     1220.937     80.82005      162.159      324.771      1.731     5.40     926.6821     57.28606     101.8456        10     1.192     0.691 -88.16   0
       222    711.4248    688.2261 307.6269778  +6.4219388     1004.865     1451.397      1226.53     80.94989     162.3532     324.9327      1.590     5.20     923.7626     57.28606     145.0146        11     1.221     0.716  66.70   0
       223    102.6956    685.7115 307.8798709  +6.4025797     839.8239     1288.711     1051.191     81.46715     162.9343     325.0296      1.728     6.94     935.1461     57.28606     100.3917        14     1.562     0.865 -84.95   0
       224    436.8155    683.7608 307.7411776  +6.4145964     2928.115     4416.539     4732.659     81.07951     162.3532     324.7387      1.639     4.01     929.7825     57.28606     438.3364        22     1.440     0.938  85.55   0
       225    149.9872    682.8406 307.8603283  +6.4053543      24087.1     37169.28     39061.59     80.94989     162.3532     324.7387      1.622     4.12     934.1087     57.28606     3415.301        51     1.638     1.027  74.90   0
       226    818.4138    683.4351 307.5827034  +6.4274896     1320.778     1769.377     2253.704     80.94989     162.3532     324.8357      1.546     3.92     921.6946     57.28606      214.106        12     1.225     0.714  80.12   0
       227    369.4641    677.8407 307.7693486  +6.4147842     716.4478      1320.91     1212.246     81.46714     162.4825     325.0942      1.801     4.15     930.9894     57.28606     117.6193         6     1.317     0.373  74.81   0
       228    986.4681    672.3173 307.5132774  +6.4376844     6965.591     11275.91     12219.39     81.72455     162.8053     325.0296      1.764     4.07     916.5037     57.28606     1070.294        36     1.661     1.048  67.66   0
       229     31.0205    671.5475 307.9101153  +6.4060189     1118.902     1691.876     2061.566     80.94988     162.5471     324.8034      1.463     3.99     935.7149     57.28606     168.5477        12     1.140     0.715  86.07   0
       230    580.0110    667.6566 307.6822483  +6.4260404     48493.39     73424.99     76576.49     80.82005     162.4825      324.674      1.596     4.28     925.4254     57.28606      6952.64        67     1.631     1.080  78.83   0
       231    944.3255    668.9100 307.5308950  +6.4376873     667.4977     833.0739     824.5338     81.46714     162.8053     325.0296      1.239     2.92     917.9745     57.28606     138.6649         5     0.731     0.443 -74.88   0
       232    539.3345    667.7729 307.6991382  +6.4246314     750.5463     1040.424     1275.771     81.07951     162.4825     324.9004      1.689     5.49     926.0853     57.28606     111.4901         9     1.318     0.644  43.78   0
       233    187.5503    664.3179 307.8453541  +6.4142651     2865.784     4245.181     3969.894     81.46715     162.5471     325.0296      1.584     3.78     933.3833     57.28606     386.9242        22     1.463     0.841  77.85   0
       234     80.1323    658.5190 307.8901602  +6.4130505     1473.899      2241.18     1865.052     81.59595     162.8053     325.0296      1.599     3.73     935.0305     57.28606     247.8787        16     1.298     0.806  87.18   0
       235    477.2717    651.4571 307.7254633  +6.4292917     63544.59     95156.77     99341.43     81.59595     162.5471      324.965      1.634     4.03     927.6056     57.28606     9838.141        70     1.644     1.066  76.99   0
       236     20.7172    653.1040 307.9150178  +6.4132886     1651.171     2178.592     2452.052     81.33813     162.9343     325.0942      1.478     5.13     935.8452     57.28606     233.9785        15     1.375     0.727  71.26   0
       237    663.0513    648.3950 307.6484069  +6.4367716     781.5345     977.1619     1270.862     80.82005     162.4178     324.6417      1.557     3.99     923.1006     57.28606     148.2637         6     1.010     0.470  58.46   0
       238    151.6613    646.5837 307.8608577  +6.4203831     1648.319     2234.369     1672.615     80.94989     162.4825     324.8034      1.501     4.56     933.5764     57.28606      240.543        14     1.278     0.711  83.94   0
       239    430.9047    643.7022 307.7449817  +6.4309412     918.0475     1667.459     1304.354     81.46714     163.1275     324.8357      1.727     6.26     928.1724     57.28606     133.8746        13     1.296     0.850  77.34   0
       240    623.3524    643.3113 307.6650661  +6.4375438     857.6466     1373.427     1045.876     81.46715     162.4178     325.1265      1.627     5.26      924.012     57.28606     119.3361        10     1.338     0.585  53.82   0
       241    946.4239    643.3437 307.5308802  +6.4483156     565.4113     747.9904     433.0749     81.07951     162.5471     324.8034      1.384     4.30     916.9039     57.28606     85.90656         5     1.017     0.519 -49.44   0
       242    322.6414    640.9109 307.7900396  +6.4284649     2157.393     3555.173     3586.724     81.46714     162.4825     325.0296      1.756     4.95     930.6003     57.28606     286.5935        20     1.498     0.826  89.85   0
       243    505.9832    642.8038 307.7138300  +6.4338266     532.2641     955.6987     1297.987     81.07951      162.159     324.8357      1.587     4.38     926.4901     57.28606      76.9201         5     1.373     0.397  -0.11   0
       244    331.8211    642.3900 307.7861772  +6.4281620     426.4699     494.0651     572.6239     81.07951     162.2885     324.8034      1.203     3.43     930.4727     57.28606     72.11707         5     0.780     0.437 -19.56   0
       245     23.7793    641.7953 307.9141286  +6.4180615     605.2518     801.5757     1255.403     81.07951     162.2885     324.8034      1.428     4.40     935.8132     57.28606     100.4525         5     0.777     0.709 -36.73   0
       246    474.8511    639.4916 307.7268715  +6.4341520     971.5373     1815.436     2252.812     81.33813     162.4178     325.1911      2.231     5.57     927.1236     57.28606     165.0156        12     1.339     0.806  85.23   0
       247    749.3403    634.9139 307.6130207  +6.4452218     5269.795     7807.201     7969.975     81.46714     162.6763     325.0942      1.565     4.49     921.8036     57.28606     801.9756        24     1.449     0.835  73.37   0
       248    802.8507    630.2482 307.5909521  +6.4489351     14041.62     20861.98     21662.49     81.46714     162.4178      324.965      1.578     4.02     920.1044     57.28606     2020.866        37     1.564     0.916  75.13   0
       249   1019.9611    630.8397 307.5007553  +6.4559295      928.731     1474.023     1092.305     81.20892     162.6117     297.8875      1.512     5.31     913.5528     57.28606     145.1909        11     1.368     0.581  73.25  16
       250    545.1015    629.5923 307.6980277  +6.4405918     1115.398     1997.182     2563.674     81.20892      162.159     324.8034      1.987     6.04     925.1705     57.28606     197.4647        12     1.556     0.659 -89.54   0
       251     47.8194    629.5861 307.9045577  +6.4239120      648.639      987.316       560.52     81.20893     162.2885     324.9004      1.665     4.92     935.1842     57.28606     123.9321         6     1.520     0.451  60.42   0
       252    626.7717    628.2303 307.6641529  +6.4438862     3019.737     4629.413     4539.696     80.94989     162.2885      324.771      1.637     3.75     923.5103     57.28606     428.5175        23     1.437     0.899  75.56   0
       253    943.9394    624.6581 307.5325384  +6.4559495     1154.291     1667.168     1372.826     81.59595     162.4825     325.0296      1.446     5.69     916.2936     57.28606      156.615        13     1.332     0.712  74.71   0
       254    239.3262    622.0239 307.8252788  +6.4334691     1247.199      2045.32     1709.681     81.07951     162.3532     324.9327      1.665     5.62     931.6724     57.28606     180.1595        12     1.422     0.627  77.97   0
       255    202.6156    622.9377 307.8404944  +6.4318593     628.8442     755.1436     412.4927     80.94988     162.4825     324.8034      1.329     3.98     932.4786     57.28606     107.1522         6     1.036     0.438  77.01   0
       256    385.1911    622.0949 307.7646957  +6.4383324     941.3658     1316.587     1446.109     81.07951      162.159      324.771      1.504     4.16     928.3663     57.28606     121.1372        13     1.114     0.880  60.74   0
       257    878.9538    613.4760 307.5599053  +6.4584008     2846.721     4036.171     4075.845     81.33813     162.6117     325.0296      1.537     4.32     917.5464     57.28606     391.9916        19     1.448     0.783  70.93   0
       258    173.9518    613.2520 307.8527260  +6.4348964      719.726     1272.491     1448.584     81.59595     162.4178     324.9973      1.761     5.13     932.8267     57.28606      89.6767         8     1.141     0.653  77.39   0
       259    837.6423    610.9333 307.5771495  +6.4580728     2466.869     3871.845     4481.112     81.46714     162.4825     325.0619      1.675     4.10     918.4591     57.28606      334.915        21     1.425     0.903  74.23   0
       260    265.7038    605.8705 307.8148688  +6.4410251     7805.097     11986.65     12180.52     81.33813     162.6763     324.9973      1.641     3.91     930.2003     57.28606     1069.452        34     1.605     0.938  78.21   0
       261    808.4520    606.9841 307.5894064  +6.4587296     2611.612     3978.292     4885.446     80.82005     162.6117     324.7064      1.631     3.72     919.0967     57.28606     423.7589        19     1.281     0.895  74.62   0
       262    818.2637    602.1531 307.5854932  +6.4610521     159421.1     239548.2       251076     81.33813     162.4178     325.0619      1.604     4.11     918.7149     57.28606     24761.08       119     1.677     1.170  75.30   0
       263    869.6088    604.4628 307.5640891  +6.4618113     592.2789     858.5704      953.687     80.82005     162.3532     324.8034      1.396     3.43     917.4044     57.28606     88.07233         5     1.058     0.321  68.63   0
       264    199.8777    600.4006 307.8423924  +6.4410742     56886.64     88907.25     93471.69     80.69002     161.8998     324.7387      1.664     4.07     931.9614     57.28606     8032.951        72     1.667     1.117  78.30   0
       265    747.8625    603.3005 307.6146961  +6.4582280     674.9953     1117.742     1967.046     81.20892     162.5471     325.0619      2.235     4.72     920.8026     57.28606     112.7148         7     1.429     0.442  74.00   0
       266    123.8626    596.6770 307.8740887  +6.4400583     6156.314     9357.201     9326.181     81.72454     162.6117      324.965      1.615     3.87     932.9017     57.28606     850.7261        28     1.454     0.933  77.52   0
       267    989.1039    594.1506 307.5148011  +6.4700535     1263.968      2086.71     1695.271     81.33813     162.4825     325.1588      1.664     5.62     913.6516     57.28606     168.5742        11     1.374     0.647  66.07   0
       268   1009.9766    593.3623 307.5061577  +6.4710743     832.9999     1502.505      1234.88     81.07951     162.2885      324.771      1.744     4.42     912.9332     57.28606     119.7612         9     1.006     0.636  54.26   0
       269    237.9888    591.3578 307.8268693  +6.4460881     658.2546     1352.918     2011.791     80.82005     162.3532     324.7064      1.972     4.08      930.676     57.28606     103.1549         5     1.063     0.447  66.92   0
       270    854.8467    589.4486 307.5707243  +6.4675194     4645.471     6848.047     6969.507     81.46714     162.4178     324.9973      1.574     3.88     917.3027     57.28606     706.8461        24     1.484     0.824  70.29   0
       271    373.2643    587.5661 307.7708130  +6.4521918     17097.38     25848.16     27016.53     81.33814     162.5471      324.965      1.640     3.95     927.5522     57.28606     2597.973        42     1.600     0.985  76.82   0
       272    463.5411    587.9464 307.7333046  +6.4550597     794.2092     1200.368     1661.268     81.59595     162.4825     324.9973      1.617     4.34     925.6779     57.28606     149.1684         7     1.275     0.422  65.94   0
       273    175.0264    586.4988 307.8531832  +6.4459804     2036.096     3344.338     4575.522     81.59595     162.2885     324.9327      1.831     4.32     932.0215     57.28606     318.9714        19     1.564     0.735  83.62   0
       274    808.7751    582.8369 307.5900826  +6.4687126     6050.376     9091.395      9574.81     81.07951     162.3532     324.7387      1.591     4.08     918.5265     57.28606     923.8912        29     1.485     0.919  73.98   0
       275    539.6107    582.4719 307.7018938  +6.4598673     6495.362     9623.689     10099.98     80.94989      162.159     324.8357      1.589     4.09     923.7124     57.28606     976.8257        27     1.514     0.851  78.47   0
       276    250.0165    584.1901 307.8221158  +6.4494518     963.3919     1460.169     2161.634     81.20892     162.2885      324.868      1.975     4.52     930.0298     57.28606      145.254        13     1.137     0.866  87.04   0
       277    180.3778    583.8061 307.8510516  +6.4472722     771.9524     1405.862     2915.721     81.07951     162.2885     324.8357      2.013     4.77     931.8476     57.28606      107.752         7     1.076     0.600  70.30   0
       278    112.4363    583.6970 307.8792728  +6.4450345     841.3072     1207.258     904.9868     81.46715     162.4178     325.1588      1.522     3.81     932.8009     57.28606     158.3414         5     0.965     0.432  10.39   0
       279    397.6982    578.9841 307.7609539  +6.4565548     1367.282     2222.041     2287.574     81.46714     162.2885      324.771      1.676     4.86     926.6868     57.28606     175.4806        15     1.325     0.755  65.04   0
       280    186.6259    575.5369 307.8487358  +6.4508969     6594.661     10458.73     11575.78     81.07951     162.5471     324.9327      1.721     3.91     931.4277     57.28606     898.0211        33     1.605     0.959  72.93   0
       281    584.3554    575.4531 307.6835452  +6.4642630     2460.842     4381.492     4415.891     81.46715     162.5471     324.9973      1.940     4.40     922.3945     57.28606     332.0665        28     1.506     1.190 -78.73   0
       282    281.8644    572.0449 307.8092981  +6.4555360     84548.86     131766.4     138391.5     81.46714     162.4825     324.9973      1.650     3.98     928.6179     57.28606     11603.98        87     1.701     1.144  76.54   0
       283    867.7931    575.3796 307.5658188  +6.4737615     547.5369     960.6538     1175.764     81.07951     162.2885     324.8034      1.560     3.39     916.4562     57.28606     85.99969         5     1.181     0.281  55.33   0
       284    825.3499    574.9362 307.5834632  +6.4725285     1187.527     1976.115     2425.739     81.46714     162.4825     325.0296      1.702     4.52     917.8268     57.28606     197.3629        15     1.304     0.792  67.69   0
       285     58.1963    574.2270 307.9021199  +6.4471216     4919.029     7844.659     7705.956     80.94988     162.2885     324.8357      1.679     4.18     934.1845     57.28606     735.7333        28     1.536     0.921  80.00   0
       286    570.8375    569.0380 307.6893757  +6.4664600     861.8908      1351.79     1910.016     81.20892     162.4178      324.868      1.454     2.59     922.4086     57.28606     170.1912         6     0.863     0.454  57.19   0
       287    805.0023    564.5348 307.5922640  +6.4761450     16295.81      24404.1     25168.14     80.82005     162.2885      324.771      1.610     4.11     918.2559     57.28606      2345.34        44     1.592     0.989  72.46   0
       288    265.7359    566.9885 307.8161674  +6.4570829     1464.913     1902.228     1656.369     80.94989     162.3532     324.8034      1.462     4.34      928.961     57.28606     213.7358        13     1.288     0.695  71.53   0
       289    981.2808    565.7740 307.5190013  +6.4815117     1557.238     2315.247     2705.747     81.33814     162.3532     325.0296      1.647     4.41     913.3854     57.28606     239.0234        15     1.273     0.782  72.98   0
       290    508.6593    562.9074 307.7154080  +6.4669108     39317.33     65824.27     70292.45     81.33813     162.4825     325.1265      1.785     4.08     924.0328     57.28606     5209.937        73     1.712     1.314  69.11   0
       291    658.9550    561.4986 307.6530289  +6.4725204     945.5615     1653.033     1656.419     81.46714     162.4825     325.2234      1.754     4.21     920.8124     57.28606     148.4454        12     1.163     0.850  85.12   0
       292    221.0875    559.0784 307.8349785  +6.4588507     1861.044     3302.824     4364.865     81.33813     162.8698     325.1265      2.184     4.31     930.0183     57.28606     286.9485        18     1.472     0.829  70.93   0
       293     56.7000    559.5341 307.9032381  +6.4531388     1293.179     1918.321     1558.394     81.46715     162.6763      324.965      1.634     4.71     934.0445     57.28606     157.3136        14     1.343     0.808  75.00   0
       294    730.9834    557.5908 307.6232422  +6.4765411     1317.409     2281.238     2418.943     81.20892     162.2885      324.868      1.914     6.70     919.1508     57.28606      220.397        17     1.721     0.731  67.56   0
       295    668.6246    557.9171 307.6491329  +6.4743227     2948.041     4603.815     4949.006     81.33813     162.2885      324.965      1.663     4.13      920.659     57.28606     407.4679        22     1.468     0.914 -89.96   0
       296    107.8107    559.7795 307.8820022  +6.4547558     547.1383     869.9411      1085.68     81.07951     162.2238      324.868      1.609     4.92      932.546     57.28606     112.5855         6     1.394     0.491  40.85   0
       297    678.9712    557.9135 307.6448354  +6.4746700     1425.963      2098.66     2313.425     81.59595     162.2238      324.868      1.563     4.28       920.48     57.28606     217.1488        12     1.331     0.682  66.70   0
       298     87.6578    555.4483 307.8905187  +6.4558669     782.7752     1153.438     1345.604     81.46715     162.5471     325.1265      1.838     4.91     932.9972     57.28606      110.421         8     0.933     0.733  48.80   0
       299    406.3037    553.3455 307.7582436  +6.4674311      1783.89      2641.04     2838.105     81.33814     162.5471     325.2234      1.614     3.75     925.9915     57.28606     300.8635        17     1.346     0.754  73.36   0
       300    337.8172    551.8212 307.7867407  +6.4657646     3852.019     5890.287     6211.692     81.20892     162.2885     324.9004      1.632     3.92     926.9072     57.28606     511.5613        26     1.437     0.940  73.18   0
       301    880.8065    550.7228 307.5612405  +6.4843782     1506.068     2572.457     2626.249     81.07951     162.0294     324.8034      1.813     5.13     915.2799     57.28606     222.7629        19     1.622     0.805  83.47   0
       302    517.7289    551.4634 307.7120261  +6.4719404      2146.29     3063.527     3659.357     81.46715     162.5471     325.0619      1.650     4.09     923.3187     57.28606     296.7631        19     1.411     0.814  65.88   0
       303    152.9486    550.3808 307.8635727  +6.4601539     25448.22     39582.89     41098.76     80.94988     162.6117     324.8034      1.635     4.14      931.416     57.28606      3560.29        54     1.634     1.053  75.73   0
       304    118.1920    548.6959 307.8780652  +6.4596818     2529.035     3874.679     4136.405     81.20892      162.159      324.771      1.597     4.20     932.1823     57.28606     359.2928        20     1.472     0.811  76.36   0
       305    354.9279    546.6860 307.7798069  +6.4684590     1124.705     1763.141     1712.513     81.59595     162.8053     325.0296      1.560     6.05      926.403     57.28606     157.0172        14     1.495     0.688  69.63   0
       306    978.4801    545.0296 307.5208597  +6.4899854     5119.535     7645.848     8146.593     81.33813     162.5471      324.965      1.577     4.01      913.026     57.28606     784.0898        24     1.454     0.836  75.86   0
       307    143.1871    539.8301 307.8679834  +6.4641829     449.1924     702.7509     160.4618     80.94988     162.3532     324.9327      1.671     3.72     931.3622     57.28606     88.58856         5     1.483     0.268  78.78   0
       308    551.4722    537.6659 307.6984748  +6.4787677     1443.828      2136.26      1731.38     81.46715     162.6117     325.0296      1.497     4.64     921.5816     57.28606     195.9059        13     1.290     0.729  81.67   0
       309     17.2450    534.7732 307.9204622  +6.4620366     24867.38     38247.54     40285.52     80.94989     162.6117     324.9004      1.636     3.91      934.853     57.28606     3743.784        55     1.639     1.063  78.94   0
       310    449.9614    531.5831 307.7408433  +6.4778810     42012.47     64732.83     67047.52     81.07951     162.4178      324.771      1.643     4.08     924.5665     57.28606     6009.824        64     1.651     1.084  78.80   0
       311      1.4078    529.4534 307.9272198  +6.4637006     49753.75     71530.48     76052.98     71.58695     130.4312     245.7298      1.515     4.81     935.2508     57.28606     12846.36        61     1.918     0.836 -88.36  24
       312    658.0085    531.2556 307.6544386  +6.4849783     11941.13     18065.18     18955.52     80.82005     162.4178     324.7064      1.589     4.05     919.9283     57.28606     1758.469        37     1.521     0.986  75.99   0
       313    297.8080    531.6472 307.8040389  +6.4727536      839.174     1490.955     1609.612     80.94989     162.4178     324.6417      1.920     5.43     926.8123     57.28606     128.0943        12     1.436     0.898 -72.54   0
       314    215.1286    529.1540 307.8384637  +6.4710082     18436.97     30086.47     31943.57     81.46714     162.5471     324.9973      1.726     4.09     929.0049     57.28606      2640.67        52     1.718     1.116  68.66   0
       315    180.8360    530.1715 307.8526726  +6.4694363     1506.814     2444.392     2393.072     81.07951     162.2885     324.8034      1.739     4.49     930.0641     57.28606     204.5143        17     1.401     0.816  89.61   0
       316    992.0038    529.6346 307.5157580  +6.4967938     1101.394     1685.387     1835.731     80.69001     162.4178      324.771      1.636     4.99     912.2219     57.28606     170.1121        12     1.356     0.659  76.78   0
       317    831.9809    529.1319 307.5822459  +6.4916658     897.5411     1490.869     1580.448     81.07951     162.4178     324.9004      1.732     5.54     916.2117     57.28606     146.7194        11     1.320     0.656  80.04   0
       318    579.7406    528.1973 307.6870516  +6.4836238     2917.109     4312.014     4644.722     80.82005     162.2885     324.7064      1.602     4.40     920.7603     57.28606     392.6176        20     1.403     0.809  77.00   0
       319    953.6537    525.2374 307.5318355  +6.4973318     4704.633     7214.695     7765.154     81.33814     162.5471     325.0296      1.620     4.03     912.7618     57.28606      715.631        23     1.451     0.854  80.25   0
       320    626.8028    523.6664 307.6676558  +6.4870691      6116.12     9494.542     9904.395     80.82005     162.2238      324.771      1.675     4.14     920.0002     57.28606     860.8126        30     1.596     0.898  77.38   0
       321    114.5063    524.2097 307.8804234  +6.4696696     996.8987     1624.733     1922.086     81.07951      162.159     324.8034      1.775     5.04     931.4358     57.28606     153.5345        11     1.469     0.489  85.63   0
       322    976.3735    517.6352 307.5226527  +6.5012285      3364.97     5029.123     4960.102     80.94989     162.2885     324.7387      1.632     3.90     912.0803     57.28606     537.6962        24     1.462     0.935  64.66   0
       323    539.0311    514.9219 307.7044079  +6.4877439     7265.417     11407.02     11662.24     81.33813     162.5471      324.965      1.647     4.28     921.2289     57.28606     1022.263        32     1.541     0.963  79.73   0
       324    384.8878    514.9637 307.7684323  +6.4825636     2324.233     3787.509     4032.525     81.46714     162.4178     324.9973      1.700     4.42     924.7993     57.28606     359.4925        21     1.427     0.852  75.22   0
       325    108.1626    513.7399 307.8834121  +6.4737799     605.7777     836.0966     677.0845     81.46714     162.6117      324.965      1.529     4.72     931.2075     57.28606     86.84003         6     1.188     0.532  66.28   0
       326    414.7752    516.4987 307.7559665  +6.4829314     746.9813     1025.294     984.6734     81.59595     162.2885     324.8357      1.398     4.68      924.484     57.28606      118.032         8     1.206     0.516  66.49   0
       327    895.4126    510.6497 307.5565173  +6.5014146     3264.211     4652.813     5669.652     80.82005     162.4825     324.7064      1.566     4.06     913.7499     57.28606     560.5995        20     1.413     0.802  77.82   0
       328    243.4169    509.8398 307.8273662  +6.4799339     545.0711     800.0203     577.3599     81.07951     162.4178      324.771      1.377     5.11     927.3143     57.28606      105.166         7     1.210     0.610  73.59   0
       329    889.4774    507.8613 307.5590762  +6.5023682     588.1085     893.9589     1254.052     81.72454     162.6117     324.9973      1.660     4.61     913.8145     57.28606     90.46381         5     0.841     0.719  47.03   0
       330    942.2775    504.1242 307.5372688  +6.5056720     1270.913     1825.516     1438.877     81.72454     162.8053     325.0619      1.476     4.46     912.4188     57.28606     226.6133        14     1.310     0.814  81.22   0
       331    902.8339    504.9138 307.5536269  +6.5040308     2104.323     3181.961     3681.345     81.46714     162.4178     324.9973      1.526     4.11     913.3931     57.28606     320.6862        15     1.254     0.751  73.67   0
       332    121.6874    503.4238 307.8781433  +6.4784946     784.9565     1379.403     1358.445     81.46715     162.3532      324.868      1.928     5.55      930.562     57.28606      122.324        10     1.336     0.725 -88.94   0
       333    726.9399    501.1690 307.6268170  +6.4997067     2823.306     4128.927     4448.674     81.20892     162.5471      324.965      1.566     4.58     918.0439     57.28606     391.2413        19     1.412     0.788  68.87   0
       334    621.3701    501.3888 307.6706615  +6.4960874     362.3859     741.3943     909.1671     80.94989     162.3532     324.8357      2.499     3.45     919.6643     57.28606     84.07684         5     1.026     0.335 -68.99   1
       335    397.7479    499.3257 307.7636178  +6.4894526     3628.629     5604.628     5876.459     81.46715     162.6117     324.9973      1.686     4.00     923.9681     57.28606     503.4348        24     1.530     0.897  72.08   0
       336     88.5775    500.1820 307.8920050  +6.4787202     1951.358      3047.67     3134.209     81.20893     162.4825     324.9327      1.739     4.64     931.1822     57.28606     273.9076        18     1.471     0.769  72.37   0
       337    437.9062    499.3074 307.7469379  +6.4908059      1060.97     1459.397     1262.301     81.46714     163.0631     324.9973      1.502     4.89     923.1633     57.28606     177.2647        10     1.223     0.576  76.96   0
       338    625.4870    495.8784 307.6691367  +6.4985007     9680.757     14790.69     14968.76     81.33813     162.8698     325.1265      1.609     3.93      919.507     57.28606      1444.76        34     1.532     0.950  73.05   0
       339    788.1902    492.4383 307.6016676  +6.5053577     16474.32     24516.28     25545.64     80.69002     162.3532     324.7064      1.598     3.99     916.2178     57.28606     2638.826        38     1.556     0.939  73.96   2
       340    792.0080    487.7137 307.6002403  +6.5074363     1418.255     2282.348     2538.335     81.07951     162.2238     324.8034      1.649     4.75     915.9472     57.28606     201.6602        14     1.302     0.751  61.47   2
       341    307.7986    492.6729 307.8012040  +6.4891837     2637.493     3906.899     3744.805     80.94989     162.0294      324.868      1.608     4.12     924.8052     57.28606     365.3699        20     1.441     0.815  74.81   0
       342    431.7802    491.9887 307.7497290  +6.4936230     648.9421     1003.771      456.168     81.07951     162.2238     324.9004      1.481     4.29     922.9887     57.28606     98.57947         5     1.058     0.495  55.05   0
       343    817.0308    489.4421 307.5897880  +6.5075578     1366.017     1772.101     1908.499     80.94988     162.4825     324.8357      1.414     4.79     915.2256     57.28606     196.6737        12     1.181     0.703  71.02   0
       344    739.1949    489.9745 307.6221025  +6.5047391     432.9417     687.8055     380.6766     80.94989     162.3532     324.8357      1.775     3.59     917.7198     57.28606     90.74133         5     1.381     0.269 -77.60   0
       345    391.0214    489.5329 307.7667419  +6.4932712     1640.302     2549.843     2647.758     81.07951     162.5471      324.965      1.606     4.27     923.6854     57.28606     247.6399        17     1.336     0.898  71.70   0
       346    973.2798    487.4092 307.5249507  +6.5136081     2164.448     3051.741     3226.282     81.07951      162.159     324.8357      1.554     4.32     911.0488     57.28606     327.7508        18     1.398     0.776  79.30   0
       347    125.6183    484.3111 307.8771565  +6.4865194      4459.74     7103.614      7822.18     81.20893     162.2885     324.9004      1.697     4.10     929.8462     57.28606     623.0443        31     1.564     0.994  72.32   0
       348    379.9060    485.2692 307.7715026  +6.4946593     710.7277     1174.417     1521.787     81.33813     162.6763     325.0296      1.661     3.71     923.6345     57.28606     118.6138         6     0.977     0.546 -82.31   0
       349    763.7798    483.2479 307.6121160  +6.5083381     2282.141      3524.39     3562.632     80.94989     162.5471     324.8034      1.593     4.23      916.754     57.28606     321.3031        18     1.371     0.785  75.13   0
       350    283.3622    481.3778 307.8117351  +6.4930282     1654.737     2515.646     2623.031     81.07951     162.2885      324.771      1.656     3.60     924.6097     57.28606     249.8643        18     1.268     0.866  87.03   0
       351    361.5941    479.0677 307.7793179  +6.4966063     3135.128     4952.855     5147.474     80.94988      162.159     324.8034      1.640     4.06     923.6191     57.28606     422.1538        25     1.556     0.878  79.65   0
       352    717.4111    477.0346 307.6315860  +6.5093552     1511.141       2387.4     2349.608     80.94988     162.3532     324.8034      1.581     4.24     917.5907     57.28606       262.33        13     1.366     0.606  81.04   0
       353    249.1757    474.7007 307.8261603  +6.4946382     755.7625     894.4645     1151.713     81.59595     162.2885     324.8034      1.490     4.34     925.5652     57.28606     129.2705         7     1.130     0.475  67.76   0
       354    558.9984    469.7106 307.6976354  +6.5070829      955.282     1455.381     1793.013     80.69002      162.159      324.771      1.640     6.08     919.3454     57.28606     132.0148        12     1.317     0.789  64.33   0
       355    481.0201    467.7643 307.7300919  +6.5052762      1295.05     1948.922     2114.259     80.94988     162.3532     324.8034      1.592     4.63     920.3126     57.28606     207.0491        16     1.430     0.724  84.51   0
       356    843.8282    466.9820 307.5794102  +6.5177275     1419.815     2242.003     2255.288     81.07951     162.3532     324.9327      1.600     4.52     913.7811     57.28606     204.7001        14     1.414     0.679  64.74   0
       357    829.2961    465.7334 307.5854888  +6.5177582     1908.766     2713.894      2267.51     81.46715     162.6117     325.0296      1.530     4.06     914.1407     57.28606     310.2156        16     1.471     0.736 -89.97   0
       358    629.1882    466.1968 307.6685974  +6.5108820     727.3115     1150.389     772.9913     81.07951     162.2238      324.868      1.518     5.98     918.2661     57.28606     110.3976        10     1.355     0.742  86.10   0
       359    726.6475    464.1236 307.6281830  +6.5149957     14711.94      22166.3      23181.3     81.33813     162.6117      324.965      1.577     4.02     916.7812     57.28606     2125.552        35     1.518     0.945  74.54   0
       360    642.1755    459.2191 307.6634372  +6.5141979      667.327     1089.778     1706.701     81.20892     162.3532     324.9327      1.597     3.91     917.5396     57.28606     112.8353         6     1.202     0.365  61.77   0
       361    622.4935    456.5168 307.6717039  +6.5146557     5471.704     9353.179     10163.19     81.20893     162.8698     325.1265      1.780     5.41     917.9136     57.28606     689.2195        18     1.460     0.840  64.70   3
       362    619.0875    454.6614 307.6731811  +6.5153080     14424.02     21995.49     23179.13     81.46714     162.7408     325.0296      1.641     4.09     917.8721     57.28606     2100.739        44     1.900     1.017  65.65   3
       363    647.7751    460.0514 307.6610832  +6.5140414     2516.395     4041.228     4442.393     81.07951     162.5471     324.9004      1.668     4.32     917.4521     57.28606     332.7478        21     1.543     0.833  83.81   0
       364    951.9530    454.0738 307.5349273  +6.5266641     3729.305     5637.944     5745.831     81.33813     162.6117     324.9973      1.575     4.11     910.4251     57.28606     498.0713        24     1.513     0.840  69.75   0
       365    391.0536    449.9667 307.7680621  +6.5096116     28067.42     43735.16     45637.99     81.33813     162.4825     324.9327      1.644     4.16     921.3031     57.28606     3874.274        55     1.640     1.067  76.67   0
       366    428.3642    451.2623 307.7525202  +6.5103270     549.0853     862.1217     1035.722     81.46715     162.5471      324.965      1.719     5.38     920.5731     57.28606     87.98083         6     1.138     0.717  77.88   0
       367    137.2603    449.2802 307.8735047  +6.5013768     2437.165     3853.147     3583.279     81.59595     162.5471      324.965      1.605     4.04     928.4369     57.28606     381.0961        22     1.688     0.777  80.00   0
       368    907.4756    449.5089 307.5535568  +6.5270665      1560.92     2661.396     2758.133     81.46715     162.8053     325.0296      1.832     4.85     911.7756     57.28606     246.1345        16     1.528     0.793  60.47   0
       369     70.4697    445.2397 307.9013837  +6.5007999      1581.33     2654.095     3457.186     81.33814     162.5471     325.0619      2.170     4.72     929.9272     57.28606     196.9564        17     1.326     0.969  74.28   0
       370    920.6991    444.3918 307.5482352  +6.5296207      5061.41         7232     7040.754     81.20893      162.159     324.8034      1.525     3.89      911.252     57.28606     796.5173        23     1.387     0.824  73.30   0
       371    602.3865    445.6490 307.6804218  +6.5184713     666.1855     982.3957      1104.54     80.82005     162.4825      324.674      1.498     4.56     917.6599     57.28606     103.7358         7     1.002     0.689  47.21   0
       372    976.3104    442.3131 307.5252031  +6.5323328     495.1852     574.7289     216.8838     81.20893     162.9987     325.1265      1.110     3.83     908.8771     57.28606     122.2186         5     1.064     0.396  76.01   0
       373    248.6168    440.5271 307.8275460  +6.5087317      13426.5     20909.25     22091.16     80.94989     162.4178     324.9004      1.686     3.93     924.2694     57.28606     1757.007        41     1.592     1.040  76.25   0
       374     84.6320    434.5284 307.8958634  +6.5056994     808.5344     1194.919     1292.543     81.33814     162.5471      324.965      1.530     4.46     929.1613     57.28606     108.6201         8     1.278     0.443  80.84   0
       375    743.5261    434.3304 307.6221725  +6.5278632     854.3527      1281.84     1109.282     81.59595     162.6763     324.9973      1.571     4.74     914.8934     57.28606     127.8583         8     1.274     0.499  89.79   0
       376    971.8839    432.7706 307.5273618  +6.5361261     956.3871     1271.122     1230.336     81.46714     162.3532     324.9004      1.514     5.17     908.6392     57.28606     150.2064        11     1.351     0.559  68.72   0
       377    711.6223    433.5122 307.6354531  +6.5271353     712.3876     1240.531     1348.808     81.46715     162.3532     324.9004      1.721     4.09     915.1174     57.28606     118.8887         6     0.989     0.484  87.94   0
       378    361.5855    430.3564 307.7809639  +6.5167219     1151.208       1836.6     1862.848     80.82005     162.3532     324.7387      1.662     5.50     920.7877     57.28606     181.0639        14     1.532     0.677  59.87   0
       379    148.8873    429.2224 307.8693530  +6.5100504     4907.712     8004.351     8378.742     81.46714     162.3532     324.9004      1.721     3.88     927.4189     57.28606     692.0576        30     1.567     0.965  72.13   0
       380    194.6902    430.3412 307.8502898  +6.5111272     744.7698     1282.026     959.0396     81.33814     162.5471     325.1265      1.911     5.02     925.9387     57.28606     101.1332         8     1.107     0.644  56.21   0
       381    253.8528    428.2134 307.8257867  +6.5139925      1263.46     2003.982     2105.259     80.82005     162.4825     324.7387      1.764     5.96     923.5636     57.28606     161.1677        15     1.318     0.874  70.74   0
       382    834.6940    425.8002 307.5845866  +6.5344297     853.0469     1085.015     718.4324     80.94989      162.159     324.6093      1.345     4.91     912.8233     57.28606      144.961         9     1.169     0.718  62.61   0
       383    170.8843    425.0741 307.8603561  +6.5125026     2529.924     4273.063     4259.535     81.59595     162.8698     325.0619      1.830     4.47     926.6047     57.28606     322.5534        26     1.651     0.952  83.47   0
       384    566.4510    424.1047 307.6960743  +6.5261661      1063.14      1565.13     1357.369     81.33813     162.4825     325.2234      1.589     4.72     916.6968     57.28606      148.568         9     1.141     0.554  74.61   0
       385    982.9352    419.2690 307.5232233  +6.5420702     947.9456     1800.648     2106.944     81.46714     162.6117     325.0296      2.260     5.52     907.4019     57.28606       131.46        11     1.286     0.667  77.19   2
       386    394.3304    419.7566 307.7677193  +6.5221971     1972.261     3110.746     2854.536     81.46715     162.5471     325.0619      1.585     4.09     919.2728     57.28606     304.9199        17     1.398     0.732  72.99   0
       387    282.5010    420.0998 307.8141606  +6.5183046     771.5223     1087.336     982.5764     81.46714     162.9343     324.8357      1.523     4.92     922.0013     57.28606     114.6617         8     1.283     0.535  55.20   0
       388     12.9949    419.2672 307.9261352  +6.5095918     794.5212      1297.08     1803.584     80.94988     162.2238     324.8034      2.036     4.49     930.0911     57.28606     112.4325         7     1.100     0.521  59.16   0
       389    328.5573    417.3542 307.7951220  +6.5209836     571.5258     953.2761     941.8041     81.46715     162.5471     324.9327      1.564     3.34     920.7959     57.28606     102.2834         5     1.032     0.313  66.91   0
       390    448.1823    413.3150 307.7455665  +6.5266619     7354.949     11588.77     11775.21     81.07951     162.2885     324.9327      1.684     4.15     917.8635     57.28606     1074.817        35     1.566     1.024  77.72   0
       391     44.6457    414.1340 307.9131621  +6.5127764     3096.415     5467.281     6002.357     81.46714     162.4825     324.9973      1.907     4.24     929.2869     57.28606     478.6472        31     1.555     1.172  81.81   0
       392    780.9313    412.3411 307.6073724  +6.5381934     2194.377     3241.209     4184.414     81.59595     162.4825     324.9973      1.608     4.12     913.3303     57.28606     336.3994        17     1.447     0.772  71.62   0
       393    788.8509    410.7331 307.6041365  +6.5391218     12876.37     19298.87     20726.52     81.33813     162.4178     324.9973      1.585     3.97     913.1906     57.28606     1837.578        37     1.520     0.971  78.35   0
       394    351.9879    409.0551 307.7856690  +6.5251967     965.6891     1236.168     1523.249     80.82005     162.4825      324.674      1.530     5.70      920.017     57.28606     169.2312        12     1.351     0.679  59.51   0
       395    963.3780    401.9324 307.5319290  +6.5485781     662.7635     939.7395     868.2381     81.07951     162.4825     324.9327      1.466     3.85     907.7139     57.28606     95.99908         5     0.883     0.480 -84.89   0
       396    913.9885    400.7314 307.5524870  +6.5474276     503.3768    -216.0989    -638.5693     80.94988     162.3532      324.868      1.405     5.11     909.7806     57.28606     87.89117         7     1.321     0.558  68.55   0
       397    197.0968    401.7678 307.8502552  +6.5230076     927.1279     1367.813     1426.805     81.59595     162.4178     325.0942      1.631     4.65     924.9036     57.28606     142.4732         9     1.078     0.733  55.69   0
       398      1.9280    400.9398 307.9313522  +6.5167876      888.548     1512.604     2292.149     77.90904     138.1723     254.5049      2.048     5.66     929.6466     57.28606     124.6812        11     1.199     0.754  45.93  27
       399      3.0121    398.5320 307.9309834  +6.5178184     908.0519     1796.125     2901.683     80.94988     151.8589     271.3207      2.196     5.31     929.5643     57.28606      134.179        11     1.543     0.516  24.90  19
       400    496.3383    396.9705 307.7261129  +6.5350246     3021.001      4627.85      4820.53     81.20892     162.5471      324.965      1.629     4.45     915.8879     57.28606     407.6656        23     1.469     0.919  77.43   0
       401    468.5291    397.5860 307.7376443  +6.5338390     2298.014     3619.859      4067.49     80.94989     162.4178     324.9004      1.735     4.24     916.4639     57.28606     283.9391        20     1.459     0.818  74.56   0
       402    925.0825    396.5603 307.5480181  +6.5495201     843.9335     1234.412     867.3421     81.46714     162.6117     324.9327      1.584     5.26     909.3093     57.28606     148.6677        13     1.480     0.661  83.31   0
       403    854.1926    393.6626 307.5775650  +6.5483523     33027.41     51252.41     54288.26     80.82005     162.3532     324.8034      1.654     4.36     910.8602     57.28606     4846.321        54     1.699     0.995  81.09   0
       404     71.3307    389.4847 307.9029115  +6.5238529      652.476     1148.439      1589.44     81.59595     162.8053     325.0296      2.136     4.78     928.3981     57.28606     99.63684         8     1.301     0.498 -70.11   0
       405    346.5158    388.9749 307.7886192  +6.5333055     731.9565     1089.765     763.8357     81.33813     162.2885      324.965      1.387     4.31     919.3849     57.28606     110.5499         8     1.166     0.454  78.77   0
       406    625.9639    385.8837 307.6726378  +6.5439410     2824.101     4456.669     4601.924     81.46714     162.5471     324.9327      1.637     3.75     913.8997     57.28606     418.7114        24     1.392     0.975  76.48   0
       407     33.9565    386.4616 307.9185382  +6.5238441     1137.784     1424.791      1465.38     81.46714     162.4825     325.1265      1.462     4.52     928.7736     57.28606     160.4712        13     1.318     0.700  65.64   0
       408    710.6453    379.6004 307.6376706  +6.5493666     78363.26     119487.2     125259.4     80.69002     162.2885     324.5446      1.640     3.95     913.0212     57.28606     11977.01        88     1.658     1.137  75.46   0
       409    868.8466    380.9416 307.5719042  +6.5540947     1164.299     1726.317     2001.297     81.46714     162.5471     325.1265      1.716     4.78     909.6273     57.28606     171.4603        13     1.342     0.804  77.35   0
       410     89.8243    379.3393 307.8955726  +6.5286644     1459.217     2145.612      2496.52     81.07951     162.4825     324.9004      1.562     4.00     928.0515     57.28606      216.863        15     1.286     0.783  77.69   0
       411    952.1898    377.1798 307.5374067  +6.5584274     853.1301     1136.112     722.3288     81.07951     162.2238      324.868      1.584     5.06     907.1185     57.28606     133.4948         9     1.178     0.614  70.46   0
       412    573.1145    376.3547 307.6949130  +6.5461082     2609.261     4123.765     4394.398     81.46714     162.4178     324.9973      1.615     3.90     913.7035     57.28606     384.0521        19     1.368     0.907  72.72   0
       413    400.5761    376.5926 307.7665798  +6.5402315     553.7645      916.672     1061.578     80.94989     162.3532     324.8357      1.214     4.16     917.3202     57.28606     101.5692         6     1.347     0.367  40.22   0
       414    110.4054    375.1561 307.8871649  +6.5310838       5974.6     9482.479     9534.277     80.82005     162.2238      324.674      1.645     4.14      927.542     57.28606     834.9374        31     1.520     1.010  76.41   0
       415    771.4760    374.5137 307.6125707  +6.5534993      647.425      943.157     1342.537     81.46715     162.8698     325.0619      1.625     5.10     912.3066     57.28606     120.5685         6     1.481     0.496 -87.69   0
       416    556.3629    372.4854 307.7020022  +6.5471455     7082.879     11013.19     11450.63     81.46715     162.4825     324.9973      1.691     3.98     913.5249     57.28606     1036.469        34     1.528     1.012  79.00   0
       417    285.3117    370.2965 307.8146737  +6.5389656     2532.488     3708.386      3485.29     81.46715     162.9343     325.0296      1.577     4.04     920.7593     57.28606     379.4113        22     1.428     0.873  74.50   0
       418    419.2924    367.6647 307.7591058  +6.5445457     25586.79     39320.06     40501.63     81.46715     162.7408     325.0296      1.674     3.86     916.4087     57.28606     3551.404        54     1.630     1.093  76.39   0
       419    597.6305    367.1407 307.6850386  +6.5507335      567.918      837.177     1064.489     81.20892     162.5471      324.965      1.659     5.04     913.0551     57.28606     82.81543         6     1.088     0.661 -69.73   0
       420    527.0799    366.6308 307.7143640  +6.5485831     1267.893     2149.662     1999.601     81.33813     162.5471      324.965      1.722     4.62     913.3296     57.28606     196.7776        12     1.421     0.570  73.82   0
       421    399.3541    365.8456 307.7674498  +6.5446287     1024.625     1573.591     1960.495     81.46714     162.4825     325.0296      1.912     5.31     916.9542     57.28606     159.4584        11     1.370     0.581  60.48   0
       422    498.4243    363.1691 307.7263847  +6.5490532     1148.105     1922.191     2256.367     80.94989     162.4178     324.8034      1.752     4.98     913.1428     57.28606     159.4847        15     1.382     0.846  82.26   0
       423    813.9681    360.1542 307.5954002  +6.5608480      890.718     1366.922     941.3681     81.20892     162.5471      324.868      1.537     5.33     910.7418     57.28606     128.7717        11     1.391     0.690  84.85   0
       424    508.3375    358.1084 307.7224369  +6.5514751      8320.72     13019.34     13765.93     81.46714     162.6763     325.0942      1.670     3.96      912.727     57.28606     1113.917        36     1.583     1.000  73.61   0
       425    396.2652    360.4022 307.7689165  +6.5467730     669.1223     1073.875     1310.191     80.82005     162.2238      324.771      2.028     4.12     916.8109     57.28606     128.9246         7     1.288     0.376  79.21   0
       426    777.5014    356.8175 307.6106619  +6.5610085      3166.01      4789.74     4843.646     81.46715     162.3532      324.771      1.576     4.49     911.6266     57.28606       457.19        22     1.509     0.854  72.24   0
       427    932.5612    356.5878 307.5462516  +6.5662770     896.7684      1206.59     1677.646     80.94989     162.3532     324.7387      1.365     3.70     907.0231     57.28606     150.8381         9     1.014     0.705  68.28   0
       428    724.9438    356.5047 307.6325067  +6.5593822     781.7319     950.6129     888.2336     81.33813     162.5471     325.2234      1.285     3.35     912.3207     57.28606     143.4405         6     1.039     0.446  72.00   0
       429    334.7881    354.8819 307.7946410  +6.5469912     1081.789     1581.767      1290.63     81.07951     162.2885     324.8357      1.580     4.05     918.5786     57.28606     156.9996        10     0.944     0.828 -87.39   0
       430    170.6803    348.4926 307.8630281  +6.5441203     1132.812     1833.725     2063.938     81.20893     162.8053     325.0619      1.735     4.51     924.9239     57.28606     148.4116        14     1.216     0.804  44.60   0
       431    398.2649    342.2268 307.7686984  +6.5543458     7291.205     11407.39     11825.49     81.07951     162.4825     324.9004      1.673     3.97     915.8262     57.28606     1080.168        34     1.576     0.977  76.35   0
       432    254.0219    342.9448 307.8285949  +6.5492104      2103.87      3100.74     3475.224     80.94989     162.5471     324.8034      1.574     3.84     920.8018     57.28606     333.7566        17     1.275     0.808  77.91   0
       433    751.9740    342.4681 307.6217489  +6.5660818     988.3226     1338.347     1343.251     81.07951     162.4178     324.9004      1.483     5.36     911.2271     57.28606     134.6806        11     1.420     0.572  69.54   0
       434    766.1573    338.1532 307.6160015  +6.5683375     53848.56     81330.84     84894.92     81.46714     162.5471     324.9327      1.606     4.13     910.7507     57.28606     8237.818        66     1.632     1.055  76.12   0
       435    437.6851    337.5252 307.7524809  +6.5576085     2315.334     3597.865     3523.483     81.59595     162.8698     325.0619      1.712     4.05     913.8135     57.28606      309.678        20     1.446     0.840  77.86   0
       436   1001.0586    335.3930 307.5185050  +6.5773128     1728.139     2645.047     2570.341     80.82005     162.4178     324.7064      1.624     4.17     903.1025     57.28606     249.9439        15     1.380     0.764  66.21   0
       437    941.8832    334.3551 307.5431243  +6.5757693     2375.311     3641.193     3991.283     81.46714     162.5471     324.9973      1.605     4.27     905.6126     57.28606     352.0145        21     1.449     0.857  74.77   0
       438    583.9598    334.7142 307.6918089  +6.5636672     1192.756     1913.067     2177.581     81.46714     162.4825     324.9973      1.668     5.33     911.1312     57.28606     186.0558        13     1.398     0.719  73.06   0
       439    475.0075    333.9143 307.7370979  +6.5603501     1073.542     1976.099     2174.116     81.07951     162.2238     324.8357      2.050     5.71     911.8309     57.28606     139.4244        13     1.337     0.686  76.55   0
       440    424.1907    332.9345 307.7582415  +6.5590521     1816.054     3006.172     3264.504     80.94988     162.3532     324.9004      1.691     4.01     914.1517     57.28606     265.3409        20     1.402     0.909  76.89   0
       441    845.5243    327.8922 307.5833734  +6.5752245     1191.936      2027.66     2472.955     81.33813     162.6763     324.9973      1.911     4.85     908.1782     57.28606     176.1499        11     1.291     0.605  76.49   0
       442    474.7974    328.3350 307.7373731  +6.5626471     782.2299     1184.629     1295.399     80.82005     162.2885      324.771      1.571     4.91     911.5631     57.28606     112.6912         8     1.102     0.621  88.71   1
       443    454.9134    324.6689 307.7457570  +6.5634950     1003.926     1532.078     2473.128     81.59595     162.8053     325.0296      1.825     4.72     912.2807     57.28606     135.3706        12     1.193     0.690  71.69   0
       444    200.7717    324.5376 307.8513372  +6.5550235     2333.822     3686.283     3546.139     81.07951     162.5471      324.965      1.681     4.07     922.8401     57.28606      325.959        19     1.439     0.821  73.21   0
       445    764.6246    322.6701 307.6171584  +6.5746803     6062.332     9162.378     10183.41     81.07951     162.4178     324.9327      1.632     4.19     909.8127     57.28606     952.8862        28     1.550     0.869  75.91   0
       446     97.0534    321.7737 307.8945161  +6.5526792     972.6296     1639.038     1405.681     81.20892     162.6763     324.9004      1.691     5.02     927.5186     57.28606     177.4506        13     1.517     0.662  82.39   0
       447    780.9386    320.5298 307.6104527  +6.5761091     2724.995     3836.285      3645.04     81.59595     162.5471     325.0619      1.557     3.92     909.4629     57.28606     381.0824        20     1.433     0.812  74.39   0
       448    236.1385    322.2425 307.8367229  +6.5571591      656.262     861.8362     817.2183     81.46714     162.5471     325.0942      1.255     2.43     920.9845     57.28606     111.5888         6     0.733     0.544  49.71   0
       449    370.6718    315.5313 307.7810613  +6.5644448     1526.195     3694.212     4524.571     81.46715     162.6763      324.965      2.429     6.87     915.7415     57.28606     208.6598        33     1.760     1.474  15.07   0
       450     84.0846    315.5887 307.9001126  +6.5547972     1241.726     1779.022     1398.604     81.07951     162.2885     324.8357      1.482     4.43     927.5045     57.28606     200.6558        10     1.070     0.594  65.75   0
       451   1019.1799    311.5814 307.5117743  +6.5877501     5941.066      8947.65     9690.453     81.20893     162.4825     306.4713      1.645     4.29      901.326     57.28606     938.0244        30     1.503     0.942  68.46  16
       452    497.2305    311.5068 307.7286205  +6.5703479     2080.418     3347.909     3417.866     81.59595     162.2885     324.9327      1.718     3.82     910.4473     57.28606     306.3484        20     1.326     0.928  80.18   0
       453    259.8534    307.0387 307.8273846  +6.5642338     5775.096     9119.102     9706.722     81.46714     162.6117     324.9973      1.667     3.78     919.7578     57.28606     837.2966        33     1.589     0.995  77.67   0
       454    779.2561    300.3378 307.6118298  +6.5843915     766.8927     1033.954     1055.533     81.59595     162.5471     325.0296      1.533     4.91     908.1833     57.28606     114.2415         9     0.977     0.698  73.56   0
       455    236.2959    299.7476 307.8374170  +6.5664537     638.4797     1061.753     883.4672     81.33814     162.4825     325.2557      1.704     4.21     920.6987     57.28606     97.39966         6     0.758     0.667  30.88   0
       456    394.0151    297.8273 307.7719608  +6.5725385       1555.1     2580.023     2894.652     81.07951     162.3532     324.9004      1.753     5.38     913.4716     57.28606     210.3882        16     1.460     0.757  72.13   0
       457    980.8685    296.7378 307.5281887  +6.5926037     1028.892     1485.576     1589.762     81.46714     162.4825     325.0296      1.380     3.85     902.3219     57.28606     177.6257        10     1.184     0.583  66.48   0
       458    316.1904    294.0426 307.8044193  +6.5714913     1201.027     1727.782     1337.691     80.94989     162.3532     324.7387      1.539     4.47      917.187     57.28606      172.076        14     1.322     0.709 -89.88   0
       459    200.8140    294.6178 307.8523303  +6.5673804     486.4295     828.8226     423.5467     81.20892     162.2238     324.9004      1.754     4.95     922.5499     57.28606     71.88776         5     1.096     0.632  63.58   0
       460    163.5216    293.1945 307.8678704  +6.5667153     1708.769     2515.442     2780.517     81.07951     162.0294      324.771      1.605     4.07     924.6492     57.28606     270.5269        17     1.360     0.807  69.46   0
       461    573.4183    289.2348 307.6977188  +6.5820959     2148.951     3308.154     3750.142     80.94989     162.3532      324.771      1.626     4.16     908.3395     57.28606     281.7677        18     1.421     0.773  74.22   0
       462    917.0330    288.3506 307.5549914  +6.5939395     1749.822      2916.21     3491.743     81.33813     162.5471     324.9327      1.933     5.89     904.6984     57.28606     257.9037        20     1.735     0.970  52.37   0
       463    736.9952    286.8715 307.6298398  +6.5885412     4953.076     7560.441     7802.831     81.07951      162.159      324.868      1.582     4.27     907.9246     57.28606     686.8815        25     1.487     0.917  77.37   0
       464    975.0555    286.8173 307.5309364  +6.5965069     564.5159      708.292     481.3517     80.94988     162.4825     324.7387      1.391     4.52     902.2064     57.28606     122.5973         8     1.414     0.411  65.94   0
       465    677.7532    286.6062 307.6544611  +6.5866710     2043.731     3142.514     3434.548     80.94989     162.3532     324.6417      1.639     3.98     908.0519     57.28606     272.2635        18     1.398     0.758  73.00   0
       466    393.0891    281.2775 307.7729035  +6.5793419     716.8908     1092.014     1152.499     81.46714     162.8053     325.0619      1.653     4.68     912.7414     57.28606     108.4561         7     1.011     0.616  89.21   0
       467    933.0127    279.0080 307.5486657  +6.5983305     1131.006     1779.568     2273.525     81.07951     162.3532     324.9004      1.787     5.36     903.6263     57.28606     168.7413        12     1.314     0.616  72.10   0
       468    236.4960    272.1165 307.8382670  +6.5778708     2220.894     3258.985     3630.195     81.33813     162.9343     325.0942      1.539     4.29      920.189     57.28606     300.8381        17     1.314     0.793  69.41   0
       469    879.1404    270.9969 307.5713167  +6.5998422     1651.743      2354.98     2618.575     80.82005     162.2885     324.7064      1.433     3.67      905.282     57.28606     265.9156        13     1.193     0.693  84.99   0
       470    769.7029    270.2973 307.6168079  +6.5964783     1563.204     2296.527     2123.223     81.46715     163.0631     324.8357      1.519     4.63       907.16     57.28606     258.5069        16     1.475     0.737  74.61   0
       471    258.3016    265.9946 307.8294149  +6.5811311     682.7045     993.3354     956.7698     81.20892      162.159     324.6417      1.497     5.26     919.1251     57.28606     105.1241         7     1.118     0.698 -87.68   0
       472    470.5126    262.0291 307.7413870  +6.5898854     22559.31     35332.88     36936.98     81.59595     162.2885      324.868      1.670     3.90     908.6407     57.28606     3058.145        47     1.608     1.058  78.61   0
       473    331.5390    263.4819 307.7990741  +6.5846265     617.1264     1128.108     941.8466     81.59595     162.5471     324.9973      1.719     4.39     915.5892     57.28606      113.054         8     1.452     0.378  76.59   0
       474    796.4997    261.1667 307.6059814  +6.6011438     13309.21     20374.28     21987.62     81.46715     162.4178     325.1588      1.670     3.88      906.523     57.28606     2187.375        50     1.543     1.242  67.94   0
       475    158.6570    255.3879 307.8711689  +6.5821641     2391.514     3778.527     3896.017     80.82005     162.4825      324.674      1.673     4.13     923.5242     57.28606     334.4935        23     1.564     0.877  79.36   0
       476    734.7722    257.0527 307.6317654  +6.6007811     724.6778     1064.292     818.2564     81.20892     162.6763     324.9004      1.478     2.67     907.4357     57.28606     121.2564         7     0.711     0.670  86.70   0
       477    133.3369    254.3560 307.8817226  +6.5817391     1044.084     1468.356     1226.061     81.46715     162.4825     325.0619      1.636     3.96     924.6749     57.28606     190.8719         9     1.111     0.554  75.42   0
       478    476.0407    256.5633 307.7392745  +6.5923277     1318.242      2082.73     2670.322     81.20892     162.5471      324.868      1.935     5.37     908.2104     57.28606     191.5175        20     1.678     0.939  72.30   0
       479    932.8409    251.6932 307.5496532  +6.6096050     1469.059     2249.208     2367.493     81.59595     162.4825     325.0942      1.573     4.79     902.4677     57.28606     211.2382        15     1.372     0.719  74.91   0
       480    185.3353    252.9313 307.8601689  +6.5840750     603.6927     882.2361     761.3471     81.46714     162.6117     325.0296      1.480     2.66     922.1671     57.28606     105.0425         5     0.850     0.471  87.30   0
       481    594.5967    247.7406 307.6903165  +6.5999402     4653.876     7263.576      7266.15     80.82005     162.3532     324.7387      1.672     3.92     907.1091     57.28606     643.6918        26     1.539     0.891  76.34   0
       482    314.8680    248.3792 307.8065095  +6.5903040      1156.89     1652.205     1258.211     81.07951     162.4825      324.868      1.574     4.16     916.1348     57.28606     191.9255        12     1.274     0.705  78.93   0
       483    557.2217    247.8187 307.7058418  +6.5986572     2044.443     3152.614     2921.799     81.20892     162.4178     324.9327      1.625     4.14     907.1345     57.28606     275.7703        18     1.427     0.784  76.63   0
       484    398.9109    246.8909 307.7716443  +6.5937373     1411.492     2280.972     1815.574     81.46714     163.0631     325.0942      1.678     5.25     911.1871     57.28606     179.4863        14     1.503     0.654  78.51   0
       485    955.4240    244.8495 307.5404999  +6.6131841     2713.486      4175.71     4572.309     81.07951     162.6117     324.9004      1.633     4.12     901.8693     57.28606     457.9272        19     1.417     0.795  76.86   0
       486    901.5186    244.2922 307.5629152  +6.6116169     11261.02     16817.23      16957.2     81.20893     162.8053     325.0619      1.597     3.86     902.9545     57.28606     1867.085        36     1.566     0.931  71.35   0
       487    699.6680    242.4557 307.6468407  +6.6056362     2837.812     4441.692     4754.057     81.59595     162.4178     324.9327      1.743     4.28     907.2098     57.28606     454.1815        24     1.715     0.812  76.40   0
       488    220.7784    244.8979 307.8457159  +6.5885830     614.4861     862.0807     921.0079     81.33813     162.3532     324.7387      1.550     4.40     920.1709     57.28606     100.6727         7     1.324     0.417  64.87   0
       489    988.1887    242.2086 307.5269752  +6.6153667     9923.639     14646.04     15390.31     81.07951     162.3532     324.9327      1.569     4.12     901.4055     57.28606     1618.593        33     1.519     0.898  75.30   0
       490    576.5378    243.9413 307.6979472  +6.6009049     833.7616     1027.606     634.3446     81.59595     162.4825     325.0296      1.361     4.07     907.0049     57.28606     132.0593         7     1.210     0.390  74.30   0
       491    329.1748    244.7514 307.8006882  +6.5922821     848.2943     1249.678     1272.953     81.07951     162.5471     324.9004      1.692     4.24     915.1317     57.28606     136.6794         7     1.047     0.490  70.61   0
       492     27.6998    240.9582 307.9260604  +6.5837188     24973.59     39451.07     41217.52     81.46714     162.4178     325.2234      1.676     3.88     927.4183     57.28606     3356.256        56     1.633     1.122  76.52   0
       493    273.7266    241.6672 307.8238281  +6.5916950     1153.705     1398.129     717.4889     81.59595     162.6763      324.965      1.315     3.01      918.299     57.28606     187.8647        12     1.005     0.756  59.69   0
       494    508.2829    237.1248 307.7265341  +6.6014349     1913.792     3018.153     2879.967     81.59595     162.8698     325.0619      1.633     4.04     906.8952     57.28606     313.8573        18     1.473     0.775  76.62   0
       495    840.1345    233.7656 307.5887723  +6.6139161     2055.783     3164.871     3425.407     81.33813     162.5471     324.9973      1.608     4.26     904.2554     57.28606     301.9893        18     1.421     0.859  62.78   0
       496    520.1730    232.9635 307.7217343  +6.6035516     2432.705     3731.737     3838.751     80.94989     162.3532     324.8034      1.613     4.75     906.6921     57.28606     316.9832        19     1.497     0.844  77.71   0
       497    892.3488    232.9977 307.5671040  +6.6159754     2012.337     2942.434     3486.253     80.82005      162.159      324.577      1.517     4.27     902.6107     57.28606     308.6571        15     1.282     0.749  74.33   0
       498    751.7197    230.3404 307.6256217  +6.6123786     40638.08     60813.71     63282.92     81.59595     162.5471      324.965      1.615     3.91       906.65     57.28606     6008.154        58     1.592     1.051  75.10   0
       499    639.8313    232.8864 307.6720228  +6.6075875     512.6744     788.4232     770.9424     81.46714     162.3532     324.9327      1.534     4.50     906.8911     57.28606     93.65875         5     0.800     0.720 -80.75   0
       500    354.7831    229.6653 307.7905582  +6.5993710     6060.332     11668.16      12939.1     80.94989     162.4178      324.868      2.089     5.93     912.6181     57.28606     704.0717        43     2.129     1.056 -88.40   0
       501    985.6020    229.1280 307.5284885  +6.6206824     2810.853     4286.614     4187.968     80.94988     162.0942     324.8357      1.612     3.97     901.3371     57.28606     440.9116        21     1.429     0.877  71.30   0
       502    919.6617    227.4128 307.5559433  +6.6191927     7683.958     11382.76     12043.61     80.94989     162.3532     324.7064      1.571     3.83     901.6108     57.28606     1294.102        29     1.476     0.899  75.12   0
       503   1023.6288    227.6276 307.5127390  +6.6225690     1503.244     1879.955      1499.76     70.84968     129.5425     245.0022      1.116     4.25     901.2529     57.28606     277.7057         8     1.167     0.453  81.08  24
       504    463.1934    226.5509 307.7456232  +6.6042912     4936.871      7974.92     8194.141     80.94989     162.3532     324.6093      1.746     4.21     907.3838     57.28606      696.233        30     1.557     0.995  72.55   0
       505    237.7054    223.5427 307.8394049  +6.5979701     711.9427     1193.241     1242.594     81.33814     162.5471     325.1588      1.729     4.80     919.1274     57.28606     112.4178         8     1.278     0.512  48.67   0
       506    120.5451    217.7209 307.8882753  +6.5964375     4817.115     7499.454     7685.876     81.59595     162.5471     325.0296      1.659     3.57     924.0444     57.28606     698.4189        32     1.646     0.938  76.79   0
       507    290.8281    214.4825 307.8176409  +6.6034950     33154.22     52224.94      54227.7     81.33813     162.3532     324.9327      1.698     3.88     917.8558     57.28606     4310.134        59     1.659     1.130  78.83   0
       508    266.1452    215.5472 307.8278596  +6.6022268     6467.722     9962.244     10064.17     81.72454     162.4825      324.965      1.633     3.81     918.5175     57.28606     988.5568        30     1.552     0.930  80.44   0
       509    939.5296    216.5190 307.5480538  +6.6243540     886.3281     1183.427     1574.618     81.72455     162.8698     325.0296      1.624     4.54     900.9821     57.28606     118.9388         7     0.929     0.629  75.35   0
       510    616.5527    216.2812 307.6822531  +6.6136663     692.6653     1084.789     1214.278     81.46715     162.5471     325.0296      1.836     4.90     906.3543     57.28606     100.5659         6     0.949     0.716 -63.29   0
       511    720.0668    213.7411 307.6393307  +6.6181761     872.4042     1327.143     1602.155     81.59595     162.4825     324.9973      1.700     4.94     906.4117     57.28606     162.2019        12     1.375     0.644  77.62   0
       512    414.9113    209.9882 307.7662409  +6.6095130     48193.87     76639.38     80894.28     81.20892     162.2238      324.868      1.680     3.94     909.0068     57.28606     6750.676        70     1.684     1.134  76.53   0
       513    170.8196    211.2609 307.8676074  +6.6007950     3929.363     6227.513     6526.284     81.07951     162.4825     324.9004      1.675     4.12     921.5619     57.28606     570.1723        32     1.588     1.028  78.82   0
       514    432.2058    210.3676 307.7590429  +6.6099359     1376.582     2179.848     1833.535     80.82005     162.3532     324.8034      1.643     5.13     908.2197     57.28606     208.9667        14     1.346     0.751  73.14   0
       515    318.8999    207.6964 307.8062073  +6.6072394     17761.18     27981.35     29338.85     81.46714     163.0631     324.8357      1.693     4.02     915.4893     57.28606      2318.12        45     1.622     1.044  76.39   0
       516    754.1713    206.2173 307.6254137  +6.6224225     33132.85     50306.51     52275.75     81.07951     162.3532     324.9327      1.608     3.95      905.579     57.28606     5261.298        53     1.624     1.009  76.10   0
       517    326.5359    207.3398 307.8030469  +6.6076429     1999.203     3629.557     4853.967     81.46715     162.4825     325.0296      2.454     6.13      914.789     57.28606     295.4311        26     1.893     0.957 -88.03   0
       518    702.3243    207.7230 307.6469047  +6.6200684     1162.823     1658.885     1222.642     81.72455     162.8053     325.0619      1.548     4.30     906.2349     57.28606     199.8901        13     1.215     0.744  70.80   0
       519    802.5338    206.6651 307.6053047  +6.6238527     1332.244     1901.665     2370.944     81.46715     162.5471     325.0296      1.586     4.91     904.5193     57.28606     222.5565        11     1.205     0.645  80.64   0
       520     71.0363    203.4156 307.9093271  +6.6006799     9038.787     14043.65     14936.34     81.07951     162.3532     324.8034      1.684     3.89     925.6722     57.28606     1294.136        38     1.670     0.974  77.74   0
       521     41.5591    206.3676 307.9214732  +6.5984692     670.8254     1049.198     1349.978     81.07951     162.4178      324.868      1.918     3.94     926.9457     57.28606     109.9168         6     0.927     0.480   3.10   0
       522    104.8407    201.5697 307.8953457  +6.6025791     1643.164     2403.415     2497.691     80.94989     162.2885      324.868      1.608     4.00     924.1567     57.28606     225.1379        18     1.347     0.833  75.46   0
       523   1012.6131    200.3708 307.5182294  +6.6334583     1061.851     1548.025     1405.356     80.94989     162.2885     324.9004      1.534     5.42     900.0598     57.28606     167.7684        11     1.350     0.636  81.22   0
       524    587.9155    190.6665 307.6950132  +6.6232861     987.4403     1143.834     709.2957     81.59595     162.8053     325.0619      1.327     3.81     905.6501     57.28606     145.7666        11     1.044     0.711  77.38   0
       525      4.0874    188.6644 307.9376396  +6.6045184     1028.137      1601.38     1543.488     81.46714     161.0543      286.201      1.565     5.52     928.8891     57.28606     162.3428        11     1.216     0.727  61.03  16
       526   1013.6183    187.0307 307.5182589  +6.6390009     2313.427     3710.559     4087.527     81.07951     162.3532      324.868      1.863     4.37     899.4055     57.28606     370.3035        18     1.479     0.748  60.99   0
       527    596.7437    184.5967 307.6915495  +6.6260881     922.4541     1381.464     1180.949     80.82005     162.3532      324.674      1.578     5.52     905.5198     57.28606     126.3063        11     1.397     0.616  74.71   0
       528    604.7792    182.4387 307.6882835  +6.6272481     1987.116     2908.679     3097.835     81.07951     162.3532     324.7387      1.603     4.21       905.46     57.28606     285.8574        21     1.493     0.810  77.91   0
       529    289.7423    180.7629 307.8192302  +6.6173832     29921.15     47405.11     49929.16     81.46715     162.6117     324.9973      1.698     3.92      918.598     57.28606     3946.269        59     1.671     1.111  77.03   0
       530    282.3884    183.8655 307.8221808  +6.6158551     676.8041     1140.881     890.5776     80.94988     162.3532      324.868      1.471     3.45     918.7241     57.28606     95.10895         5     0.775     0.445 -71.66   0
       531     34.8944    179.2714 307.9251589  +6.6094341     4362.268     7095.043     7955.316     81.33813     162.6117     325.0296      1.814     4.17     927.2333     57.28606     650.0384        31     1.776     0.941  88.80   0
       532    677.1876    182.7955 307.6581868  +6.6295224     460.3888     574.3395     354.1194     81.07951     162.2885      324.868      1.260     3.38     905.5674     57.28606     83.23694         5     0.957     0.345  45.79   0
       533    348.9435    182.4889 307.7945758  +6.6186569     1062.953     1488.452     1688.823     81.46714     162.4178     325.1265      1.688     4.95     912.9123     57.28606      125.634        10     1.068     0.648  67.16   0
       534    721.4680    177.4066 307.6399698  +6.6332278     8025.782     12068.38     12919.19     80.94989     162.2238     324.8034      1.644     4.09     904.7224     57.28606     1260.794        30     1.522     0.920  77.53   0
       535    198.9453    178.8661 307.8570171  +6.6151175     928.4924     1385.335     1135.813     81.46714     162.4825     324.9973      1.553     4.71     920.1896     57.28606     144.9785         8     1.233     0.510  67.98   0
       536    275.5625    175.3256 307.8253050  +6.6191526     784.1255     1347.999      1127.52     81.33814     162.6117     325.0296      1.786     4.66     918.9459     57.28606     130.1386         9     1.501     0.411  78.91   0
       537    132.1212    174.5281 307.8849263  +6.6146631     5022.166     7683.923     7870.835     81.72454     162.8053      324.965      1.650     3.95     922.1369     57.28606     696.1096        28     1.488     0.958  76.31   0
       538    471.2408    171.7065 307.7441278  +6.6272094     1387.292     2199.165     2077.591     81.59595     162.4825     325.0942      1.745     5.87     905.4022     57.28606     214.9042        15     1.510     0.714  73.04   0
       539    402.8661    170.4055 307.7725800  +6.6254551     3890.197     6839.936     7236.555     80.94989     162.2238     324.8034      1.909     4.35     908.0827     57.28606     554.5085        34     1.742     1.058  74.51   0
       540    660.0740    171.3773 307.6656813  +6.6336655     845.8354      1305.37     1579.802     81.07951     162.3532      324.965      1.855     4.55      905.239     57.28606     123.4329         8     1.000     0.616  74.61   0
       541    593.8983    172.1763 307.6931497  +6.6311221     698.8452     1281.408     1122.777     81.59595     162.2885     324.8357      1.958     3.82     905.1945     57.28606     109.4553         5     0.798     0.526  56.02   0
       542    367.2741    169.4032 307.7874014  +6.6246755     3287.168     5277.647     5623.791     80.94989     162.0294      324.868      1.726     3.98     911.2922     57.28606      478.305        23     1.539     0.846  78.20   0
       543    121.5856    169.3629 307.8894781  +6.6164419     1814.727     2835.577       3177.9     81.07951     162.3532      324.771      1.625     4.03     922.2569     57.28606     260.6998        18     1.387     0.782  73.53   0
       544    949.9922    168.8891 307.5453040  +6.6443725     547.2411     747.8351     812.0954     80.94989     162.2238     324.7387      1.303     5.06     898.9504     57.28606     77.91534         6     1.282     0.565  82.76   0
       545    579.0046    169.6309 307.6994235  +6.6316748     608.3444     1040.845     827.7869     80.94988     162.4178      324.771      1.757     4.54     905.1227     57.28606     89.95679         6     0.897     0.652  36.67   0
       546   1014.0418    163.7283 307.5188639  +6.6486382     1430.386     2159.579     2081.353     81.33813     162.5471     325.0619      1.615     4.98     898.2534     57.28606     218.7421        14     1.291     0.697  76.06   0
       547    739.6161    163.3192 307.6329028  +6.6396518     272.2262    -307.2727    -130.6017     81.07951     162.2885     324.8357     -7.299     4.25     903.7254     57.28606     112.2919         5     1.253     0.411  77.31   0
       548     59.7586    164.2223 307.9153383  +6.6164852      484.999      700.463     223.4659     81.07951     162.3532      324.771      1.567     4.40     925.4511     57.28606     79.18964         5     0.752     0.734 -74.67   0
       549    219.1654    158.2483 307.8493129  +6.6243109     5363.739     8401.501      8576.92     81.20892     162.5471     324.9327      1.661     4.11     919.5757     57.28606     774.1779        31     1.569     0.948  78.10   0
       550    101.7571    157.9671 307.8981013  +6.6204810     2022.005     3317.567     3704.769     81.07951     162.5471     324.8357      1.711     4.21     922.4473     57.28606     267.0259        22     1.519     0.865  79.75   0
       551    680.9198    157.1793 307.6574975  +6.6402257      6205.86     9414.074     10120.74     81.20892     162.2238     324.9973      1.580     3.97     904.6138     57.28606     906.8672        26     1.471     0.865  76.22   0
       552    829.1232    157.0547 307.5959229  +6.6452278      1063.99     1294.542     1113.551     81.59595     162.5471     324.9973      1.366     4.84     901.4142     57.28606     143.9683         9     1.051     0.630  59.51   0
       553    633.1302    154.4248 307.6774465  +6.6397652      9171.74     14340.17     16585.01     81.07951     162.4178     324.9327      1.694     4.05     904.6666     57.28606     1409.582        40     1.637     1.058  75.73   3
       554    636.6504    145.9240 307.6762699  +6.6433935     53120.33      81630.8     85485.62     81.33813     162.6117     324.9973      1.620     3.92     904.3465     57.28606     7332.437        67     1.644     1.077  76.75   2
       555    268.0561    154.4067 307.8291300  +6.6275391     815.8411     998.9965     1189.566     80.94988     162.4178     324.7387      1.427     4.99     919.2068     57.28606     139.3694         7     0.876     0.803  80.30   0
       556    758.0236    166.9006 307.6251342  +6.6387877     587.4997     651.3314     188.0918     81.59595     162.2885     324.8034      1.343     3.79     903.6057     57.28606     103.4131         5     0.664     0.621  87.52   0
       557     32.1488    152.7691 307.9271965  +6.6202857     953.9796     1489.479     1169.477     81.33813     162.6763     324.9327      1.644     4.90     927.4129     57.28606     138.5073        14     1.203     0.938  89.47   0
       558    360.2408    150.1665 307.7909725  +6.6323835     3637.135     6227.326     6267.403     81.20892     162.5471     324.8357      1.821     4.26      912.006     57.28606     524.7682        28     1.595     1.040  87.57   0
       559    542.0043    149.5746 307.7154721  +6.6387188     1608.088     2584.324     3141.085     80.94988     162.2885     324.8357      1.644     4.35     904.6774     57.28606     237.8337        18     1.461     0.773  77.20   0
       560   1006.4323    149.0343 307.5225183  +6.6544529     726.5933     1041.244     1046.251     81.07951     162.2885     324.7387      1.660     4.68     897.5518     57.28606     116.8898         6     1.410     0.442  65.16   0
       561    702.5534    146.2482 307.6488762  +6.6454630     453.1306     596.6589     434.1209     81.46715     162.4178     324.9973      1.209     3.47     903.6686     57.28606       92.547         5     1.102     0.315  68.65   0
       562    315.7383    139.6276 307.8098180  +6.6352426     3543.296     5687.206     5899.412     81.07951     162.6117      324.965      1.720     3.99      916.454     57.28606     460.0802        25     1.451     0.939  74.73   0
       563    715.6953    134.0299 307.6438265  +6.6509479      812.309     982.7781     1078.567     81.59595     162.2885     324.9973      1.459     5.23     902.8256     57.28606     137.5494        10     1.527     0.506  78.22   0
       564    687.1533    133.2386 307.6557125  +6.6503207     1392.916     2263.874     2421.732     81.33813     162.5471     324.8357      1.690     4.84     903.4474     57.28606     212.3179        17     1.530     0.732  79.33   0
       565     13.3179    122.6474 307.9360395  +6.6320904     717219.8      1558679      1704530     81.46715     162.5471     325.0296      2.197    12.14     928.9576     57.28606     61280.94       443     2.332     1.760  81.55  28
       566    700.9968    129.7705 307.6500770  +6.6522157     3184.254      4866.65      4988.06     80.94989     162.3532     324.8034      1.550     4.40      902.989     57.28606     467.5806        21     1.457     0.816  76.54   0
       567    442.8647    120.8650 307.7576313  +6.6472539     4213.697     6369.062     6354.761     81.46714     162.5471     324.9973      1.634     4.02     905.4401     57.28606     506.5653        27     1.485     0.920  75.27   0
       568    897.3936    117.2152 307.5688930  +6.6639582     2179.954     3361.327     2981.117     81.07951     162.2885     324.8357      1.598     4.54     898.0756     57.28606     325.1974        17     1.421     0.770  72.12   0
       569    915.3129    116.3349 307.5614767  +6.6649194     3978.423     5691.466     5629.172     81.46715     162.7408     325.0296      1.522     4.04     897.7708     57.28606       671.88        21     1.397     0.803  74.38   0
       570    607.4425    114.7921 307.6894534  +6.6552727      1816.18     2818.598     2726.744     80.94989     162.3532     324.7064      1.632     4.15     903.2157     57.28606     267.5331        20     1.476     0.904  77.44   0
       571    595.0239    115.9732 307.6945737  +6.6543694     636.9783      1110.51      1490.07     80.94989     162.4178      324.868      2.216     5.20     903.4164     57.28606     88.02673         8     0.896     0.854 -50.87   0
       572    406.2753    112.7974 307.7731060  +6.6493590     1789.667     2894.005     2540.834     80.94989     162.0294     324.9004      1.625     3.85     907.2403     57.28606     297.6016        18     1.391     0.830  72.36   0
       573    253.2362    113.7096 307.8366616  +6.6438474     967.0667     1563.363     2029.347     81.59595     162.4825     325.0296      1.692     5.14     919.1993     57.28606     140.4237        11     1.238     0.778  74.65   0
       574     96.3431    113.2112 307.9018644  +6.6387806      458.805     583.3096      117.637     80.82005     162.4825      324.674      1.199     2.99      921.239     57.28606     97.82697         5     0.741     0.440  72.71   0
       575    154.1512    109.5511 307.8779702  +6.6422357     3248.515     4932.688     4921.693     81.46714     162.4178     324.9973      1.624     4.14     920.1554     57.28606     485.1637        23     1.456     0.883  73.45   0
       576    302.3561    108.2218 307.8164382  +6.6477626     1217.188     1900.938       2528.1     80.94989     162.4178     324.8034      1.592     3.58     917.9048     57.28606     199.6644        12     1.124     0.737  77.29   0
       577    575.4664    107.1517 307.7029969  +6.6573579     744.4548     828.1715     1116.831     81.33813     162.4825     324.9973      1.393     3.69     903.4463     57.28606     135.4723         6     1.033     0.497  87.16   0
       578    562.7172    106.7868 307.7083066  +6.6570818     720.3818     1264.651     1158.461     81.07951     162.2885     324.8357      1.667     5.06     903.6453     57.28606     122.8625         9     1.220     0.631 -84.13   0
       579    770.7549    105.6257 307.6219031  +6.6645174     645.8679     1185.881     1828.276     80.94989     162.6117      324.868      2.000     4.61     900.1898     57.28606     126.4408         7     1.435     0.421  86.39   0
       580     36.0124    107.4499 307.9271251  +6.6391299     12385.44     19588.16     20612.78     80.82005     162.4825     324.7064      1.670     4.03     926.7997     57.28606     1710.456        40     1.640     1.002  75.59   0
       581    782.8682    102.5482 307.6169732  +6.6661928     3179.588     4641.274     4615.972     81.33813     162.4178      324.965      1.554     4.25     899.7555     57.28606     454.7605        22     1.519     0.799  77.25   0
       582    837.6589    102.0941 307.5942217  +6.6682096      6193.28     9203.479     9891.865     81.33813     162.5471     325.1265      1.566     4.24     898.5122     57.28606     949.7983        24     1.456     0.818  75.21   0
       583    428.0132    103.1224 307.7644002  +6.6540830     1102.597     1445.799     1553.679     81.07951     162.2238     324.8034      1.460     4.34     905.6666     57.28606     161.2242        13     1.146     0.854  73.77   0
       584    928.6650    102.1494 307.5564044  +6.6712229     628.7046       916.07     846.7405     81.33813     162.4825     325.0296      1.334     3.83     897.1803     57.28606     102.1263         6     1.009     0.416  76.00   0
       585    107.2947    102.9209 307.8976623  +6.6433982      593.822     637.3287     599.5137     81.20892     162.8053     325.0619      1.208     4.27     920.6862     57.28606     93.49402         7     0.760     0.683 -86.72   0
       586     60.9258    100.0972 307.9170231  +6.6430045      1043.37      1494.31     1824.612     81.20892     162.7408     325.0296      1.489     4.71     924.2845     57.28606     182.3374        11     1.418     0.571  69.48   0
       587    664.9844     99.7903 307.6660488  +6.6633925     416.7291     630.3692     659.9373     81.20892     162.2885     324.9004      1.806     5.20      902.416     57.28606     69.95612         6     1.336     0.572  82.88   0
       588    544.9868    100.4975 307.7158855  +6.6590855     1114.489     1537.399     1800.167     81.33813     162.2885     324.7387      1.463     4.99     903.8251     57.28606      161.151        10     1.110     0.634  66.29   0
       589     76.2645     99.2747 307.9106780  +6.6438602     3200.684     4824.128     4847.558     81.59595     162.5471      324.965      1.656     3.71     922.7801     57.28606     510.3217        24     1.484     0.885  83.88   0
       590    437.4344     98.9535 307.7606262  +6.6561204      880.742     1561.556     1786.079     81.07951     162.4825     324.9327      2.062     5.68     905.4149     57.28606     124.2832        12     1.245     0.729  71.23   0
       591    600.0135     95.8379 307.6931782  +6.6628514     1241.267     1800.594     1753.612     81.07951     162.3532     324.7064      1.460     5.46     902.6509     57.28606     179.1062        12     1.313     0.642  71.37   0
       592     18.6880     94.6750 307.9347553  +6.6438221     2700.828     4139.171     4402.736     81.46715     162.8698     325.0942      1.668     3.85     928.1907     57.28606     334.7379        24     1.382     0.981  81.54   0
       593    726.8785     92.2032 307.6405857  +6.6685945     524.6379     611.5637     407.2489     80.82005     162.0294     324.8034      1.270     4.21     900.6281     57.28606      98.2182         6     1.169     0.433  63.38   0
       594    777.3953     89.9701 307.6196699  +6.6712044     2060.125      3202.59     3562.753     80.94988     162.3532     324.8034      1.559     4.34      899.395     57.28606     316.7971        19     1.551     0.740  82.49   0
       595    417.9703     90.0804 307.7690127  +6.6591321      1062.07     1634.158     1524.788     81.33813     162.5471      324.965      1.571     4.35     905.9399     57.28606     169.0062        12     1.175     0.688  77.52   0
       596     91.2388     90.5703 307.9047510  +6.6479583     815.7406     1175.552     1333.726     80.94989     162.2885      324.868      1.501     5.06     921.1594     57.28606     125.5811        10     1.219     0.799  75.65   0
       597    115.5066     88.8397 307.8947267  +6.6494891     931.9827     1354.174     954.1415     81.59595     162.4825     325.0942      1.774     5.37     920.3782     57.28606     149.7847        10     1.377     0.591  80.41   0
       598    104.0645     83.6169 307.8996573  +6.6512610     9414.501     14859.16     15169.66     80.94988     162.4825      324.868      1.650     3.90      920.508     57.28606     1375.048        39     1.604     1.021  76.34   0
       599    432.9845     83.2078 307.7630060  +6.6624735     2559.485     4149.255     4569.619     81.07951     162.2885     324.8357      1.666     4.30     905.5153     57.28606     376.2052        19     1.398     0.831  70.61   0
       600    254.6328     83.3412 307.8371070  +6.6564349     532.6628     889.2092     1610.609     81.33814     162.6117      324.965      1.862     4.12      919.142     57.28606     70.99884         6     0.903     0.535  46.12   0
       601    646.8680     75.6542 307.6743885  +6.6727539      18438.2     28053.08     29671.44     81.46714     162.4825     324.9004      1.621     3.99      901.731     57.28606     2559.091        44     1.585     1.011  76.85   0
       602    270.6846     77.3832 307.8306387  +6.6594342     1533.243     2453.439     3126.234     81.07951     162.2885     324.9327      1.743     4.47     919.0925     57.28606     198.0946        18     1.369     0.875  78.92   0
       603    546.6231     71.7586 307.7161734  +6.6710082      5041.08     7891.326     8130.236     81.07951     162.3532      324.771      1.667     3.87     902.9196     57.28606     723.8499        26     1.552     0.879  75.11   0
       604    264.8332     71.7376 307.8332606  +6.6615691     1981.347     3096.032      4163.96     81.20892     162.6117     324.9327      1.705     4.03     919.1002     57.28606     291.8955        19     1.419     0.854  78.31   0
       605     14.0817     69.8945 307.9375080  +6.6538999     1111.659     1730.123     990.8752     81.20892     162.8053     325.0942      1.617     4.53     925.4584     57.28606     168.3853        12     1.341     0.620  73.28   0
       606    633.2808     66.1018 307.6803557  +6.6762442     3108.284     5655.987     7355.629     81.33813     162.9343     325.0619      2.157     5.83      901.501     57.28606     439.2699        32     2.058     0.940  74.11   0
       607    452.1608     67.3146 307.7555738  +6.6696794     22559.35     34727.18     35512.91     81.46714     162.4825     324.9973      1.649     3.87     904.7198     57.28606     3391.544        48     1.633     1.025  75.58   0
       608    272.7312     67.7092 307.8301150  +6.6634978     9210.332      14376.7      14911.7     81.46715     162.6763      324.965      1.659     3.86     919.0696     57.28606     1254.356        32     1.580     0.942  73.99   0
       609    930.0934     67.4962 307.5569735  +6.6855811     1971.252     2881.747     2830.272     81.46714     163.0631     324.9327      1.569     4.20     895.9915     57.28606     277.1072        16     1.389     0.724  77.54   0
       610    332.5919     67.7593 307.8052410  +6.6654863     1016.427     1416.934     1181.141     80.82005     162.3532     324.7064      1.502     4.73     915.1314     57.28606     146.0747        10     1.197     0.594  85.00   0
       611     38.1657     67.2651 307.9275905  +6.6557963     2361.091     3437.725     3451.207     81.33813     162.5471     324.9973      1.619     4.09       923.76     57.28606     316.2114        18     1.464     0.801  78.45   0
       612    565.6065     66.9996 307.7084457  +6.6736090     609.0243     858.6434     495.4712     80.82005     162.2238     324.8034      1.594     4.53     902.4168     57.28606     95.14905         6     1.282     0.456  81.57   0
       613    537.6323     67.7231 307.7200452  +6.6723737     542.3813     799.1003     697.2015     81.33814     162.5471     324.9327      1.611     5.04     902.8994     57.28606     91.42487         6     1.125     0.640  66.16   0
       614    260.5771     64.2633 307.8352814  +6.6645127     3191.869     5273.606     6061.768     81.07951     162.5471      324.868      1.834     3.89     919.0998     57.28606     439.7297        25     1.618     0.830  76.48   0
       615    313.9638     62.1626 307.8131699  +6.6671723     876.8632     1471.377     2061.683     81.20892     162.4178      324.771      1.863     5.54     916.8017     57.28606     144.6144        10     1.587     0.659  81.99   0
       616    702.0089     56.7868 307.6521105  +6.6823890     1862.954     2751.177     2972.467     81.20892     162.2885     324.9004      1.525     3.89     900.2045     57.28606     294.5804        17     1.439     0.713  85.65   0
       617    950.4214     57.4035 307.5488649  +6.6904268      1021.74     1424.825     1799.717     81.07951     162.2238      324.771      1.626     4.12     894.5765     57.28606     161.0801        10     1.172     0.624  51.06   0
       618    106.7294     57.0857 307.8994475  +6.6623066     689.8126     768.6388     215.4514     81.59595     162.8053     325.0296      1.381     4.43     920.3969     57.28606     84.68561         7     0.918     0.608  59.26   0
       619    213.1800     53.0815 307.8553528  +6.6675383     739.8353     1285.038     1385.776     81.20892     162.2238     324.9327      1.630     3.83     919.3306     57.28606      123.157         6     0.789     0.534  57.44   0
       620    190.2424     49.7194 307.8649970  +6.6681559     10808.45     16490.88     16924.33     81.46715     162.5471      324.965      1.641     3.84     919.5541     57.28606     1572.831        40     1.605     0.981  76.62   0
       621    267.4312     51.9061 307.8328508  +6.6698457     810.5517     1305.212     1630.481     81.59595     162.3532      324.965      1.972     4.60     919.0603     57.28606     117.0529         8     1.095     0.549  31.58   0
       622      3.4339     49.8547 307.9426105  +6.6618166     1026.861     1588.092     1459.089     81.33813     156.0874     277.4065      1.493     4.11     923.2037     57.28606      153.813         8     1.096     0.551  71.67  16
       623    534.4302     47.9128 307.7220430  +6.6804473     2831.255     4433.558     4377.064     81.59595     162.3532     324.9004      1.621     3.96     902.3034     57.28606     383.8996        20     1.427     0.808  77.46   0
       624    935.8473     47.5305 307.5552523  +6.6940181     4252.743     6213.496     6326.054     81.46714     162.4825     324.9973      1.573     3.93     894.9856     57.28606     633.2489        25     1.467     0.880  69.74   0
       625    736.6934     46.0723 307.6380581  +6.6879728     2084.106     3246.313     2632.811     81.33813     162.6763     325.0619      1.579     3.93      898.855     57.28606     292.2492        19     1.387     0.819  75.85   0
       626    650.2254   1019.5642 307.6412622  +6.2830601     1271.459     2063.794     1941.778     81.07951     162.3532     302.2968      1.681     6.44     935.4055     57.28606     184.7735        16     1.644     0.709  70.84  16
       627    720.0410     40.2885 307.6451722  +6.6898049      7645.25     11639.79      12277.4     81.46714     162.4825     325.0296      1.617     4.13     899.1484     57.28606     1160.026        34     1.533     0.977  70.54   0
       628    640.3123     39.4779 307.6783297  +6.6874740     3820.817     5710.696     5551.513     81.46715     162.8698     325.1265      1.601     3.83     900.6664     57.28606      616.895        27     1.604     0.892  79.63   0
       629    440.4528     35.8101 307.7615008  +6.6822969     6245.979     9758.903     10284.88     80.82005     162.4825     324.7387      1.662     3.94     905.1409     57.28606     905.2036        32     1.622     0.944  75.31   0
       630    342.0384     39.3078 307.8022760  +6.6775523     927.6251     1387.002      1652.85     81.59595     162.4825     325.0619      1.545     3.13     914.3227     57.28606     167.9648         9     1.011     0.678  44.89   0
       631    396.1973     38.3084 307.7798057  +6.6797816     716.9886     1140.318      931.061     80.94989     162.2238     324.7387      1.736     5.08     908.7791     57.28606     104.7162         9     1.073     0.680  47.05   0
       632     41.3875     35.3074 307.9273335  +6.6691014     8494.361     13233.07     13743.83     81.20893     162.2885     324.8034      1.672     4.01      920.783     57.28606     1204.054        34     1.586     0.971  79.09   0
       633    687.3103     34.4369 307.6589699  +6.6911273     911.6165     1365.577     1310.126     81.46715     162.4825     325.0296      1.676     3.87       899.91     57.28606     139.9723         9     1.104     0.572  73.30   0
       634    337.0113     30.6550 307.8046569  +6.6809568     12962.15     20288.05     21739.54     80.82005     162.4825      324.674      1.659     4.05     914.7537     57.28606     1791.604        43     1.611     1.051  76.28   0
       635    516.1086     32.6663 307.7301697  +6.6861299     992.2333     1555.805     1617.514     81.46714     162.7408     324.9973      1.739     4.73     902.0618     57.28606     156.3368         9     0.978     0.648  61.34   0
       636    431.9431     31.9017 307.7651685  +6.6836257     795.5226     1178.986     1673.073     81.20892     162.5471     325.1911      1.525     4.88     905.6428     57.28606     120.3904         9     1.186     0.568  63.18   0
       637    110.5259     30.7967 307.8987592  +6.6732901     2430.076     4031.421     4434.606     80.94989     162.0294      324.868      1.744     4.10     920.2878     57.28606     326.7026        22     1.508     0.882  80.53   0
       638    101.8901     29.8313 307.9023801  +6.6733983     1436.948     1956.498     2466.173     81.59595     162.3532      324.965      1.544     4.62      920.366     57.28606     210.4784        15     1.326     0.750  79.12   0
       639    805.4083     29.2177 307.6100705  +6.6972283     937.3838     1367.994     1321.934     81.07951     162.2885     324.8357      1.474     5.02     897.4398     57.28606      132.974         8     1.158     0.616  79.49   0
       640   1000.5734     43.7095 307.5284837  +6.6977536     1772.958     2635.303     2806.868     81.59595     162.2885      324.868      1.633     4.41     890.8046     57.28606     305.6205        18     1.506     0.815  79.32   0
       641    403.2161     28.6074 307.7772164  +6.6840230     2260.698     3564.305     3516.884     81.07951     162.2885     324.8357      1.656     3.87     908.1102     57.28606     355.0338        18     1.409     0.810  73.57   0
       642    608.9062   1021.0145 307.6583695  +6.2810801     1339.021     2167.294      2416.59     81.20892     160.0733     284.6927      1.646     3.82     935.0586     57.28606     206.6045        13     1.137     0.748  71.85  16
       643    998.0024     24.7559 307.5301875  +6.7054951     639.9509      893.779     884.2692     80.82005     162.0942     324.6417      1.671     4.03     889.5135     57.28606     120.7984         5     0.972     0.571  69.55   0
       644    828.6660     23.8391 307.6005866  +6.7002260     1620.762     2487.385     2630.085     81.33813     162.4825     325.0942      1.638     4.21      896.554     57.28606     237.8932        13     1.330     0.640  66.08   0
       645    541.3969     23.5790 307.7199677  +6.6907294     1367.587     2045.645     1545.927     81.07951     162.2238      324.771      1.556     4.71     901.4406     57.28606     212.3744        14     1.397     0.665  86.56   0
       646     81.8617     24.5813 307.9108795  +6.6748925     697.7794     997.2792     309.8122     81.07951     162.4825      324.868      1.561     4.60      920.263     57.28606     103.8975         7     1.089     0.551  76.18   0
       647    898.9872     21.6955 307.5714364  +6.7034578     1454.175     2222.162     2029.032     81.20892     162.2885     324.8034      1.660     4.65     894.9025     57.28606     209.9332        13     1.214     0.764  75.04   0
       648    540.4095   1019.6636 307.6868551  +6.2793472     4001.286     6376.625     7116.944     80.94989     162.3532      301.183      1.766     3.95     935.8403     57.28606     578.0232        28     1.475     1.103  64.92  16
       649    493.5399   1016.2100 307.7064316  +6.2792050      2250.09      3424.09     3692.335     80.82005     162.4178     324.7064      1.646     3.99      937.438     57.28606     322.4675        19     1.341     0.896  85.23  16
       650     74.9503   1017.6876 307.8801753  +6.2645561      903.884     1372.725     2086.614     81.46714     162.3532     319.5884      1.561     4.79     936.7233     57.28606     114.8604        10     0.958     0.856 -37.01  16
       651    928.0574   1008.3495 307.5262777  +6.2969637     41015.31      67991.7      72820.5     81.46714     162.5471     324.9973      1.795     4.07     929.9621     57.28606     4989.178        76     1.742     1.272  75.09   0
       652      1.5487   1008.0420 307.9109755  +6.2660716     2225.449     3249.334     3328.713     73.46923     132.4287     248.1115      1.523     4.29     935.8947     57.28606      419.668        17     1.491     0.669  84.65  24
       653    235.3369   1006.6826 307.8139572  +6.2744865     1677.992     2439.461     2119.952     81.59595     162.5471      324.965      1.591     4.21      938.343     57.28606     257.4904        17     1.323     0.809  78.59   0
       654    774.1137   1000.1954 307.5904721  +6.2951966     6498.224     10576.06     12341.78     80.94988     162.2238      324.674      1.776     4.23        932.3     57.28606     922.6833        37     1.787     1.011  86.80   0
       655    634.0981   1004.5209 307.6484638  +6.2887336     982.1293     1229.944     1198.047     81.20892     162.9343     325.0296      1.541     5.26     934.9814     57.28606     115.5776        11     1.117     0.699  54.22   0
       656    123.1674   1005.2996 307.8605750  +6.2712918     625.2397     487.9733     45.04118     81.46714     162.4178     325.1588      1.178     3.72     937.5441     57.28606     109.3829         5     1.065     0.452   4.47   0
       657    825.9907   1002.1234 307.5688669  +6.2961316     2166.873     3496.834     3461.487     81.07951     162.0942     324.8034      1.757     4.48     931.0446     57.28606     276.5913        20     1.430     0.862  73.98   0
       658    560.9116    999.3242 307.6790264  +6.2884325     1103.317     1697.616     1771.548     81.46714     162.8698     325.0942      1.786     4.68     935.2885     57.28606     156.3133        12     1.193     0.723  82.10   0
       659    243.4395    998.9487 307.8108540  +6.2779522     1548.592     2260.078     1743.706     81.33813     162.5471     324.9973      1.621     4.63     938.3118     57.28606     201.9557        15     1.270     0.858  74.49   0
       660    208.2265    998.0053 307.8255059  +6.2771601     819.8403      1248.71     1299.244     80.94989     162.3532     324.8357      1.661     4.98     938.1976     57.28606     111.4556        10     0.960     0.850 -74.07   0
       661     68.4685    996.7838 307.8835726  +6.2729705     2533.792     4169.026     4141.679     80.94989     162.4825     324.9004      1.721     4.30     936.7198     57.28606     384.1508        23     1.489     0.944  86.82   0
       662    962.3432    995.1483 307.5124834  +6.3035580     6478.922     10699.54     11217.47     81.46714     162.5471     324.9973      1.797     4.11     926.1764     57.28606     835.5996        40     1.633     1.145  76.56   0
       663    936.2078    986.7387 307.5236173  +6.3061601     2122.044     3448.847     3030.088     80.82005     162.3532      324.771      1.714     4.80     927.9601     57.28606     244.0139        20     1.526     0.882  74.44   0
       664    795.8226    983.5686 307.5820158  +6.3027876     1273.636     1656.198     2102.068     80.94989     162.3532     324.8034      1.516     4.27     931.4232     57.28606     204.9737        12     1.174     0.674  75.78   0
       665    656.8393    982.6990 307.6397543  +6.2985054     4638.463     7101.164      7104.37     81.46714     162.4178     325.2234      1.624     4.03     934.4579     57.28606     648.9819        27     1.466     0.978  81.38   0
