#   1 NUMBER                 Running object number                                     
#   2 X_IMAGE                Object position along x                                    [pixel]
#   3 Y_IMAGE                Object position along y                                    [pixel]
#   4 ALPHA_J2000            Right ascension of barycenter (J2000)                      [deg]
#   5 DELTA_J2000            Declination of barycenter (J2000)                          [deg]
#   6 FLUX_APER              Flux vector within fixed circular aperture(s)              [count]
#   9 FLUXERR_APER           RMS error vector for aperture flux(es)                     [count]
#  12 FLUX_RADIUS            Fraction-of-light radii                                    [pixel]
#  13 FWHM_IMAGE             FWHM assuming a gaussian core                              [pixel]
#  14 BACKGROUND             Background at centroid position                            [count]
#  15 THRESHOLD              Detection threshold above background                       [count]
#  16 FLUX_MAX               Peak flux above background                                 [count]
#  17 ISOAREA_IMAGE          Isophotal area above Analysis threshold                    [pixel**2]
#  18 A_IMAGE                Profile RMS along major axis                               [pixel]
#  19 B_IMAGE                Profile RMS along minor axis                               [pixel]
#  20 THETA_IMAGE            Position angle (CCW/x)                                     [deg]
#  21 FLAGS                  Extraction flags                                          
         1     66.8368     29.2593 307.9003001  +6.6511325     3111.245     10591.27     14682.55     90.73425     181.1092     361.9666      3.126     7.99     1164.983      63.8025     394.3938        76     2.462     2.047 -65.58   0
         2    609.2016     20.8023 307.6746235  +6.6726817      6013.04     20070.66     27140.73     90.01355     180.5329     361.6065      3.044     7.81     1139.949      63.8025     607.5018        90     2.457     2.070 -60.39   0
         3    508.9863     17.2250 307.7164976  +6.6708308     1647.079     5788.059     7516.208     90.44666     180.8213     361.8946      2.995     9.74     1143.415      63.8025     206.2184        50     2.045     1.921 -58.10   0
         4    234.9116     13.4376 307.8308129  +6.6632742     2737.384     10316.07     16061.62     90.73425     180.8933     361.9666      4.053    10.76      1163.18      63.8025     350.8269        84     2.884     2.081 -45.46  16
         5    414.6417     12.6535 307.7559589  +6.6695824     7165.664     24936.45     34687.64     90.73425     181.1092     362.0026      3.148     8.29     1148.843      63.8025     793.0103        96     2.508     2.164 -62.63  16
         6      2.0552     13.3125 307.9278280  +6.6555560      882.124     1484.182     1546.537     87.81598     155.7408     285.9263      1.919     6.09     1166.066      63.8025      116.019        12     1.599     0.652 -74.23  24
         7    892.4669     12.3522 307.5568848  +6.6855617     1048.138     2382.577     2745.475     90.73425     180.9653     362.0026      2.563     7.42     1133.648      63.8025     141.1619        15     1.378     1.217 -45.01   0
         8    594.5033     11.2060 307.6810703  +6.6761577     1243.429     3793.161     5961.841     90.44666     180.6771     361.7506      3.422    12.01     1140.032      63.8025      160.651        39     2.172     1.850  41.96  18
         9    221.9583      9.2880 307.8363496  +6.6645566     845.0953     2780.447     5225.811     90.73425     180.9653     362.0026      3.908     8.68     1163.351      63.8025     119.7603        16     2.184     0.963 -36.38  18
        10    663.9534      3.1129 307.6524064  +6.6818059     807.6443     2021.587     2583.406     90.73425     170.1315     303.7321      2.552     7.02     1135.235      63.8025     112.6954        11     1.505     0.918  46.34  24
        11    547.7208   1000.2285 307.6672901  +6.2660518     2380.793      5713.53     7310.306     90.59057     180.9653     361.9666      2.640     6.60     1197.574      63.8025     249.7784        38     1.772     1.536 -55.14   0
        12    773.4038   1020.7640 307.5726457  +6.2650510     9082.317     18835.48     20400.78     89.72365     180.0994     320.6315      2.115     4.85     1195.681      63.8025     1007.604        53     1.851     1.413 -53.56  24
        13     44.3505   1021.4803 307.8761236  +6.2405241     4615.567     9967.415     10759.95     90.73425     174.5905     310.1825      2.193     5.30     1194.608      63.8025     463.0697        44     1.686     1.541 -38.15  24
        14    723.8356    996.5326 307.5940947  +6.2734189     860.8813     1999.333     2933.262     90.59057     181.1092     362.0746      2.393     6.27     1195.725      63.8025     122.8217        12     1.396     0.791 -28.81   0
        15    930.9958    990.5723 307.5080481  +6.2827380     5016.429     9664.197     10743.01     90.15815     180.8213     361.7866      2.035     4.63     1192.303      63.8025     542.8502        43     1.829     1.257 -53.73   0
        16    689.8909    989.3389 307.6084681  +6.2752657     1520.355      3993.75     5581.986     90.59056     181.1811     362.0386      3.342     8.95     1195.242      63.8025     191.9039        37     2.320     1.396 -35.09   0
        17    215.0584    991.0140 307.8060890  +6.2587984     693.7632      1594.05     1681.115     90.01355     180.9653     361.6065      2.094     5.48     1196.959      63.8025     98.86768         6     1.478     0.572 -43.73   0
        18    338.8652    986.0726 307.7547148  +6.2649599     778.8688     1882.234     2830.379     90.73425     181.0373     362.0026      2.541     4.41     1196.925      63.8025     99.53259         6     1.144     0.483 -62.87   0
        19    724.4783    975.8041 307.5945227  +6.2820030      4759.35     10560.84     12527.67     90.30252     180.4607     361.7506      2.416     5.45     1194.444      63.8025     506.9423        53     2.018     1.503 -59.33   0
        20    520.0220    976.3555 307.6796242  +6.2749939     2279.165     5524.941     7062.538     90.15815     180.8933     361.7506      2.552     7.02     1196.411      63.8025     244.3214        41     2.079     1.439 -50.62   3
        21    517.0851    968.7681 307.6811020  +6.2780307      4460.23     10811.51     13266.12     90.73425     180.8213     361.8586      2.548     5.80     1196.113      63.8025     441.5608        53     1.992     1.581 -55.54   3
        22    270.2389    975.5984 307.7836371  +6.2670033     7682.006     20144.68     25030.03     89.72365     180.7492     361.6425      2.660     5.91     1196.686      63.8025      695.176        70     2.130     1.729 -57.05   0
        23    491.2484    976.7496 307.6915899  +6.2738757     570.8093     1308.423     1077.768     90.73425     180.8933     361.9306      1.849     4.84      1196.65      63.8025     98.95337         6     1.499     0.443  33.43   0
        24    785.4052    974.4307 307.5692031  +6.2845885     837.5344     1627.129     1802.125     90.15815     180.8933     361.7146      2.169     4.51     1192.916      63.8025     99.54846         8     1.275     0.453  80.91   0
        25    885.6487    969.1989 307.5276436  +6.2900675     6113.365     12118.81     13768.13     90.01355      180.605     361.4624      2.111     4.74     1191.478      63.8025     739.1697        50     1.915     1.317 -60.97   0
        26    859.2952    965.2900 307.5387465  +6.2908104     8419.863     17764.73     20094.28     90.73425     181.5403     362.0026      2.256     5.15     1191.404      63.8025     891.9449        60     1.995     1.465 -54.59   0
        27    503.7801    964.7260 307.6867771  +6.2792586     2214.279     5767.434     7194.337     90.30252     180.9653     361.8946      2.643     6.86     1196.082      63.8025     254.5909        45     2.030     1.528 -59.29   0
        28    980.9948    964.6029 307.4881011  +6.2951188      3758.74     6999.407     7251.525     90.01355     180.6771     361.7866      1.979     4.81     1189.644      63.8025     431.4756        32     1.767     1.089 -51.99   0
        29    570.9546    965.7125 307.6587776  +6.2810810     677.1829     1527.239     1632.526     90.73425     180.8933     361.9666      2.489     5.59     1195.385      63.8025      97.1582         8     1.471     0.600 -74.65   0
        30    612.0720    963.3309 307.6417394  +6.2834291     823.5514     1711.249     1039.949      90.8777     181.1811     361.9306      2.317     5.30     1194.757      63.8025     122.4258         8     1.215     0.670 -68.96   2
        31    456.4945    961.0380 307.7065871  +6.2792115     1284.351     3188.684     3312.479      90.8777     180.8933     362.1105      2.442     8.02     1196.285      63.8025     143.5638        27     1.838     1.404 -54.22   0
        32    891.0244    952.8550 307.5259530  +6.2969970     29462.39     61998.96     69525.51     90.30252     181.1092     361.7506      2.232     4.90     1190.806      63.8025      3429.41        88     2.085     1.533 -58.99   0
        33    198.6587    951.7897 307.8142392  +6.2744549     763.7103     2137.307     2438.931     90.01355     180.8933     361.6425      2.511     8.31     1195.429      63.8025     91.58618        16     1.751     1.102  73.56   0
        34    737.0514    944.9127 307.5903247  +6.2951807     3625.966     8906.829     10803.87     90.73425     180.8933     362.0746      2.579     6.49     1192.531      63.8025     402.0591        55     2.211     1.519 -59.38   0
        35    788.8308    946.6075 307.5687100  +6.2961956     1484.809     3268.562     3844.408     90.15815     180.8213     361.7146      2.266     7.32     1191.532      63.8025     176.5111        24     1.638     1.123 -31.47   0
        36    207.9104    943.7415 307.8106591  +6.2780876     903.7964     1540.254     2000.495     90.59057     181.0373     362.1105      1.883     5.19     1195.282      63.8025     148.2594         9     1.258     0.716 -47.69   0
        37     32.0715    941.7935 307.8839273  +6.2730310     1363.429     3514.792     4006.325     90.15815     180.5329     361.8586      2.478    10.36     1193.155      63.8025     153.9073        29     1.842     1.625 -52.49   0
        38    925.3390    939.5946 307.5121105  +6.3036098     4635.034     9537.851     10550.16     90.01355     180.8213     361.7146      2.116     5.13       1190.2      63.8025     502.4078        44     1.964     1.274 -59.97   0
        39    898.9781    931.1826 307.5233676  +6.3062129     1436.437     2760.314     2529.978     90.44666     180.8933     361.8946      1.997     5.47     1189.872      63.8025     208.6775        22     1.545     1.008 -65.28   0
        40    232.4821    927.9088 307.8009636  +6.2854460     2059.039     5366.568     6671.518     90.44666     181.3249     362.0386      2.639     7.30     1195.192      63.8025     191.9808        42     1.941     1.568 -74.48   0
        41    619.8077    927.3522 307.6397275  +6.2985481     2382.914      5771.48     6819.485     90.15815     180.8213     361.5345      2.470     6.28     1192.633      63.8025     262.2687        41     1.816     1.555 -41.68   0
        42    758.5156    927.2863 307.5819796  +6.3031731     769.3252     1434.458     1715.189     90.44666      181.253     362.0386      2.171     5.53     1191.139      63.8025     102.6257         9     1.054     0.817 -50.37   0
        43      1.8071    925.7544 307.8970684  +6.2786464     1073.931     1874.173     1781.366     84.95082     151.9304     280.9629      1.758     6.46     1192.793      63.8025     138.2075        14     1.507     0.778  86.22  24
        44    544.1186    920.0192 307.6714862  +6.2990658     792.1434     2053.837     2591.283     90.30252     180.6771     361.8946      2.763     8.19     1193.395      63.8025     97.56653        11     1.931     0.971 -19.27   0
        45    976.3334    918.5081 307.4915848  +6.3140065     764.6667     1500.529     1811.578     90.59057      181.253     362.0026      2.398     4.17      1187.93      63.8025     111.8885         8     0.918     0.721 -51.41   0
        46    583.6751    917.1277 307.6551145  +6.3015730     577.2177      1381.39     1270.106     91.02093     181.3249     361.9666      2.450     6.49     1192.857      63.8025      114.828         7     1.423     0.830  33.35   0
        47    265.5612    914.0961 307.7876578  +6.2922531     584.5974      1614.55     2076.245     90.73425     180.8933     362.1105      3.315     6.46     1195.395      63.8025     97.61365         7     1.986     0.590  77.02   0
        48    867.9182    906.6181 307.5371226  +6.3153329     4416.735     9414.676     10620.39     90.30251     180.6771     361.8946      2.271     5.21      1188.46      63.8025     524.6305        45     1.879     1.404 -51.58   0
        49    404.1876    904.5200 307.7302661  +6.3008201     1081.011     2233.375     2379.197     90.30252     180.6771     361.7866      2.236     6.78     1195.302      63.8025     152.6252        15     1.189     1.084 -59.50   0
        50    305.8840    902.6513 307.7712561  +6.2983226     4359.576     11703.67     14493.51     90.73425     180.9653     362.0746      2.684     6.58     1195.594      63.8025      439.208        61     2.117     1.734 -57.28   0
        51    225.7346    901.8018 307.8046532  +6.2960056     3238.332     8960.659     10865.39     90.01355      180.605     361.7146      2.690     6.62      1194.55      63.8025     344.4121        54     2.068     1.668 -58.93   0
        52    553.4301    895.4874 307.6684342  +6.3095087     821.4464      1439.97     1591.261      90.8777     180.8213     361.8586      1.838     3.80     1192.767      63.8025     107.4392         6     0.973     0.427 -17.31   0
        53    884.1071    889.8063 307.5309455  +6.3228135     762.0322     1727.746     2010.996     90.30252     180.6771     361.7506      2.362     4.60     1187.352      63.8025     120.1277         7     1.236     0.487 -17.19   2
        54    719.8313    883.9392 307.5995404  +6.3197979     904.9617     1862.061     2129.625     90.44666     181.1092     361.8946      2.470     5.25     1190.567      63.8025     99.24719        10     1.218     0.639 -31.43   0
        55    951.2578    879.8840 307.5033186  +6.3291332     913.5455     1718.969      2766.16     90.73425     181.0373     362.0386      2.558     6.50     1186.186      63.8025     101.8275        10     1.400     0.846 -75.74   0
        56    637.7911    877.6989 307.6339081  +6.3196560     1182.871     2854.842     3661.978     90.44666      180.605     361.7506      2.726     8.14     1191.314      63.8025     156.4347        17     1.453     1.276  59.60   2
        57     35.6587    874.7054 307.8847008  +6.3008629     1358.978     3996.694     4721.168     90.59057     181.0373     362.1105      2.654     9.41     1191.349      63.8025     161.7971        37     1.846     1.675  69.68   0
        58     53.6133    874.0410 307.8772484  +6.3017363     1125.266     2319.319     2616.603     90.15815     180.8213     361.6786      2.433     7.57     1191.334      63.8025     141.7732        18     1.449     1.167 -85.16   0
        59    633.1625    867.4061 307.6361810  +6.3237543     3230.282     8510.947     9718.373     89.72365     180.7492     361.6786      2.544     6.43     1191.116      63.8025     364.7867        54     2.131     1.572 -50.81   0
        60    317.8834    860.7054 307.7676738  +6.3160490     6762.252     14187.63     19598.37     90.59057     181.4685     362.1105      2.679     6.97     1195.061      63.8025     696.0898        58     2.404     1.816 -69.67   3
        61    315.3223    860.0434 307.7687625  +6.3162373      5590.27     10220.82     13192.28     90.59056     181.0373     361.9666      2.023     6.39     1195.048      63.8025     658.7885        23     2.226     0.690 -63.07   3
        62    871.3432    863.2601 307.5371496  +6.3333573     1814.441     3814.357     4229.367      90.8777     181.0373     362.0026      2.199     5.88     1185.709      63.8025     211.1824        28     1.635     1.224 -58.23   0
        63    178.5765    873.5013 307.8252411  +6.3061252     1032.774     2541.263     2534.542      90.8777     180.7492     361.7506      2.273     7.75     1193.176      63.8025     136.1444        17     1.654     1.017  40.55   2
        64     79.7734    851.4784 307.8671195  +6.3119289     908.3189     2230.515     2882.389     90.59057     180.9653     361.8946      2.580     7.66     1190.874      63.8025     121.1982        15     1.396     1.175  24.29   0
        65    861.4092    845.2183 307.5418906  +6.3404817      1188.49      2417.32     2693.958     90.44666     180.7492     361.7866      2.271     8.14     1185.186      63.8025     166.6249        18     1.715     1.080 -52.52   0
        66    795.3931    844.1246 307.5694148  +6.3387482      1665.76     4027.305     4911.505     90.30252     180.4607     361.7866      2.485     7.25     1187.783      63.8025     213.5349        35     1.848     1.492 -67.08   0
        67    832.3758    844.5165 307.5540029  +6.3398106     1149.863     2679.579     2784.022     90.59057     180.7492     361.8946      2.291     7.03     1186.451      63.8025     134.1831        19     1.330     1.306 -79.98   0
        68     63.5552    844.5856 307.8741045  +6.3142353     1072.688     3106.041     4274.193     90.01355     180.8213     361.7146      2.814     8.98     1190.734      63.8025     150.6947        24     1.556     1.448  15.65   0
        69    531.4650    835.8683 307.6795841  +6.3334076     145718.7     407155.1     508413.4     90.73425     181.1092     362.0026      2.755     6.53      1191.39      63.8025     14306.73       195     2.471     2.028 -61.37   0
        70    375.7126    838.6462 307.7443398  +6.3270849     3209.074     9157.888     11594.24     90.73425     180.8933     361.9666      2.772     6.99     1194.198      63.8025     336.1791        59     2.103     1.808 -71.18   0
        71    318.9923    837.0421 307.7680096  +6.3258609     5145.369     15252.36     19710.78     90.15815     180.8213     361.6425      2.853     7.01     1194.661      63.8025     492.8109        74     2.265     1.893 -68.63   0
        72    869.5720    831.7841 307.5389420  +6.3463014     3179.552     7091.856     8692.178     90.30252     180.7492     361.8586      2.389     5.37     1184.462      63.8025     368.5148        43     1.902     1.424 -53.97   0
        73    636.0573    833.0424 307.6361301  +6.3380457     1642.812     3138.173     3406.305     90.59057     180.9653     362.0026      2.063     7.05     1189.513      63.8025     205.8462        19     1.429     1.316  76.07   3
        74    638.6761    831.9937 307.6350749  +6.3385658     1362.836     2638.468     3179.067     90.30251     180.4607     361.7866      1.830     7.09     1189.428      63.8025     163.3164        16     1.915     0.735  64.36   3
        75    610.7350    827.2646 307.6468677  +6.3395925     1154.495     2380.017     4153.069     90.73425     181.0373     361.9666      2.508     6.32     1189.556      63.8025     166.6987        13     1.640     0.685 -75.16   3
        76    613.6856    826.6681 307.6456592  +6.3399369      1376.75      3276.19     4926.923      90.8777     181.3249     362.0026      2.702     8.71     1189.516      63.8025     166.5684        25     1.984     1.068 -68.41   2
        77   1003.0963    825.7546 307.4835463  +6.3532074     3133.259     6601.107     7106.735     90.73425     180.9653     362.1465      2.132     5.71     1182.063      63.8025     381.1816        33     1.803     1.190 -56.31   0
        78    801.1088    825.8478 307.5676479  +6.3464875     832.1167     1835.962     2062.287     90.73425     180.9653     362.1105      2.374     7.08      1186.17      63.8025     93.86584        10     1.297     1.084   6.15   0
        79    603.5338    823.3159 307.6499988  +6.3409848     1159.771     2732.195     5004.016      90.8777     181.3249     362.0386      3.530     8.04     1189.519      63.8025     142.3495        19     1.671     1.082 -85.88   2
        80    888.3499    819.6287 307.5315305  +6.3519440     1917.351     4274.456     4987.858     90.30252     181.1811     361.8586      2.331     7.31     1183.798      63.8025     203.4408        31     1.808     1.328 -41.98   0
        81    348.2450    815.6238 307.7565517  +6.3356816     1160.338     2217.319     2557.602     90.15815     181.0373     361.8226      2.114     5.86     1193.972      63.8025     136.7706        14     1.320     0.937 -67.63   3
        82    345.0703    816.1747 307.7578550  +6.3353484     1125.002     1928.234     2733.771     90.30252     180.8933     361.8946      2.244     5.00     1194.007      63.8025     154.6803        14     1.316     0.915 -56.49   3
        83    483.0400    805.8530 307.7007564  +6.3441984     1236.792       3827.6     5215.456     90.59057     181.0373     361.9306      3.063    10.10     1190.402      63.8025     139.7269        37     1.935     1.719 -42.82   0
        84    530.2181    801.6895 307.6812527  +6.3474851     2406.493     7397.621     10205.17     90.44666     180.7492     361.8586      3.056     8.08     1190.032      63.8025     317.6136        58     2.115     1.927 -31.00   2
        85    863.8281    799.8304 307.5424047  +6.3593113     644.0346     1204.989     1635.054     90.15815     180.7492     361.7146      2.297     4.16     1183.248      63.8025      101.147         6     1.135     0.435 -62.86   0
        86    500.5577    795.6215 307.6938067  +6.3490068      7741.95        23450     29118.71     90.15815     180.8933     361.8226      2.811     7.19     1189.745      63.8025     724.7532        81     2.301     1.899 -58.11   0
        87    913.9964    793.3012 307.5217337  +6.3636683     2220.129     5153.773     5380.573     90.44666     180.7492     361.6065      2.316     6.16     1182.357      63.8025     286.4448        40     1.915     1.435 -58.20   0
        88    295.0151    784.5008 307.7797636  +6.3467669     1171.329     2263.722     3041.503     90.73425     180.7492     361.6425      2.532     7.09     1193.298      63.8025     136.4852        14     1.709     0.823 -71.87   2
        89    292.2281    783.7527 307.7809492  +6.3469832     1201.167     2320.583     3270.882     90.30252     181.1092     361.8946      2.556     6.89     1193.282      63.8025     148.0288        15     1.614     0.824 -69.48   3
        90    758.6227    779.9073 307.5868798  +6.3640582     26538.95      68943.5     83623.99     90.73425     180.8213     361.7866      2.621     6.15     1183.287      63.8025     2729.422       106     2.288     1.839 -59.23   0
        91    218.0010    778.4832 307.8120327  +6.3466886     1786.505      3548.75     5855.784     89.86871     180.5329     361.6425      4.264     9.16     1191.546      63.8025     236.6659        27     2.614     1.296 -63.73   3
        92    214.7197    778.2419 307.8134071  +6.3466789     1976.317     4744.677     7742.656     90.73425     181.0373     361.9306      3.544     9.19     1191.496      63.8025     211.0548        33     2.118     1.281 -81.94   3
        93    883.8717    775.0112 307.5348905  +6.3702273     4564.135     11000.71     13152.26     90.15815      180.605     361.7506      2.447     5.60     1182.015      63.8025     537.0641        58     2.024     1.599 -62.36   3
        94    880.7805    766.5339 307.5364618  +6.3736270     3732.314     8685.925     9947.501     90.30252     181.0373     361.8586      2.362     5.43     1181.724      63.8025     402.0255        47     1.922     1.494 -53.35   3
        95    681.8000    771.7316 307.6191429  +6.3648896     33228.21     101294.9     157943.9     90.15815     180.4607     361.7146      3.442     9.22     1184.664      63.8025     4069.913       190     3.382     2.371  27.17   0
        96    325.6314    772.2386 307.7674292  +6.3528510     7821.011     24314.23     31626.11     90.30252     180.7492     361.7866      2.886     7.02     1191.765      63.8025     721.8679        91     2.360     2.030 -71.14   0
        97    389.1403    769.8530 307.7410659  +6.3559489     8096.777     18657.61     25568.64     90.73425     180.9653     361.9666      2.719     8.38     1190.693      63.8025     819.6127        68     2.599     1.805 -78.19   3
        98    385.6897    769.6670 307.7425089  +6.3559110     6339.653     11834.25     14395.33      90.8777     181.1811     361.9306      2.106     6.13     1190.724      63.8025     784.1343        23     1.877     0.862 -65.26   3
        99    215.5421    756.7894 307.8137884  +6.3555680     769131.3      2587355      3455826     90.01355     180.9653     361.6425      3.048     6.98     1190.598      63.8025     63895.57       570     2.796     2.366 -66.85   4
       100    621.4530    765.6598 307.6444750  +6.3653966     2485.087     7235.397     8810.499     90.73425     180.9653     361.9666      2.751     6.94      1185.64      63.8025     260.5083        51     1.962     1.754 -80.89   0
       101    390.3824    752.7856 307.7411235  +6.3630404      19878.3     61894.66     81510.69     90.44666     180.6771     361.8946      2.941     7.30     1189.453      63.8025     1929.068       123     2.515     2.088 -60.12   0
       102    658.3188    755.9612 307.6294500  +6.3706257     820.0984     2157.401     3001.355     90.73425     181.1092     361.8946      3.197     8.25      1184.03      63.8025     143.4258        11     1.756     1.083 -61.49   2
       103    508.1389    751.9484 307.6921192  +6.3672995     2812.732     8343.648     10326.96     90.73425     180.9653     361.9666      2.827     7.48     1186.619      63.8025     256.9314        58     2.180     1.751 -67.89   0
       104    424.8307    749.9134 307.7268764  +6.3653722     1657.939     5407.392     8862.446      90.8777     180.7492     361.8946      3.649    14.46     1188.802      63.8025     172.7094        62     3.000     1.940  67.29   2
       105    753.0573    748.0465 307.5902664  +6.3770354     5335.001     14225.68     17185.18     90.73425     181.0373     362.1105      2.616     6.53     1180.724      63.8025     528.3824        63     2.172     1.687 -50.23   0
       106    923.2603    768.6623 307.5187016  +6.3741530     1060.033     2462.234      3391.51     90.73425     181.0373     362.0026      2.707     4.16     1181.518      63.8025      158.741        11     0.983     0.964  32.07   2
       107    119.6252    740.4558 307.8542768  +6.3591186     1182.663     3715.662     5492.699     90.30252     181.0373     361.7506      3.054    10.31     1189.546      63.8025     156.6437        35     2.077     1.695  74.02   3
       108    111.3022    740.5633 307.8577386  +6.3587967     4358.071     13682.34     19405.58     90.73425     180.8933     362.1465      3.139     7.39     1189.509      63.8025     448.2004        76     2.381     2.075 -85.64   3
       109    103.3077    737.4546 307.8611723  +6.3598142      1203.01     3971.986     6933.855     90.59057     180.8933     362.1465      3.808    14.36     1189.397      63.8025     169.5094        51     3.485     1.645 -87.94   3
       110    898.6694    736.6027 307.5300157  +6.3865833     3542.391     8389.785     10281.94     90.01355      180.605     361.7506      2.498     6.12     1180.542      63.8025     403.0286        49     2.020     1.568 -77.10   0
       111    947.5108    736.5912 307.5096777  +6.3882034     793.6569     1796.981      2443.96     90.30252     180.6771     361.6786      2.877     6.38     1179.822      63.8025     121.7318        10     1.622     0.704 -76.41   0
       112    541.0754    735.0000 307.6789747  +6.3753944     728.4669     1608.384     1721.287     89.86871     180.3163     361.7146      2.326     4.68     1184.716      63.8025     105.4045         5     1.041     0.597  58.50   3
       113    541.3990    732.2642 307.6789319  +6.3765352     762.9943      1743.52     2236.955     89.86872     180.7492     361.6786      2.501     8.89     1184.562      63.8025     96.74341        11     1.625     1.357  81.90   2
       114    652.8144    733.3517 307.6325016  +6.3797830     648.5104     1519.617     2466.082     90.01355     180.9653     361.6065      2.099     4.25     1182.408      63.8025     113.8457         6     1.364     0.378 -85.97   0
       115    922.2766    728.0473 307.5204719  +6.3908984     1618.197     3938.465     4680.077     90.59057     181.1092     361.9306      2.382     7.52      1179.78      63.8025     224.3314        31     1.845     1.247 -47.31   0
       116    892.9717    728.0504 307.5326750  +6.3899278     1601.051     3880.344     4870.148     90.30252     181.1811     361.8586      2.578     6.09     1179.799      63.8025     178.2546        30     1.545     1.418 -53.61   0
       117    953.4676    727.3409 307.5075070  +6.3922217      1095.74     2392.023     2766.975      90.8777     180.9653     361.9666      2.194     7.65     1178.729      63.8025     145.3564        16     1.633     1.003 -19.59   0
       118    218.3771    723.6680 307.8137254  +6.3693441     818.7557     2493.933     3886.698     90.30252     180.9653     361.9306      3.843    10.26     1188.943      63.8025     114.4253        21     1.907     1.538 -88.39   0
       119    937.1755    715.4818 307.5146887  +6.3965819     1599.043     3670.928     4415.389     90.44666     180.7492     361.8946      2.521     7.18     1178.326      63.8025     193.3209        29     1.961     1.139 -42.23   0
       120   1011.1021    709.5867 307.4841011  +6.4014609     4452.331     9908.475     11309.46     90.59056     180.7492     361.6786      2.341     5.15     1174.654      63.8025      527.658        47     1.888     1.447 -58.66   0
       121    978.8818    708.5204 307.4975542  +6.4008366     1103.903     2212.285     2363.951      90.8777     181.3249     362.1105      2.032     6.59     1175.958      63.8025     143.6859        15     1.359     1.187  44.90   0
       122    865.9426    705.9166 307.5446724  +6.3981769     734.1235     1867.373     2366.465     90.73425     181.0373     362.0386      2.537     8.40     1178.047      63.8025     98.83972        11     1.562     1.264 -57.51   0
       123    779.6750    706.9826 307.5805604  +6.3948804      589.942     1408.329     1249.215     90.15815     180.7492     361.8586      2.218     5.88     1178.018      63.8025     98.20813         6     1.712     0.569  -8.67   0
       124    823.4954    696.0731 307.5626785  +6.4008382     843.0638     2098.888     2546.696     90.59056     181.1811     361.9666      2.717     9.01     1177.216      63.8025      122.351        17     1.893     1.197 -36.98   0
       125     23.8529    696.8272 307.8956281  +6.3739457     930.9378     2457.223     3060.308     90.44666     181.1811     361.8946      2.954     6.60     1186.962      63.8025     150.3279        11     1.505     0.811 -26.50   2
       126    637.3630    683.7489 307.6406023  +6.3997611     1994.345     3939.496     5203.812     90.59057     181.0373     361.8946      2.360     7.43     1179.642      63.8025     262.7964        24     2.083     0.911 -73.83   3
       127    633.9676    683.2391 307.6420334  +6.3998591     2316.421     4521.453     6191.088     90.30252     180.8213     361.7506      2.599     7.81     1179.666      63.8025      262.239        32     2.257     1.121 -73.21   3
       128    100.5961    679.8505 307.8642472  +6.3835187       1306.6     2738.928     4243.098     90.01355     180.7492     361.5345      2.895     8.26     1186.497      63.8025     174.4265        20     2.291     0.832 -75.40   3
       129     97.3368    679.8073 307.8656057  +6.3834278     1371.186     2994.051     4365.287     90.01355     180.7492     361.7506      2.553     7.26     1186.488      63.8025     155.9766        22     1.733     0.999 -84.82   3
       130    972.0858    679.1066 307.5013693  +6.4127628     1602.599     3366.918     3652.762     90.59057     181.5403     362.0746      2.212     8.10     1173.429      63.8025     175.8025        29     1.890     1.201 -63.68   0
       131    752.1287    676.1024 307.5930677  +6.4067244     8469.376     24050.15     30315.71     90.59057     181.1811     361.9666      2.775     6.82     1176.484      63.8025     925.0026        83     2.345     1.851 -55.52   0
       132    607.7369    679.7233 307.6530745  +6.4004412     832.3657     1721.328     2294.635     91.02093     181.0373     361.9306      2.720     4.02     1180.246      63.8025        125.7         7     1.003     0.794  63.23   0
       133    882.1610    675.7153 307.5389309  +6.4111897     1844.291       4716.7     6055.225     90.73425     180.9653     361.8946      2.747     6.52      1175.56      63.8025     246.0685        35     1.791     1.447 -56.73   0
       134    634.5052    668.7240 307.6422972  +6.4058730     2285.617     4649.771     6125.788     90.44666      181.253     362.0026      2.240     8.37     1178.743      63.8025     238.5304        26     2.226     0.879 -73.93   3
       135    631.1913    668.3274 307.6436906  +6.4059269      2410.45     4849.439     6160.186     90.15815     180.5329     361.7866      2.226     6.75     1178.803      63.8025     290.1132        28     2.069     0.945 -71.26   3
       136    227.7695    670.3049 307.8116149  +6.3917002     2198.329     4488.623      5566.18      90.8777     180.7492     362.0026      2.464     9.35     1185.617      63.8025     233.7798        29     2.266     1.076 -53.87   3
       137    224.2050    669.6245 307.8131221  +6.3918626     1723.145     3911.377     5293.114     90.15815     180.7492     361.7866      3.166     7.95     1185.594      63.8025     201.6622        28     2.176     1.053 -60.69   3
       138    891.6895    661.4609 307.5354407  +6.4173934     744.8966     1572.403     2031.215     90.73425     181.1811     362.0386      2.563     4.50     1174.515      63.8025      102.194         6     1.219     0.472 -45.80   0
       139    704.3575    657.5299 307.6135846  +6.4128135      1526.84     4601.414     5634.174     90.59057     181.0373     362.0386      2.832     9.69     1176.226      63.8025     173.1219        43     2.030     1.620 -51.38   0
       140    970.6394    653.6529 307.5028241  +6.4232299     5013.237      11592.7     13512.65     90.59057     181.0373     361.9306      2.400     5.69     1171.778      63.8025     554.0704        50     1.971     1.462 -54.71   0
       141    908.2542    654.3248 307.5287816  +6.4208893     1068.931     2735.763     3179.657     90.59057     181.0373     362.0026      2.513     7.69      1173.97      63.8025     145.4896        18     2.034     0.813 -58.50   2
       142     48.3535    649.4387 307.8870282  +6.3943383     9670.927     30572.59     39874.17     90.59057     181.0373     361.7866      2.918     7.36     1184.507      63.8025      1028.17        95     2.386     2.044 -64.33   0
       143    507.6060    651.3377 307.6957261  +6.4088430     669.5883     1625.537     2496.628     90.01355     180.8213     361.7146      2.615     5.41     1181.564      63.8025     93.25842         7     1.515     0.544  29.17   2
       144    695.6606    641.0456 307.6177600  +6.4193348     1187.754     2710.034     3804.663     90.59056     180.9653     362.0386      2.553     7.40     1175.334      63.8025     135.3118        14     1.949     0.786 -62.01   3
       145    692.5897    640.6985 307.6190504  +6.4193763     1341.635     2825.288     3625.308     90.44666      180.605     361.7506      2.467     7.70     1175.406      63.8025      160.892        21     1.689     1.071 -74.35   2
       146    716.1242    639.3748 307.6092942  +6.4207033      1696.36     5201.522     6595.665     90.30252     180.8933     361.9306      2.932     7.63     1174.723      63.8025     198.3511        49     1.954     1.900 -15.00   0
       147    549.6837    637.4010 307.6786725  +6.4159974     1023.689     2196.276     3929.011     89.86872     180.5329     361.6425      2.976     6.31     1178.765      63.8025      129.551        13     1.505     0.742 -83.71   2
       148    546.5045    636.5126 307.6800263  +6.4162588     1161.474      2572.78     3829.225     90.73425     181.4685     362.0386      3.077     7.93     1178.828      63.8025     143.4359        16     1.800     0.977 -65.12   2
       149    988.7486    635.2144 307.4959000  +6.4314454     2676.252     6511.356     7625.455     90.01355     181.0373     361.6786      2.470     5.95     1169.815      63.8025     345.6993        42     1.898     1.482 -58.47   0
       150    209.2927    637.1138 307.8204287  +6.4047954     789.1649     1793.527     2648.438     90.59057     181.5403     362.0746      2.714     4.99     1183.123      63.8025      103.833         8     1.049     0.671  77.66   0
       151    954.2305    634.0037 307.5103158  +6.4308044     4242.979     10291.38     11987.11     90.15815     180.8933     361.7506      2.461     5.92     1171.362      63.8025     450.8447        53     2.050     1.512 -58.56   0
       152    113.1231    628.2574 307.8607737  +6.4052483     8352.452     27009.94     36051.85     90.73425     180.9653     361.8946      2.996     7.56     1182.463      63.8025     934.2468        96     2.446     2.076 -62.94   0
       153    401.7222    628.2103 307.7405975  +6.4148778     904.7459     2035.756      2909.25     90.30252     180.6771     361.8226      3.125     7.69     1181.671      63.8025     118.8588        15     1.786     0.926  86.69   2
       154    398.0709    628.2068 307.7421181  +6.4147578     891.3672      1891.76     3297.304     90.15815      180.605     361.8946      2.961     7.40     1181.688      63.8025     116.8225        14     1.730     0.887  89.83   3
       155    949.0923    617.1467 307.5130203  +6.4375982     3507.233     8879.699     11144.29     90.59056     180.9653     362.1465      2.750     5.99     1170.518      63.8025     405.4315        57     2.023     1.729 -64.41   0
       156   1004.4918    612.1206 307.4901170  +6.4415058     51356.41     120127.1       141124     90.44666     181.3249     362.0386      2.454     5.56     1167.866      63.8025     5410.144       118     2.240     1.723 -60.53   0
       157    544.9953    612.9919 307.6814459  +6.4259249     14622.78     30593.43      38454.2     90.01355     180.7492     361.7866      2.336     8.73     1177.222      63.8025     1508.532        58     2.653     1.117 -62.09   3
       158    541.3909    611.8242 307.6829862  +6.4262875     15614.71     34917.02      43370.5     90.30252     180.8213     361.8226      2.448     7.74     1177.331      63.8025     1644.433        59     2.466     1.199 -68.05   3
       159    151.7622    607.2451 307.8453936  +6.4152163     969.5259       2613.7     3862.909     90.44666     180.9653     361.8586      3.065     5.60     1180.831      63.8025     131.7501        10     1.250     0.708  64.81   2
       160    442.1286    596.7678 307.7248298  +6.4292095     20122.61     45245.14     56654.17     90.59056     181.0373     361.9306      2.489     9.05     1178.754      63.8025     1980.136        70     2.717     1.255 -64.30   3
       161    438.3997    595.8168 307.7264146  +6.4294784     18905.04     40211.41     49921.92     90.30252     180.5329     361.6065      2.364     7.22     1178.679      63.8025     1935.621        54     2.400     1.107 -70.63   3
       162   1018.2656    595.3452 307.4849423  +6.4488908     2098.812     4671.096     5278.274     90.73425     180.9653     350.8929      2.321     6.22     1166.178      63.8025     243.9282        37     1.788     1.455 -69.64  16
       163    116.8662    591.8675 307.8604443  +6.4204049     587.3147      1295.84     2390.825     90.73425     181.0373     362.0026      2.699     5.69     1180.301      63.8025     104.9578         8     1.855     0.491 -65.36   0
       164    284.3098    586.6046 307.7908939  +6.4281580      774.177     1967.765     2941.971     90.15815     180.6771     361.6425      2.722     6.32     1179.361      63.8025     85.95325         9     1.588     0.706  65.34   0
       165    712.2668    579.5049 307.6129110  +6.4453073     1994.939       5987.4     7712.367     90.73425     181.1811     361.9666      2.835     8.43      1171.51      63.8025     203.6139        51     2.222     1.667 -46.19   0
       166    764.3719    574.6102 307.5913755  +6.4490560     5295.934     11395.67     13658.74     90.30252     180.8213     361.8226      2.353     7.12     1170.497      63.8025     573.7845        45     2.437     1.111 -78.20   3
       167    767.5142    574.9869 307.5900542  +6.4490045     4350.391     8393.048     9783.525     90.30252     180.8933     361.8226      2.030     7.00     1170.454      63.8025     453.2833        28     2.057     0.884 -72.53   3
       168    591.1769    574.1010 307.6635215  +6.4435233     830.2557     1866.631     2920.861      90.8777     180.7492     361.7506      2.952     6.71      1173.91      63.8025     114.2156        12     2.143     0.590 -56.58   0
       169    587.6612    573.4265 307.6650083  +6.4436853     896.7849     2061.819     2944.325     90.30252     181.0373     361.8946      2.405     6.68     1173.875      63.8025      152.082        13     2.094     0.598 -62.86   0
       170   1005.1043    573.3611 307.4911597  +6.4575375     1130.051      2625.17     3221.284     90.73425     180.8933     362.1105      2.376     7.04     1165.181      63.8025     142.2103        17     1.621     1.043 -78.17   0
       171    841.4691    558.3730 307.5598118  +6.4583167     1155.476     3212.098     3737.576     90.30252     180.8933     361.8586      2.621     8.95      1168.92      63.8025     148.0184        25     1.838     1.380  -2.18   0
       172    800.1845    555.6158 307.5770982  +6.4580887      1134.65     2917.223     3290.651     90.44666     180.6771     361.8946      2.549     9.24     1169.302      63.8025     138.7133        23     2.049     1.163 -47.81   0
       173    228.6575    551.1422 307.8152659  +6.4409535     2407.885     8451.688      11525.9     90.73425     181.0373     362.0026      3.115     8.95     1178.715      63.8025     274.6857        69     2.293     2.089 -68.00   0
       174    780.8934    547.0553 307.5854196  +6.4609861      59797.1     182329.6     237432.6     90.59057     181.0373     362.1825      2.919     7.21      1169.13      63.8025     6170.517       192     2.709     2.151 -47.22   0
       175    162.8474    545.9271 307.8428479  +6.4409149     18546.87     65123.69     89198.56     90.73425     181.1092     361.9666      3.116     8.19     1178.677      63.8025     2102.018       128     2.599     2.200 -65.62   0
       176     87.1228    542.2975 307.8745050  +6.4398890     2122.994     6877.994     9516.438     90.30252     181.3249     362.0026      3.050     8.95     1178.556      63.8025     243.3311        58     2.321     1.797 -60.03   0
       177    951.3691    539.8381 307.5146621  +6.4696095     651.3549     1460.558     2223.295     90.30252     180.7492     361.7866      2.554     6.01     1164.773      63.8025     104.0171         6     1.734     0.585 -12.91   0
       178    817.5682    534.3834 307.5705706  +6.4674354     1732.606     5400.805     5998.542     90.30252     180.7492     361.8226      2.845     8.54      1167.74      63.8025     205.1721        50     2.063     1.794 -34.79   0
       179    338.1497    533.0492 307.7702782  +6.4520728     5356.646     12598.45     16338.19     90.73425     180.8933     361.8946      2.573     8.95     1174.445      63.8025     542.5856        54     2.633     1.316 -65.67   3
       180    334.3935    531.8002 307.7718846  +6.4524637     4990.302     10863.15     13948.76     90.01355     180.6771     361.7506      2.414     7.59     1174.435      63.8025     506.9816        39     2.287     1.049 -72.92   3
       181    138.7672    531.5287 307.8533621  +6.4460597     843.9815     2320.406     3318.825     90.59057     181.0373     361.9306      3.194     7.26     1177.808      63.8025     110.7521        12     1.708     0.864 -29.10   0
       182    771.4030    527.5453 307.5900271  +6.4687312     2193.155     6625.402     7560.839     90.01355     180.8213     361.5705      2.724     7.90     1167.784      63.8025     264.4502        53     2.133     1.766 -66.22   0
       183    500.9899    526.6499 307.7026772  +6.4601303      1743.83     3931.583     5288.852     90.15815     180.8933     361.6065      2.547     7.88     1171.943      63.8025     190.3901        23     1.892     0.918 -63.75   3
       184    151.3142    521.4321 307.8484780  +6.4506487     2252.515     5163.559     6739.445     90.73425     180.8213     361.9306      2.645     9.95     1176.867      63.8025     263.8752        37     2.356     1.257 -53.61   3
       185    147.8278    519.5335 307.8499940  +6.4513167     1792.005     3603.749     5180.763     90.30252     180.9653     361.8946      2.486     8.17     1176.854      63.8025     211.5046        25     2.223     0.840 -61.17   3
       186    362.6219    523.5606 307.7604064  +6.4568066     571.2552     1076.856     2149.674     90.30252     180.8213     361.7146      2.401     4.24      1173.43      63.8025      88.9635         5     1.060     0.483  87.12   0
       187    547.1749    520.7271 307.6836418  +6.4641108     993.4924     2936.506     3383.225     90.30252     180.8933     361.8946      2.744    10.00     1171.184      63.8025     130.5702        23     1.846     1.511  21.43   2
       188    246.6441    517.6476 307.8089056  +6.4553886     28589.34     65034.38     80645.75     90.73425     180.9653     361.8946      2.510     8.07     1175.262      63.8025     2971.864        78     2.691     1.275 -67.45   3
       189    242.8988    516.6841 307.8104978  +6.4556618     23001.71     53428.43     66426.14     90.73425     181.5403     362.0746      2.552     8.59     1175.283      63.8025     2377.377        68     2.679     1.185 -73.21   3
       190     21.5939    519.8025 307.9025540  +6.4469944     1774.783     5922.775     8202.117     90.01355     180.6771     361.7866      3.083     8.62     1177.916      63.8025      239.541        54     2.144     1.910 -57.94   0
       191    504.1877    528.2595 307.7012912  +6.4595716     1948.888     4571.753     6416.786     90.01355     180.9653     361.6425      2.713    10.71      1171.96      63.8025     226.1392        34     2.443     1.308 -54.12   3
       192    766.4717    508.9988 307.5927034  +6.4762293       6016.1     13304.72     17102.25     90.01355     180.5329     361.7866      2.474     6.86     1166.287      63.8025     709.6646        49     2.362     1.198 -78.50   3
       193    769.7514    509.2689 307.5913283  +6.4762263     4476.158     8695.684      11066.4     90.73425     180.9653     361.9666      2.188     7.91     1166.258      63.8025      507.089        30     2.121     0.926 -72.42   3
       194    471.4447    508.1106 307.7156059  +6.4668070     13650.71     45984.86     66512.12     90.73425     180.9653     362.0026      3.239     8.11     1171.149      63.8025     1314.712       126     2.623     2.303 -57.50   0
       195    117.7871    496.0818 307.8632966  +6.4600023     8884.433     19696.25     26470.15     90.30252     180.7492     361.7866      2.598     8.78     1176.344      63.8025     1045.291        70     2.798     1.661 -59.70   3
       196    114.5003    495.0182 307.8647014  +6.4603321     7300.333     15545.57     18852.88     90.73425     180.8933     361.7146      2.290     7.30     1176.421      63.8025     723.8298        32     2.156     1.060 -62.16   3
       197    302.2549    497.6750 307.7864197  +6.4654906     1162.868     3187.001     5197.902     90.59057     180.9653     361.9306      3.256     9.93     1172.372      63.8025     144.3529        25     2.171     1.266 -34.69   2
       198    630.8248    501.1683 307.6494613  +6.4749668     891.2261     2436.398     4318.717     90.15815     180.8933     361.7506      3.918     8.13     1168.719      63.8025     126.2302         9     2.073     0.892 -65.29   2
       199   1018.1085    495.6797 307.4883447  +6.4900574     748.6755     1530.672     1059.832     90.44666     181.3249     352.4486      2.197     5.11     1162.429      63.8025     94.31335         6     1.094     0.676  88.78  16
       200     80.9511    495.3136 307.8786630  +6.4590910     774.1981     1928.249     2970.973     90.73425     180.9653     362.0026      2.689     6.36      1177.16      63.8025     100.5204        10     2.363     0.481  33.67   2
       201     83.9724    493.7969 307.8774560  +6.4598182     732.9472     1633.743     3309.759     90.15815     180.7492     361.7506      3.612    10.09      1177.13      63.8025     115.0034        13     2.769     1.026  33.57   2
       202    941.2635    489.7381 307.5205497  +6.4899715     2418.615     6309.343     7168.818     90.73425     181.0373     362.0026      2.535     7.05     1162.822      63.8025     295.8811        48     2.092     1.601 -75.36   0
       203    414.9106    476.6917 307.7402090  +6.4779064     13336.12     29297.54      38840.6     90.73425      181.612     362.0746      2.562     9.77     1169.257      63.8025     1360.737        69     2.883     1.287 -62.96   3
       204    411.2423    475.7459 307.7417686  +6.4781752     11552.39     25261.07     31426.14     90.73425     181.0373     361.9666      2.422     8.45     1169.235      63.8025      1164.38        52     2.486     1.193 -68.30   3
       205    622.8470    476.3234 307.6536191  +6.4849653     3373.517     7039.525     9644.874     90.59057     181.1092     361.9306      2.559    10.67      1167.28      63.8025     369.1062        42     2.828     1.121 -54.38   3
       206    619.3207    475.3517 307.6551204  +6.4852497     3660.259     8407.218     10559.23     90.73425     181.1092     361.8946      2.515     8.78     1167.297      63.8025     372.6571        35     2.209     1.023 -59.47   3
       207    178.0310    474.6967 307.8389299  +6.4708446     5923.472     21054.46     30035.11      90.8777     180.8213     362.0386      3.215     8.22     1172.702      63.8025     616.4491        98     2.516     2.242 -63.63   0
       208    540.4485    473.2689 307.6880398  +6.4834919     794.2202     2202.917     4219.221     90.73425     180.9653     361.9666      3.555     8.88     1168.603      63.8025     118.4468        13     1.989     1.107 -77.33   2
       209    916.4448    470.0101 307.5315480  +6.4973002     2135.154     5692.333     7596.728     90.15815     180.8933     361.6425      2.782     7.56     1161.884      63.8025     238.5914        48     2.149     1.533 -58.85   0
       210    591.2433    469.8017 307.6670010  +6.4866105     1827.675     3950.618     5592.389     90.01355     180.6771     361.6065      2.452     8.50     1167.436      63.8025     231.2255        27     2.368     0.852 -65.48   3
       211    587.8131    468.3303 307.6684791  +6.4871045     2030.736     4908.212     6420.649     90.15815     180.7492     361.8226      2.588     8.55     1167.298      63.8025     231.3711        38     2.345     1.192 -74.21   3
       212    939.0425    461.9089 307.5224074  +6.5013943     1359.021      3777.02     4675.283     90.73425     181.0373     362.0746      2.649     8.82     1160.998      63.8025     184.6586        32     1.774     1.455 -31.09   0
       213    503.6106    460.4058 307.7038153  +6.4875819     2204.276     5244.018     7214.077     90.30252     180.8213     361.8586      2.813     9.99     1167.234      63.8025     237.4835        38     2.329     1.322 -64.91   3
       214    500.0139    459.6452 307.7053389  +6.4877766     2097.439     4504.728     5746.523     90.01355     180.8213     361.7146      2.395     7.79     1167.258      63.8025     216.4551        29     2.011     1.077 -68.02   3
       215    346.0645    458.4226 307.7694976  +6.4831631     981.7679     2109.554     3485.249     90.30251     181.0373     361.8226      3.280     7.61     1168.673      63.8025     123.6943        15     2.006     0.807 -73.23   2
       216    858.1262    454.8279 307.5563471  +6.5016422     1351.794     3674.645     5716.841     90.59056     180.9653     361.8946      3.676    10.54     1161.908      63.8025     156.1268        34     1.899     1.644  71.61   0
       217    903.8538    449.7172 307.5374725  +6.5052666     622.3568     1283.808     1191.625     90.73425     181.0373     362.0746      2.175     4.94     1160.819      63.8025       104.26         7     1.303     0.530  74.45   0
       218    688.2849    445.4790 307.6274010  +6.4998773     1015.099     2763.929     4102.734     90.73425     181.3967     362.0746      3.204     8.92     1163.824      63.8025     132.0271        14     2.108     1.054  75.34   2
       219    361.3178    445.2262 307.7635898  +6.4891218     1234.194     3918.568     5947.359     90.59057     180.7492     361.9666      3.312    10.62     1167.301      63.8025     162.4081        29     2.037     1.543 -50.95   2
       220    590.1513    441.4048 307.6684108  +6.4983047     2989.337     6767.006     8825.006     90.01355     180.8213     361.6065      2.418     8.44     1164.748      63.8025     304.5828        39     2.374     1.195 -70.63   3
       221    586.5767    440.0018 307.6699468  +6.4987657     2798.586     6115.706      8633.24     90.30252     180.6771     361.7146      2.537     9.29     1164.646      63.8025     325.7823        34     2.534     1.010 -78.14   3
       222    751.1032    437.0190 307.6015208  +6.5054544      5872.85     18631.79     26104.74     90.59057     180.8933     361.7146      3.094     7.66      1162.49      63.8025     628.5394        93     2.670     1.987 -57.87   0
       223    269.4495    437.5328 307.8021109  +6.4892419     800.1393     2317.359     3579.042     90.59057     180.8933     362.0026      3.458     4.79     1168.376      63.8025     109.0714         7     0.946     0.686 -72.28   0
       224     89.6330    430.2587 307.8772460  +6.4862531      1522.88     4434.872     7228.431     90.59057     181.1092     361.9306      3.314    12.45     1173.295      63.8025     172.5532        45     2.589     1.667 -31.93   2
       225    935.5998    432.0269 307.5248428  +6.5136246     753.4971     1619.769     1784.313     90.30252     180.6771     361.7506      1.924     4.11     1158.857      63.8025     96.18164         5     1.064     0.453  24.79   0
       226    725.0922    427.4741 307.6126753  +6.5085353     847.5312     2240.357     2820.558     90.73425     181.1811     362.0026      2.776     6.57     1162.588      63.8025     103.5841        11     1.521     0.797 -75.70   2
       227    989.9832    426.5331 307.5023750  +6.5176922     2046.746      5671.15      6975.31     90.15815     180.9653     361.8586      2.774     7.79      1156.41      63.8025     242.7695        48     2.044     1.727 -31.12   0
       228    323.0865    424.4572 307.7802128  +6.4964289       935.27     2960.405     4509.252     90.73425     181.0373     362.1465      3.213     9.42      1166.03      63.8025     127.2336        19     2.239     1.106 -57.67   2
       229    691.5040    409.0194 307.6272851  +6.5150452     4047.706     8117.052     9872.407     90.59056     180.8213     361.7506      2.139     7.39     1161.397      63.8025     458.2607        26     2.081     0.832 -69.24   3
       230    687.8739    408.6402 307.6288099  +6.5150815     5070.837     12167.41     16485.83     90.59056     181.0373     362.0026      2.738     8.01       1161.4      63.8025     501.6173        59     2.556     1.531 -77.62   3
       231    791.6273    410.4052 307.5855354  +6.5177910     836.2268     2350.894     2948.769     90.15815     180.8213     361.7506      2.928     7.68     1159.887      63.8025     123.3435        12     1.538     1.074 -11.77   0
       232    608.6877    405.1724 307.6619087  +6.5138872     929.4539     2385.132     3652.566      90.8777     180.7492     361.8226      2.992     7.79     1161.817      63.8025     127.3925        13     1.490     1.139  50.75   0
       233    583.7791    400.3406 307.6724460  +6.5150564     5608.031     14661.32     23581.55     90.30252     180.8933     361.7866      3.335     7.57     1161.049      63.8025     554.8632        87     2.620     2.138 -76.83   3
       234    580.2314    398.7767 307.6739762  +6.5155846     3944.999     8446.215      10665.8     90.01355     180.8213     361.7146      2.373     7.18     1160.917      63.8025     474.2181        32     2.187     0.982 -66.35   3
       235    913.5200    398.0765 307.5351776  +6.5269190     1751.856     4197.127     5055.706     91.02093     181.3249     362.1105      2.702     6.91     1157.158      63.8025     281.7849        29     1.869     1.495 -89.38   2
       236    355.7039    395.8411 307.7675926  +6.5093351     8967.798     20273.73     25646.61     90.73425     180.9653     362.1465      2.562     8.21     1163.529      63.8025     983.1169        60     2.810     1.167 -61.65   3
       237    352.1665    394.4929 307.7691114  +6.5097743     7656.536     18031.77     22754.07      90.8777     180.8933     362.0386      2.581     8.35     1163.484      63.8025     725.7634        55     2.529     1.272 -66.33   3
       238     98.3083    393.3781 307.8748794  +6.5017769     707.1921      1788.58       2903.2     90.73425     180.8213     361.7866      3.243     7.17      1171.11      63.8025     110.8663         8     1.569     0.918  45.27   2
       239    883.4211    389.3757 307.5480064  +6.5295173     2010.556     5723.475      7306.16     90.30252     180.8213     361.9666      2.786     8.29     1157.021      63.8025     213.1985        47     2.155     1.580 -83.97   0
       240    213.1488    385.9784 307.8272994  +6.5086624     4472.406     11025.66     14496.67     90.15815     181.1092     361.8226      2.673     8.66     1167.688      63.8025     527.3077        51     2.510     1.383 -71.24   3
       241    209.2169    385.1604 307.8289646  +6.5088693     3173.888     6493.066     8441.242     90.30252     180.8933     361.7146      2.411     8.69     1167.752      63.8025     393.8464        34     2.577     0.868 -79.94   3
       242   1015.9545    375.8303 307.4932554  +6.5394958      4267.29     10822.02     12460.21     90.30252     181.1092     361.8226      2.503     6.07     1152.188      63.8025     517.5903        54     2.073     1.549 -60.51  16
       243    111.9849    374.6361 307.8698166  +6.5099749     1712.125     5881.756     8113.394     90.30251     180.8213     361.7506      3.105     8.85     1170.034      63.8025      236.342        58     2.230     1.951 -45.65   0
       244    135.4754    370.0055 307.8601894  +6.5126712      935.886     2346.212     3868.657     90.30252     180.4607     361.8586      3.326     7.18     1169.326      63.8025     128.0984        13     1.451     0.996  87.32   2
       245    354.7691    365.0010 307.7690216  +6.5220435     501.2841     881.9539     1728.021     90.01355     180.8213     361.7506      2.902     4.77     1161.554      63.8025     73.75745         5     0.948     0.682  62.94   0
       246    409.0402    358.9543 307.7466207  +6.5263466     1888.181     5078.903     7236.058     90.59057     181.0373     361.7866      3.088    10.47     1159.609      63.8025     195.1681        39     2.578     1.206 -80.68   3
       247    412.8420    358.7292 307.7450448  +6.5265660     2156.433     4430.266     6073.609     90.59057     181.0373     362.0386      2.549     7.53     1159.493      63.8025     230.7767        31     2.105     1.046 -69.18   3
       248      8.3552    360.1611 307.9134668  +6.5124955     1211.146     3452.027      5041.98     90.44666     181.0373     361.5345      3.274    10.52     1173.438      63.8025     153.4169        30     2.220     1.390 -72.73  18
       249    750.8758    355.8182 307.6043422  +6.5389903     4619.033     14140.24     20465.54     90.15815     180.7492     361.8946      3.290     9.11     1155.664      63.8025     486.7819        98     3.034     2.195 -15.74   0
       250    995.1674    350.6696 307.5027569  +6.5492026      1710.53     4479.527     5106.301     90.59057     181.0373     362.0026      2.582     7.51      1151.58      63.8025     215.3887        40     1.855     1.695 -64.71   0
       251    458.5438    343.0000 307.7265389  +6.5345830      907.382     2721.142     4167.005     89.86871      180.605     361.5705      3.233     7.07     1157.493      63.8025     116.9071        11     1.713     0.819 -12.32   2
       252    430.4625    341.1411 307.7382980  +6.5344173     683.1647      1886.63     2943.778      90.8777     180.9653     362.0026      3.456     6.32     1157.902      63.8025     81.59583        10     1.539     0.730 -31.22   2
       253    816.7980    338.4784 307.5774650  +6.5483371     12216.23     37730.28     50060.16     90.01355     180.4607     361.7146      2.932     7.15     1153.866      63.8025     1252.693       105     2.516     2.007 -65.97   0
       254    587.3734    330.7201 307.6732906  +6.5439351     955.6494     2668.504     4075.825     90.59057     180.8213     362.0026      3.139     9.40      1155.26      63.8025     134.3134        18     1.995     1.237 -80.24   2
       255    673.2590    324.5979 307.6377216  +6.5493139     24928.18     85860.52     118713.9     90.01355     180.6771     361.6425      3.121     7.99     1153.913      63.8025     2425.309       133     2.589     2.207 -60.05   0
       256     74.6330    321.1445 307.8871817  +6.5308245     2069.197     4803.058     6397.587     90.59056     181.0373     361.9666      2.617     7.63      1170.29      63.8025     221.9717        34     2.063     1.179 -64.63   3
       257     71.5389    319.3878 307.8885298  +6.5314469      1449.39     3371.811       4539.6     90.15815     180.8213     361.6065      2.550     8.74     1170.414      63.8025       196.54        23     2.362     0.904 -74.38   3
       258    534.8843    321.3586 307.6954692  +6.5460593     789.1537     2329.066     3377.314     90.73425     180.8933     361.8946      3.186     8.21     1154.431      63.8025     124.0203        16     1.730     1.089  33.74   2
       259    520.3861    318.1990 307.7016146  +6.5468829     2093.138     5780.054      8141.83     90.30252     180.6771     361.7146      3.004    11.36     1154.308      63.8025     244.6276        50     2.511     1.877 -42.96   3
       260    517.3735    317.0594 307.7029078  +6.5472536     1776.079     3687.263      4375.21     90.30251     181.1092     361.7866      2.182     7.12     1154.246      63.8025     265.3866        18     2.099     0.677 -57.94   3
       261    383.7759    313.6242 307.7586716  +6.5442313     7758.537     17794.85     23412.99     90.15815     180.8213     361.8226      2.602     8.40     1157.967      63.8025      790.006        56     2.726     1.193 -64.17   3
       262    380.3240    312.1712 307.7601583  +6.5447167     6843.303     16816.64     21061.14     90.59057     181.1092     362.0026      2.589     8.31     1158.052      63.8025     644.8301        48     2.430     1.216 -68.27   3
       263    247.0095    317.2510 307.8155160  +6.5381803     731.8871     1928.583     2433.915     90.15815     180.8933     361.6425      2.282     5.90     1163.247      63.8025      135.074         6     1.714     0.572  12.66   2
       264    250.6937    314.6585 307.8140689  +6.5393739     761.7903     1362.725     2136.548     90.59057     181.0373     362.1465      1.756     3.91     1162.994      63.8025     119.0659         5     0.923     0.540 -85.82   2
       265    472.8589    303.7542 307.7218979  +6.5512706      2606.83     5676.303     7642.687     90.59057     181.0373     362.0746      2.540     8.70     1153.703      63.8025     278.8966        37     2.457     1.027 -55.27   3
       266    469.6764    301.6798 307.7232934  +6.5520217      2425.48     5269.102     7126.687     91.02093     181.3249     362.1105      2.720     9.45      1153.64      63.8025     251.2573        34     2.337     1.066 -63.44   3
       267    740.1341    301.4958 307.6106410  +6.5610744     1186.493     3380.924     3676.811     90.73425     181.1811     362.0026      2.587     9.59     1152.228      63.8025     141.8942        28     1.768     1.450 -11.77   0
       268    363.0699    287.6876 307.7681707  +6.5542563     2249.495     4843.625     6364.187      90.8777     181.3249     361.9666      2.440     8.47     1157.822      63.8025      283.574        33     2.363     0.965 -66.50   3
       269    359.4776    286.4177 307.7697098  +6.5546614     2042.989     4972.213      6618.52     90.15815     180.7492     361.8946      2.614    10.00     1157.932      63.8025      238.073        38     2.552     1.164 -71.62   3
       270    728.7274    283.0995 307.6160105  +6.5682956     18303.69     59598.93     80319.27     90.44666     181.1811     361.9666      3.031     7.59     1151.124      63.8025     1826.931       118     2.558     2.100 -61.37   0
       271    402.0835    284.3966 307.7520309  +6.5569137     603.2584     1548.276     3149.908     90.01355      180.605     361.6065      2.400     4.20     1155.498      63.8025     96.93896         5     1.737     0.290  11.99   2
       272    904.6586    278.4856 307.5428786  +6.5760281     1047.688     2767.583     3169.402     90.73425     181.0373     362.0746      2.723     9.43     1148.304      63.8025     133.9911        19     1.628     1.525  -8.77   2
       273    219.2132    289.1064 307.8280439  +6.5488800     637.9555     1471.368     2332.269     90.44666     180.7492     361.7866      3.338     5.06     1163.056      63.8025     103.6666         6     1.091     0.664 -82.19   2
       274    221.4210    272.9364 307.8276702  +6.5556330     5146.764     4984.196     4838.693     90.30251     181.0373     361.8226      0.857     3.09     1162.834      63.8025     1444.627         5     0.790     0.353  60.77   0
       275    725.6567    268.1415 307.6177921  +6.5743728     1860.841     4390.054     5987.904      90.8777     181.0373     362.0026      2.671     8.37     1149.982      63.8025     213.2498        27     2.293     0.893  83.12   3
       276    728.0131    267.0363 307.6168477  +6.5749075     1838.484     5239.418     6876.088     90.15815     180.8213     361.6425      2.928     9.38     1149.924      63.8025     188.4078        32     2.088     1.351  72.43   3
       277    165.6685    270.1040 307.8509886  +6.5549446     830.2756     1744.596      2594.64     90.59057     181.1811     362.0026      2.537     5.74     1165.599      63.8025     120.6089        10     1.401     0.662 -88.25   0
       278    742.2184    266.7660 307.6109393  +6.5754900     984.5845     2295.993     2845.649     90.15815     180.8213     361.7506      2.737     5.10     1149.958      63.8025     114.6562        10     1.064     0.797  45.42   2
       279    981.7772    256.1809 307.5115006  +6.5877928     2709.075     7351.935     8937.879     90.44666     180.9653     361.8946      2.697     6.72      1145.03      63.8025      309.406        52     2.110     1.600 -62.41   0
       280    462.8044    256.3529 307.7276825  +6.5705170     511.4886     984.0379     1916.648     90.01355     180.7492     361.6065      2.660     4.41     1149.758      63.8025     78.55981         5     1.171     0.472 -58.97   0
       281    223.4549    253.6886 307.8274729  +6.5636516     1752.999     5302.598     8582.543     90.73425     180.8933     362.1105      3.396    10.08     1162.586      63.8025     196.5776        50     2.531     1.771 -50.13   2
       282    358.9610    243.0874 307.7713860  +6.5725430     661.1724     1206.353     2314.039     90.73425     180.9653     362.0026      2.080     3.68     1155.612      63.8025     83.47693         5     1.004     0.388 -58.56   0
       283    943.5339    241.4567 307.5279255  +6.5926106     698.3947     1348.944     1651.028      90.8777     180.9653     361.9666      2.032     5.39     1145.564      63.8025     84.28394         7     0.939     0.872 -44.17   0
       284    128.3307    239.8805 307.8675622  +6.5661839     679.3425     1254.492     1544.864     91.02093     181.3249     362.0026      1.829     3.49      1167.47      63.8025     112.7355         5     0.810     0.434 -74.62   0
       285    881.9835    234.1287 307.5538122  +6.5936013     617.7809     1523.856      2257.32     90.15815     180.9653     361.8586      2.363     4.50     1146.875      63.8025     103.8035         5     1.189     0.483 -72.53   0
       286    699.5114    232.0609 307.6298958  +6.5884105     1554.662     5286.507     7166.902     90.73425     181.1811     362.0026      3.014    10.43     1146.693      63.8025     169.0143        51     2.171     1.879  86.21   0
       287    534.2592    234.4893 307.6986535  +6.5819229      738.581      1906.59     3064.664     90.59057     181.1092     362.0746      3.040     6.20     1145.835      63.8025      108.248         8     1.775     0.609 -33.89   0
       288    640.2984    231.2787 307.6545887  +6.5867695     651.7368     2073.366     2859.907     90.30252     181.3249     362.0026      3.162     7.30      1145.81      63.8025     106.7068         9     1.585     0.942   3.83   2
       289    841.0060    216.3752 307.5714785  +6.5995786     792.5945     1887.658     2797.978     90.15815     180.7492     361.7866      2.875     6.53     1146.822      63.8025     96.71094        11     1.652     0.724 -85.85   0
       290    196.8209    216.2084 307.8398328  +6.5782460     492.4767     1076.498     2726.989     90.30252     180.8213     361.7146      2.754     3.46     1163.957      63.8025     81.80286         5     1.005     0.344  45.35   0
       291    434.7544    208.0132 307.7409956  +6.5895527     6832.134     15725.01     20725.43     90.01355     180.8213     361.7146      2.675     8.18     1148.569      63.8025     662.9639        57     2.802     1.188 -65.05   3
       292    431.3528    206.6223 307.7424595  +6.5900141     6328.128     15165.04     19981.82     90.30252     181.0373     361.8226      2.658     8.25     1148.822      63.8025      641.605        49     2.485     1.185 -70.81   3
       293    757.5062    205.9895 307.6066122  +6.6011028     4561.813     10317.68     13733.12     90.30252      180.605     361.7146      2.529     7.73      1146.45      63.8025     436.5013        45     2.418     1.171 -78.81   3
       294    760.7750    206.2384 307.6052420  +6.6011083     4053.728     8711.083     10537.87     90.30252     180.8213     361.7506      2.344     6.89      1146.48      63.8025     491.2589        41     2.375     1.043 -69.13   3
       295    121.8025    201.0072 307.8715954  +6.5820236     903.4727     2869.474     3831.122     90.01355     180.6771     361.7866      2.982     8.08     1167.481      63.8025     154.6371        21     1.924     1.483  12.44   0
       296    556.0331    193.9797 307.6909465  +6.5993799     1431.176     4581.888     6986.387     90.15815     180.8213     361.7866      3.207    12.29     1143.908      63.8025     169.5194        43     2.755     1.526 -25.54   2
       297    895.2787    195.1125 307.5495822  +6.6101585     681.4403     1621.558      2039.16     90.44666     181.3249     362.1105      2.931     7.87     1144.356      63.8025     107.3097        10     1.878     0.922 -54.02   0
       298    521.7235    193.4484 307.7052571  +6.5984597     721.8017     1362.622     1786.836     90.59057     181.1092     361.9666      2.273     5.13      1144.02      63.8025     95.17798         7     1.142     0.653 -82.17   0
       299    863.9807    189.2600 307.5628172  +6.6115403     4521.272     13081.23     16455.31     90.30252     180.8933     361.8226      2.796     6.93     1144.537      63.8025     426.2844        70     2.301     1.822 -65.03   0
       300    917.7498    190.1031 307.5403888  +6.6129714     1048.365     2874.474     3617.557     90.59057     180.9653     362.1465      2.713     9.49      1143.67      63.8025     141.1155        22     1.756     1.431 -73.71   0
       301    950.7480    186.9469 307.5267476  +6.6153668     4453.485     11839.74     13890.59      90.8777     180.8933     362.0026      2.604     6.38     1142.992      63.8025     428.6162        58     2.127     1.656 -56.39   0
       302    662.5450    186.9504 307.6468116  +6.6058190      979.469     3296.694     4972.254     90.73425     181.0373     362.0026      3.250    11.19     1144.718      63.8025     126.7338        31     2.109     1.654 -79.27   0
       303    714.2325    175.3346 307.6256695  +6.6123315     13502.07     44767.97     60728.32     90.59057     181.1092     361.9306      3.054     7.74     1144.869      63.8025     1278.006       114     2.535     2.132 -60.06   0
       304    483.4245    178.8116 307.7217046  +6.6032333     955.0443     2899.579     3212.719     90.30252     180.8213     361.8946      2.770    11.11     1144.153      63.8025     157.0397        25     2.145     1.604 -22.09   0
       305    317.4582    175.1302 307.7909665  +6.5992332     2279.402     7826.118     12490.66      90.8777     181.0373     361.9306      3.438     9.75       1157.3      63.8025      252.007        78     2.618     2.155 -52.11   0
       306    802.0530    178.4365 307.5889795  +6.6139606     681.8825     1717.083     2245.419     90.59056     181.0373     362.0026      2.604     4.93     1144.978      63.8025     93.58325         5     1.191     0.579  49.97   0
       307    947.6177    174.0772 307.5284831  +6.6205796     1202.005     3067.952     3307.635     90.15815     180.7492     361.9306      2.418     7.81     1142.422      63.8025     191.4711        23     1.599     1.443 -63.87   0
       308    882.1434    172.3766 307.5558171  +6.6191158     3016.764     8848.999     11159.08     90.30252     181.0373     361.7506      2.785     7.24     1143.166      63.8025     313.9489        61     2.242     1.766 -68.87   0
       309    424.4624    175.4932 307.7463788  +6.6026438     1043.336     2299.107     2532.538     90.73425     181.0373     362.0386      2.253     5.57     1146.253      63.8025     122.9276         9     1.354     0.645  -9.85   3
       310    428.3011    171.7532 307.7449057  +6.6043163     1459.892     3071.779     4783.143     90.73425     180.8933     362.1825      2.536     9.10     1145.824      63.8025     173.7572        22     2.225     1.038  67.18   3
       311    423.6584    170.6803 307.7468759  +6.6046051     1214.619     3007.635     3771.496     90.73425     181.1092     361.9306      2.652     6.31     1145.858      63.8025     162.4957        14     1.384     0.808 -71.62   3
       312     84.0671    163.5454 307.8885807  +6.5962387     1561.132     4947.905     6815.466     90.73425     180.9653     361.8946      3.021     8.33     1168.446      63.8025      195.184        46     2.134     1.827  62.22   2
       313    253.4940    159.9668 307.8181240  +6.6033665     9480.211     35872.11     51668.24      90.8777     180.8933     362.0746      3.253     8.92     1163.038      63.8025     1130.099       114     2.655     2.254 -60.67   0
       314    228.8924    161.0188 307.8283368  +6.6021122      1918.24     7044.354     9712.555     90.59057     180.7492     361.8226      3.205    10.73     1164.691      63.8025     219.9639        69     2.458     2.038 -60.99   0
       315    377.5112    155.3694 307.7666162  +6.6093947     14232.08     52849.63      75644.7      90.8777     180.8213     361.8946      3.237     8.83      1150.06      63.8025     1605.267       124     2.650     2.276 -59.82   0
       316    281.7986    153.1367 307.8065635  +6.6071307     5159.608     19407.24     30104.32     90.01355     180.7492     361.7146      3.455     8.67     1161.187      63.8025     633.5181       107     2.679     2.318 -42.07   0
       317    718.4991    152.0013 307.6246761  +6.6221116     9150.379     18955.28     23174.04     90.15815     180.6771     361.6425      2.270     7.55      1144.06      63.8025     984.7483        37     2.289     0.963 -68.00   3
       318    715.4062    150.7456 307.6260068  +6.6225278     11287.01      26351.9     34538.18     90.15815     180.7492     361.6425      2.644     7.84     1144.018      63.8025     1094.613        72     2.671     1.400 -79.92   3
       319    134.2421    157.7459 307.8678757  +6.6003084     1213.763     3842.458     5957.386     90.59057     181.0373     361.9666      3.317    11.29     1166.648      63.8025      164.877        39     2.436     2.016 -24.93   2
       320     35.5221    149.3818 307.9092817  +6.6004687     3305.423     6969.782     9016.422     90.15815     180.6771     361.9306      2.407     8.06     1170.846      63.8025     396.7115        41     2.503     1.097 -61.68   3
       321     31.7127    148.3916 307.9109020  +6.6007505     2263.321     4537.628      5910.41     90.30252     180.6771     361.7146      2.277     7.73     1171.054      63.8025     264.3977        28     2.192     0.890 -71.13   3
       322    975.5843    132.4231 307.5182282  +6.6387114     1024.306     2578.002     3702.063     90.44666     180.8213     361.8586      3.159     8.90     1139.009      63.8025     117.5168        20     1.693     1.307  70.62   0
       323    253.7470    127.2145 307.8191242  +6.6169040     9910.798     25246.52     34354.71     90.01355     180.9653     361.6786      2.807     8.47     1163.232      63.8025     1014.859        81     2.839     1.667 -52.53   3
       324    250.3751    125.4498 307.8205885  +6.6175206     7642.972     17657.42     22440.69     90.30252     181.0373     361.8586      2.453     7.36      1163.46      63.8025     784.8464        35     2.418     0.998 -69.56   3
       325    686.1339    122.4585 307.6391526  +6.6332421     2425.824     4444.726      5885.57      90.8777     180.9653     361.9666      2.273     8.83     1142.823      63.8025      266.381        27     2.232     0.975 -68.00   3
       326    682.5647    122.2355 307.6406471  +6.6332158     2733.576     6294.144     7975.467     90.44666     180.7492     361.6786      2.613     7.50     1142.823      63.8025     282.1709        38     2.211     1.156 -80.51   3
       327     96.5430    120.6088 307.8848354  +6.6143907     1585.185     3594.357     5250.787     90.01355     180.9653     361.6425      2.657     7.57     1166.854      63.8025      206.848        26     2.119     0.929 -61.82   3
       328     92.8590    121.3421 307.8863453  +6.6139649     1298.287     3100.175      5014.74     90.73425     180.9653     362.0026      3.139     9.65     1167.084      63.8025     136.4084        23     2.865     0.907 -78.56   2
       329    366.2370    114.6613 307.7726856  +6.6258351     1260.148     4112.091     6380.449     90.73425     181.1092     361.9666      3.376    11.20      1152.07      63.8025     153.6848        35     2.213     1.579  -1.14   2
       330     85.3646    115.2570 307.8896730  +6.6162283     753.4611     1937.645     2932.649     90.59057     181.0373     362.0026      3.129     8.13     1167.426      63.8025     93.93286        15     1.628     1.134  87.18   0
       331    331.6489    115.6573 307.7870612  +6.6242724      1073.69     2385.201     4503.754     90.73425     181.0373     362.1105      3.291     5.79       1156.4      63.8025     141.8491        12     1.436     0.658 -54.37   2
       332    526.3671    113.2416 307.7060230  +6.6317459     2629.647     4094.669     3463.909     90.44666     181.0373     361.8226      1.576     5.49     1142.617      63.8025     623.9731        14     1.701     0.500   0.23   0
       333    328.6446    112.8578 307.7884072  +6.6253287     808.2765     2127.749     3459.126     90.59057     181.0373     362.0386      2.509     3.49     1156.816      63.8025      107.495         5     0.805     0.437  73.25   1
       334    977.0180    109.1748 307.5184101  +6.6483625     648.4807     1448.023     1099.707     90.30252     180.8933     361.8946      1.608     3.68     1137.218      63.8025     93.06567         5     1.407     0.277 -10.87   0
       335    182.8947    104.4065 307.8494106  +6.6239638     1894.655      5535.16     8920.159     90.44666     180.6771     361.7506      3.518    11.14     1164.944      63.8025     212.7002        54     2.477     2.096 -78.12   2
       336    643.0059     99.3694 307.6578967  +6.6413490     1480.297     2685.076     2978.023     90.01355     180.8213     361.7146      1.886     5.92     1142.108      63.8025     180.2367        14     1.222     0.891  -7.90   3
       337    644.9164    103.2971 307.6569686  +6.6397899     1907.794     4205.667     6068.885     90.73425     181.4685     362.0386      2.505     8.85     1142.214      63.8025     208.2253        29     2.448     0.892 -59.52   3
       338    641.5729    102.9931 307.6583718  +6.6398046     1961.522     3784.829      4810.36     90.15815     180.8933     361.7506      2.193     5.02     1142.233      63.8025     224.4377        21     1.404     1.097 -74.09   3
       339     65.3659    104.8281 307.8983568  +6.6198686      790.914     2297.039     3263.396     90.15815     180.7492     361.7146      3.064     6.93     1168.393      63.8025     108.7151        12     1.980     0.680 -21.31   0
       340    598.6143     92.3031 307.6766287  +6.6427946     17142.12     54955.25     87493.92     90.59057     180.7492     361.7146      3.627    10.76     1142.204      63.8025     1740.913       192     4.144     2.197 -66.46   0
       341    321.2059     96.8802 307.7920452  +6.6316810     1027.586     2955.675     5497.335     90.30252     180.5329     361.6786      3.784     5.84     1158.089      63.8025      134.009        12     1.464     0.747 -52.80   3
       342    324.9009     95.9165 307.7905384  +6.6322022     1337.427     3040.583     5911.123     90.73425      181.612     362.0746      3.984     8.25     1157.607      63.8025      168.394        23     2.126     0.895 -63.42   2
       343    279.8329     85.6846 307.8096590  +6.6349278     1284.209     3434.792     6154.779     90.73425     180.8213     361.9306      3.674     8.53     1162.393      63.8025     164.6771        23     1.991     1.022 -44.74   2
       344    662.6511     72.7342 307.6506077  +6.6530034     953.2134      2285.17      3220.51     90.59057     180.9653     361.9666      2.777     7.37     1140.201      63.8025     116.3074        14     1.466     1.036  63.18   2
       345    665.0261     76.4363 307.6494938  +6.6515529     1071.009      2230.62     3139.497     90.30252     180.8213     361.7146      2.570     6.40     1140.364      63.8025     144.3383        12     1.425     0.808 -47.91   2
       346    403.3093     66.3828 307.7588689  +6.6470112     1057.478     3119.401     4579.246     90.44666     180.7492     361.8586      2.875     7.57     1148.193      63.8025     146.5033        15     2.016     0.796 -74.17   3
       347    407.9684     66.5799 307.7569212  +6.6470848     1209.002     3167.767     5018.447     90.15815     180.8213     361.7866      3.308     9.31     1147.486      63.8025     152.5233        20     2.226     1.088  59.78   2
       348    877.7759     61.3661 307.5613612  +6.6648284     1728.196      4594.84     5237.798     90.15815     180.8213     361.7146      2.727     8.13     1135.779      63.8025     193.0734        39     2.017     1.595 -72.98   0
       349    859.0585     62.1100 307.5691347  +6.6639015     873.8318     2348.015      2113.46     90.59057     181.0373     362.1105      2.436     7.97     1136.273      63.8025     130.7201        14     1.789     0.993 -30.51   0
       350    117.0421     55.6379 307.8784925  +6.6419121      1187.01     3534.031     4981.215     90.44666     181.0373     361.8226      3.035    10.22     1164.763      63.8025     142.8419        29     1.963     1.483 -37.52   0
       351      1.4667     52.3741 307.9267509  +6.6394015      2963.64     4443.349     5085.276     80.70449      146.162     274.8222      1.661     5.06     1168.833      63.8025     516.9115        20     1.908     0.646 -84.87  24
       352    264.5298     54.4057 307.8170901  +6.6473385     487.6861     1493.154     2852.036     90.15815      180.605     361.7866      3.211     4.99     1162.783      63.8025     94.81335         5     1.311     0.537  42.15   0
       353    800.1052     46.9496 307.5942060  +6.6682116     2394.676     7236.529     9218.833     90.59057     180.8933     362.1825      2.856     7.70     1136.869      63.8025      243.182        56     2.141     1.772 -66.21   0
       354    745.3140     47.5473 307.6170142  +6.6661490     1340.697      3761.48     4953.712     90.73425     180.9653     362.1105      3.006     9.75     1137.426      63.8025     181.5278        33     1.867     1.520 -30.46   0
       355     39.1578     45.3334 307.9112874  +6.6435687     1133.161     3705.022     4357.827     90.73425     180.9653     362.0386      2.907    11.58     1166.833      63.8025     158.1699        37     2.035     1.836 -50.08   0
       356    738.5389     35.2445 307.6202504  +6.6710065     778.5532      1950.19     2539.797     90.59057     181.0373     362.1105      3.104     6.11     1136.345      63.8025     101.1943         9     1.344     0.780  72.99   0
       357    190.9210   1015.2115 307.8153210  +6.2479990     2093.133     4995.644     5959.666     90.30252     180.6771     361.7866      2.460     6.83     1197.856      63.8025     240.9728        37     1.907     1.442 -75.18  16
       358    396.6378     29.0875 307.7629058  +6.6621950     875.6932      2254.58     3437.095     90.73425     180.9653     361.9666      3.220     8.46     1150.359      63.8025     97.62549        15     1.677     1.193 -80.83   0
       359    556.9130   1011.7365 307.6630765  +6.2616030     90555.05     214841.5     269163.6     90.73425     181.1811     362.0026      2.576     5.90      1198.16      63.8025     9069.946       135     2.356     1.796 -58.63  19
       360    558.5576   1004.5739 307.6626326  +6.2646164     41528.87     95188.87     108646.1     90.30252     181.0373     361.7866      2.338     5.71     1197.738      63.8025     4083.608        78     1.966     1.600 -35.17   3
       361    767.8823   1008.7728 307.5753465  +6.2698217     4286.282     8974.115     10072.04     90.59056     180.8213     361.8946      2.196     5.11     1195.259      63.8025     519.3304        45     1.904     1.385 -56.91   0
       362    938.4026   1010.6752 307.5042913  +6.2746784      816.045     1557.024     1314.808     90.15815     180.4607     361.8586      1.951     5.07     1192.886      63.8025     106.8585        10     1.074     0.741 -54.89   0
       363    865.8412   1005.5223 307.5346730  +6.2744072     1151.109     2144.623     2670.796     90.59057     181.0373     362.0386      2.115     7.10     1193.016      63.8025      122.155        17     1.485     0.974 -74.61   0
       364    188.7578   1003.7812 307.8166071  +6.2526485      1132.68     2767.592     3282.194     90.15815     180.8213     361.7146      2.682     8.16     1197.413      63.8025     116.1202        19     1.678     1.109  73.80   0
       365    691.5125   1001.2788 307.6073922  +6.2703871     4635.904      10001.7     12659.49     90.44666     181.3249     362.1105      2.495     5.17      1195.96      63.8025     535.8099        48     1.890     1.444 -53.13   0
       366    406.5745   1001.5079 307.7260074  +6.2608351     2182.598      4881.21     6085.918      90.8777     180.7492     361.7866      2.512     6.39     1197.298      63.8025     253.3071        33     1.761     1.337 -51.10   0
