#   1 NUMBER                 Running object number                                     
#   2 X_IMAGE                Object position along x                                    [pixel]
#   3 Y_IMAGE                Object position along y                                    [pixel]
#   4 ALPHA_J2000            Right ascension of barycenter (J2000)                      [deg]
#   5 DELTA_J2000            Declination of barycenter (J2000)                          [deg]
#   6 FLUX_APER              Flux vector within fixed circular aperture(s)              [count]
#   9 FLUXERR_APER           RMS error vector for aperture flux(es)                     [count]
#  12 FLUX_RADIUS            Fraction-of-light radii                                    [pixel]
#  13 FWHM_IMAGE             FWHM assuming a gaussian core                              [pixel]
#  14 BACKGROUND             Background at centroid position                            [count]
#  15 THRESHOLD              Detection threshold above background                       [count]
#  16 FLUX_MAX               Peak flux above background                                 [count]
#  17 ISOAREA_IMAGE          Isophotal area above Analysis threshold                    [pixel**2]
#  18 A_IMAGE                Profile RMS along major axis                               [pixel]
#  19 B_IMAGE                Profile RMS along minor axis                               [pixel]
#  20 THETA_IMAGE            Position angle (CCW/x)                                     [deg]
#  21 FLAGS                  Extraction flags                                          
         1      7.6346     34.5010 307.9369384  +6.6319153     727632.4      2162771      2582285     90.88715     181.1981       358.99      2.713     6.40     1179.055     63.91001     61669.18       355     2.432     2.031 -60.18  28
         2     30.3699     19.2032 307.9279938  +6.6389944     5957.652      16325.8      19037.5     90.31008      181.126     362.3602      2.579     6.49     1176.621     63.91001     728.4276        61     2.045     1.728 -58.35   0
         3    831.7698     13.2704 307.5944914  +6.6682038     3623.984     8212.688     9280.413     90.74323     181.3423     362.5405      2.296     5.52     1141.172     63.91001     367.7609        42     1.736     1.469 -58.83   0
         4    777.1333     13.9597 307.6172200  +6.6661019     1815.255     4489.706     5380.938     90.74322     181.2702     362.6847      2.495     8.48     1142.137     63.91001     196.0833        33     1.716     1.455 -81.33   0
         5     68.7832     12.8463 307.9122162  +6.6429071     1042.772     1823.337     2432.764     90.31007     181.1981     362.3241      1.966     7.53         1172     63.91001     159.7518        13     2.204     0.721  87.74  19
         6     72.2829     11.1191 307.9108179  +6.6437375     1511.575     2962.059     3393.568     90.74322     181.6304     362.6847      2.110     5.74     1171.625     63.91001     204.0782        23     1.563     1.176  60.57   3
         7     13.2262      6.8974 307.9355517  +6.6435008      1345.78     3302.634     2301.445     91.03084     181.0538     352.8203      2.225     8.84     1178.704     63.91001     160.9175        27     1.782     1.225 -56.43  16
         8    771.3096      2.2220 307.6200425  +6.6707551     903.5645     1516.542     1734.075      89.7293     158.5793     289.3141      1.883     6.29       1141.6     63.91001     120.9264        11     1.334     0.833 -38.03  24
         9    580.9469   1010.3225 307.6651444  +6.2481272     2221.604     4122.458     4402.852     91.03084     181.3423     362.5766      2.018     5.11     1198.306     63.91001     239.0848        25     1.441     1.199 -73.12   0
        10    654.0023   1022.5898 307.6343322  +6.2454942     737.5324     991.7386      809.246     90.31007     161.1141     292.2805      1.599     4.51     1197.142     63.91001     101.1011         5     1.026     0.563  74.84  24
        11    287.0000   1000.5803 307.7877783  +6.2423440     1134.329     2015.315      1939.56     90.31007     180.7648     362.1798      1.884     4.26     1198.453     63.91001     163.1787         8     1.212     0.608 -82.32   2
        12     11.0084    997.8055 307.9027009  +6.2342570     9714.778     18181.38     19003.14     90.16523      181.126     362.3963      1.994     4.15     1195.058     63.91001     1134.021        49     1.738     1.321 -60.73  16
        13    709.8131    998.4018 307.6119285  +6.2573399     3514.865     6532.701     6661.178     90.45469     180.9816     362.3241      1.984     4.38     1195.882     63.91001      373.755        30     1.497     1.199 -41.42   0
        14    619.6509    996.8333 307.6494970  +6.2549865     1400.063     2758.353     2982.226     90.74322     181.4144     362.4684      1.958     5.83     1197.099     63.91001     161.3612        18     1.451     0.921 -31.34   0
        15    240.0455    995.6217 307.8074829  +6.2428226     1090.808     1932.486     2226.493     90.45469     181.3423     362.3963      1.826     7.12     1198.391     63.91001     148.8868        16     1.510     0.971 -26.90   0
        16    719.1856    990.2387 307.6083048  +6.2610226     672.9037     959.5951     897.2443     90.59907      181.126     362.2881      1.350     3.74     1195.648     63.91001     106.2048         5     1.039     0.386 -87.27   0
        17    804.8652    987.2576 307.5727546  +6.2651028     12027.68     20896.49     22047.22     91.03084     181.2702     362.6126      1.861     4.08     1195.001     63.91001     1452.273        50     1.712     1.269 -52.27   0
        18     75.7143    988.0355 307.8761126  +6.2404582     5985.161     11400.05     11994.18     90.88715     181.1981     362.5766      2.013     4.23     1196.128     63.91001     675.0574        41     1.587     1.398 -60.17   0
        19    588.4236    978.2280 307.6631204  +6.2616295     118343.5     230574.5     259210.9     90.31007     181.1981     362.3963      2.101     4.51     1196.916     63.91001     13240.53       113     1.992     1.514 -54.32   3
        20    590.0772    971.1714 307.6626713  +6.2645985     53968.82     106676.7       118273     90.74322     181.4144     362.5766      2.099     4.78      1196.61     63.91001     5768.151        84     1.905     1.460 -41.17   3
        21    222.4322    981.4667 307.8152923  +6.2480789     2615.614      5157.65     5786.371     90.74323     181.4144     362.5045      2.092     5.13     1197.948     63.91001     286.0625        31     1.610     1.307 -68.89   0
        22    763.9569    980.7336 307.5899970  +6.2664368     782.9033     1099.844     1564.013     90.88715     181.2702     362.6126      1.535     4.17     1195.078     63.91001     120.7938         5     0.744     0.695  -0.47   0
        23    969.7811    977.6695 307.5044562  +6.2745394     699.2408     1450.288     1922.261     90.45469     181.1981     362.5045      2.438     4.64     1192.133     63.91001     101.4417         6     1.029     0.594 -66.05   0
        24    799.3231    975.1661 307.5754693  +6.2699117     6118.512      10638.5     11751.34     90.74322     181.3423     362.5405      1.885     4.09     1194.419     63.91001     771.3585        38     1.627     1.204 -54.30   0
        25    897.0975    971.8464 307.5348970  +6.2745312     1464.066     2182.092     2108.137     90.88715     181.1981     362.7567      1.586     3.80     1193.046     63.91001     247.9504        13     1.175     0.733 -57.47   0
        26    220.0004    970.4917 307.8166771  +6.2525295      1531.56     3180.646     3776.604     90.02016     180.7648     362.2159      2.210     5.62     1197.627     63.91001     184.5824        26     1.450     1.290  83.60   0
        27    723.1954    967.5985 307.6074020  +6.2705052     5857.388     10673.39     11642.85     90.16524     180.8371     362.2881      1.959     4.34     1195.091     63.91001     668.8966        39     1.620     1.257 -57.45   0
        28    438.2198    967.8844 307.7259691  +6.2608937     2742.931     5906.406     6708.876     90.45469     180.9816     362.5045      2.184     5.51     1197.753     63.91001     290.4038        34     1.729     1.272 -55.32   0
        29    579.2350    966.7599 307.6673321  +6.2660591     3186.607     6229.731     7576.157     90.59907     181.1981     362.3602      2.173     5.02     1196.605     63.91001     322.7334        31     1.632     1.207 -42.24   0
        30    756.0533    968.2669 307.5937072  +6.2713221     651.3486     1192.762     2184.713     90.88715     181.2702     362.4684      1.370     3.75     1194.737     63.91001     119.6636         5     1.145     0.353 -14.14   0
        31    715.2754    966.8677 307.6107223  +6.2705435     927.3572     1812.609       2218.5     91.03084     181.4864     362.5766      2.071     6.24     1195.099     63.91001       99.245        12     1.070     1.023  47.06   0
        32    754.8663    962.8212 307.5943852  +6.2735314     1105.472     1823.388     2253.955     90.45469     181.3423     362.5045      1.781     4.11     1194.593     63.91001     155.0176        12     1.023     0.909 -42.61   0
        33    962.5590    957.0454 307.5081573  +6.2828165     6423.591     10438.41     10745.39     90.74322     181.3423     362.3963      1.732     3.83     1191.102     63.91001     849.8944        32     1.548     1.035 -57.90   0
        34    247.2341    957.8462 307.8057756  +6.2586616     932.3703     1546.226     2007.142     90.45469     181.2702     362.5045      1.842     5.72     1197.496     63.91001     113.5813        10     1.139     0.809 -30.62   0
        35    722.3301    955.1742 307.6081823  +6.2756070     2067.729      4042.23     5501.642     90.45469     181.1981     362.5045      2.644     4.89     1194.775     63.91001     273.2733        27     1.548     1.191 -33.45   2
        36    369.2756    952.8513 307.7551659  +6.2648007     1083.812     2140.938     1272.265     90.88715     181.4144     362.5766      2.023     5.71     1198.237     63.91001     163.9518        15     1.198     1.165 -15.42   0
        37    551.4274    942.9354 307.6797099  +6.2749708     2980.912     6148.702     6961.115     90.45469     181.3423     362.4684      2.190     5.18      1195.97     63.91001     339.7777        36     1.740     1.271 -52.96   0
        38    301.7564    941.6999 307.7836384  +6.2671508     10425.53     21864.99     25311.03     90.88715     181.1981     362.8288      2.264     4.94      1197.66     63.91001     1031.589        66     2.015     1.536 -40.71   0
        39    755.8359    942.1686 307.5946801  +6.2820922     6335.595     11483.53     12373.01     90.45469     181.0538     362.2881      1.935     4.40     1193.893     63.91001     729.2562        39     1.627     1.246 -45.60   0
        40    521.5981    943.8239 307.6920917  +6.2736097     739.6002     1397.307     1572.407     90.45469     180.9816     362.3241      1.947     2.37     1196.423     63.91001     126.3478         5     0.709     0.449  68.88   0
        41    817.3932    941.4204 307.5690906  +6.2844476     962.8597      1720.59     2269.536     90.45469     181.0538     362.3602      1.987     5.64       1192.4     63.91001     141.6779        10     1.220     0.735 -80.08   0
        42    272.4802    938.8172 307.7959177  +6.2673630     593.9247     1082.161     1384.353     90.45469     180.9816     362.4684      1.882     4.77     1197.268     63.91001     84.12012         6     1.375     0.469  23.46   0
        43    917.2578    935.4957 307.5277353  +6.2902117     7969.911     13400.18     14515.17     90.74323     181.3423     362.7207      1.824     3.87     1190.215     63.91001     976.4568        38     1.657     1.121 -51.04   0
        44    548.7326    935.1093 307.6810963  +6.2781127     5954.854     12133.08     14265.58     91.03084     181.4864     362.5766      2.215     4.95     1195.652     63.91001     596.7332        45     1.844     1.369 -55.41   0
        45   1012.5635    931.1812 307.4882219  +6.2951564     4790.807     7616.065     8302.062     90.31007      181.126     362.3241      1.716     3.76     1189.697     63.91001     656.7344        35     1.685     1.052 -53.57   0
        46    890.8063    931.7301 307.5388694  +6.2908884     10880.51     18941.74     20293.48     90.31007     180.9094     362.4323      1.849     3.90     1190.516     63.91001     1434.506        44     1.606     1.253 -51.45   0
        47    603.5646    932.9919 307.6583522  +6.2808138     924.4834     1762.735     1999.349     90.31007      181.126     362.3241      1.876     6.24     1194.955     63.91001     121.1663        10     1.428     0.766 -25.30   0
        48    535.1945    930.8188 307.6868749  +6.2794332     2968.377     5937.467     7193.083     90.45469     180.9094     362.3602      2.323     5.28      1195.71     63.91001     313.3197        37     1.678     1.434 -25.54   0
        49    644.5987    930.2416 307.6413706  +6.2833160     975.6142     1682.616      1816.57     90.16524     180.9816     362.2159      1.872     5.11     1194.546     63.91001     126.3359         9     0.993     0.744 -16.82   0
        50    488.4322    927.3396 307.7064508  +6.2793111     1453.195     3150.702     2965.969     90.59907     181.4144     362.5045      2.148     5.79     1196.455     63.91001     170.7111        19     1.345     1.134  27.50   0
        51    922.5680    919.3005 307.5260723  +6.2970759     39208.66     66252.28     70582.11     90.88715     181.1981     362.7567      1.845     3.99     1189.362     63.91001     4916.734        69     1.732     1.282 -58.74   0
        52    459.8221    919.5381 307.7186201  +6.2815785     6192.427     6161.666     5133.948     90.45469     181.3423     362.4684      0.750     1.44     1196.476     63.91001     2181.772         7     0.595     0.451 -42.94   0
        53    230.1878    917.7641 307.8142305  +6.2746431     1250.662     2777.793     3097.683     90.31007      181.126      362.252      2.364     7.45     1196.464     63.91001     165.1942        21     1.349     1.287  73.01   0
        54    820.5391    913.1840 307.5687357  +6.2962125     1988.763     3494.542     4223.813     90.31007     181.2702     362.3602      1.977     4.69     1190.885     63.91001     224.6512        21     1.451     1.053 -46.53   0
        55    768.8183    911.0825 307.5903289  +6.2953608     5321.064      10139.1     11684.48     90.45469     180.9816     362.5405      2.084     4.33     1191.974     63.91001     630.0215        42     1.820     1.254 -53.63   0
        56    239.1519    909.9947 307.8107647  +6.2781510     977.3235     1787.196     1837.255     90.16523      181.126     362.2159      2.032     5.58     1196.456     63.91001     136.2609        10     1.056     0.831 -47.08   0
        57     63.4320    908.3127 307.8839366  +6.2729667      1925.97     3857.513     3974.134     91.03084      181.126     362.5766      2.167     6.09     1194.932     63.91001     205.6093        28     1.547     1.346 -32.90   0
        58    956.8007    906.0598 307.5122739  +6.3036801     6219.157     10661.83     11524.28     90.02016     181.0538     362.2159      1.833     3.95     1188.775     63.91001     807.9174        35     1.551     1.198 -58.33   0
        59    930.1958    898.2545 307.5236086  +6.3060202     1826.572     3386.729     3912.118     90.16523     181.0538     362.2159      1.957     5.00     1188.483     63.91001     230.1162        22     1.543     0.964 -58.78   0
        60    263.7345    894.2303 307.8010716  +6.2854823      2829.98     6154.064      6811.36     90.59907     181.3423     362.5045      2.253     5.73     1196.623     63.91001     316.4275        38     1.783     1.401 -74.51   0
        61    790.0704    894.5743 307.5820435  +6.3028846     1046.781     1914.191     1888.284     90.45469     181.1981     362.5045      1.893     4.75     1190.484     63.91001     147.1067        10     1.088     0.775 -53.44   0
        62    651.4989    893.9684 307.6397272  +6.2985246      3233.11     6569.109     7045.798     90.88715     181.1981     362.7207      2.091     5.14     1192.914     63.91001     326.4917        37     1.636     1.391 -54.10   0
        63     32.9772    891.8206 307.8971699  +6.2787569     1568.218     3230.698     3608.212     90.59907      181.126     362.5045      2.113     5.31     1194.659     63.91001     201.1799        22     1.502     1.114 -44.07   0
        64   1000.3155    892.9837 307.4946071  +6.3105239     735.4705     968.7325      1019.52     90.45469     181.0538     362.4684      1.228     3.96     1188.301     63.91001     130.1189         6     1.064     0.423  78.60   0
        65    882.4260    890.4929 307.5437493  +6.3076390     739.5804     1259.463     905.0132     91.03084     181.0538     362.3963      1.435     4.47     1189.117     63.91001     125.6156         8     1.238     0.460 -80.90   0
        66    576.2125    886.4301 307.6713108  +6.2991301     1068.653     2222.508     1864.376     90.31007     181.0538     362.5045      2.006     7.41     1194.012     63.91001     138.3828        14     1.361     1.129  57.10   0
        67   1007.6130    885.1725 307.4918338  +6.3139917     760.6852     1434.015     1170.724     90.31007      181.126     362.4684      2.060     4.72     1188.009     63.91001      122.718         8     1.111     0.569 -64.00   0
        68    615.8669    882.5884 307.6549398  +6.3020374     906.0276     1816.329     2097.025     90.31007      181.126     362.4323      2.041     7.44     1193.243     63.91001     109.9884        13     1.481     1.047 -54.20   0
        69    295.9688    880.4643 307.7881265  +6.2922439     856.3228     1963.828     2329.218     90.59907     181.4144     362.5045      2.191     7.27     1196.836     63.91001      139.382        11     1.610     0.920   5.39   0
        70    762.0474    874.2800 307.5943908  +6.3103333     426.9439     964.7491     1564.744     90.88715     181.3423     362.5766      2.912     4.65     1189.894     63.91001     101.0592         5     1.197     0.514  58.18   2
        71    899.4906    872.9808 307.5372394  +6.3154375      6108.22     10216.76     10572.64     90.74322     181.0538     362.4323      1.784     3.92     1188.179     63.91001     786.6041        37     1.615     1.146 -53.31   0
        72    435.8002    871.1611 307.7302567  +6.3007540      1173.23     2864.173      3287.44     89.72929      181.126     362.2881      2.474     7.19     1194.517     63.91001     134.9801        15     1.592     0.910   2.39   2
        73    337.3603    868.8986 307.7712959  +6.2984024     6034.366     13417.77     14740.96     90.88715     181.1981     362.8288      2.267     5.39     1195.852     63.91001     622.8538        52     1.906     1.490 -52.46   0
        74    257.4511    867.8323 307.8045832  +6.2961730     4356.025      9742.56     10053.76     90.74323     181.4144     362.5045      2.212     5.28     1196.208     63.91001     426.9482        45     1.772     1.485 -39.06   0
        75    586.2857    861.8238 307.6679526  +6.3096268      808.726     1783.521     2173.939     90.88715     181.0538     362.4323      2.472     6.75     1193.088     63.91001     112.9342        10     1.330     0.960 -25.51   0
        76    915.5165    858.2110 307.5310691  +6.3220689     961.8297     1610.299     1978.065     90.45469     181.0538     362.3963      1.652     5.69     1187.115     63.91001     113.5844        12     1.067     0.854 -23.45   0
        77    871.5732    856.6278 307.5494094  +6.3212632     589.3719     857.5112     1232.255     90.31008      181.126     362.3963      1.274     3.66      1187.97     63.91001     102.4081         5     1.357     0.283 -44.82   0
        78    982.5293    854.3505 307.5033121  +6.3258875     669.5464     1376.347     1797.744     90.88715     181.2703     362.6126      1.910     3.99     1186.484     63.91001     114.2433         5     1.122     0.405 -73.81   0
        79    751.7747    851.0007 307.5994529  +6.3196048     1341.296     2550.566      3195.51     90.45469     180.9816     362.3241      2.269     6.35     1188.986     63.91001     172.5127        20     1.527     1.114 -64.30   0
        80    982.7090    847.0477 307.5034837  +6.3289092     1182.208     2142.445     2701.601     90.88715     181.2702     362.7207      2.312     6.90     1185.979     63.91001     161.9806        13     1.698     0.787 -78.94   0
        81      2.6402    848.8278 307.9112572  +6.2954934     796.3499     1271.237     1203.005     90.45469     164.4861      296.322      1.705     6.10     1193.372     63.91001     112.0062         9     1.451     0.720 -35.86  24
        82    670.4188    844.6058 307.6335248  +6.3195386     1626.439     3692.807     4490.232     90.45469     180.9094     362.3602      2.521     6.46     1189.874     63.91001     185.7985        30     1.724     1.315 -64.48   0
        83    538.1861    846.1168 307.6885005  +6.3145101     583.4081     1062.746     1306.736     90.45469     181.0538     362.3602      1.908     5.16     1193.134     63.91001     89.77576         6     1.055     0.712 -84.81   0
        84     67.0334    840.7150 307.8847395  +6.3010003      1998.27     4392.833     5155.048     90.88715     181.1981     362.5405      2.318     6.32     1193.655     63.91001     229.3909        32     1.788     1.295 -60.57   0
        85    210.7674    839.8895 307.8249586  +6.3061509     1458.852     3103.253     3377.291     91.03084      181.126     362.5766      2.201     6.24     1195.194     63.91001     213.6797        22     1.402     1.336 -19.55   0
        86     85.0952    840.5493 307.8772296  +6.3016735     1112.476     2512.444     2712.927     90.74322     181.2702     362.7928      2.497     6.62     1193.896     63.91001     130.9073        15     1.389     0.971 -46.19   0
        87    664.9003    833.8889 307.6361840  +6.3237804     4719.854     10247.14     11553.44     90.88715     181.8462     362.5405      2.248     5.25     1189.321     63.91001     488.4806        46     1.911     1.388 -59.11   0
        88     25.8826    832.1694 307.9021535  +6.3031508     879.2614     1631.635     1878.053     90.74322      181.126     362.5045      1.744     6.53     1192.562     63.91001     113.3384        13     1.482     0.808  78.46   0
        89    902.5428    829.8762 307.5374249  +6.3333390     2427.601     3933.001     4083.255     90.88715     181.2702     362.5045      1.713     4.00     1185.677     63.91001     318.0237        20     1.287     1.018 -78.38   0
        90    348.0253    827.1965 307.7682740  +6.3159789     9521.042     22530.63     26346.13     90.31007     180.9816     362.3963      2.409     5.44     1194.311     63.91001     931.7482        70     1.975     1.684 -55.50   0
        91     39.2828    830.4934 307.8966347  +6.3042918     613.4934         1266     1486.431     90.59907     181.7743     362.7207      2.249     6.16     1192.682     63.91001     83.23926         8     1.401     0.761 -41.99   0
        92    219.4812    827.1953 307.8217642  +6.3116841     793.3625     1624.081     1814.387     90.45469     180.8371     362.2881      1.999     6.48     1195.031     63.91001     100.2507         9     1.279     0.922 -26.85   0
        93    111.5370    817.4608 307.8670128  +6.3120926     1143.527     2403.507     2741.302     90.88715     181.3423     362.6126      2.267     6.87     1193.759     63.91001     149.9224        18     1.420     1.320  45.79   0
        94    426.0123    818.1603 307.7361278  +6.3223136     604.4992     1466.061     1578.009     90.31007      181.126     362.3241      2.152     6.38     1192.804     63.91001     116.0558         8     2.061     0.554 -26.17   0
        95    892.7573    811.5184 307.5421172  +6.3405949      1588.35     2950.308      2669.88     90.88715     181.3423     362.5405      1.903     6.06     1184.804     63.91001     193.2421        19     1.434     0.969 -56.42   0
        96    863.5088    811.0829 307.5543040  +6.3398032     1733.289     3371.802      3211.07     90.59907     181.6304     362.6487      1.997     5.42       1185.4     63.91001     216.7786        24     1.555     1.122 -72.07   0
        97    826.9784    810.6492 307.5695211  +6.3387684     2209.762     4246.885     5183.576     90.31007     181.4144     362.4323      2.084     5.18      1186.24     63.91001     254.6511        28     1.581     1.208 -49.03   0
        98     95.0483    811.0337 307.8740927  +6.3141946      1533.26     3365.439     3658.652     90.59907     181.3423     362.5045      2.230     6.58     1193.191     63.91001      199.203        26     1.486     1.363 -74.23   0
        99    563.0274    802.2170 307.6796507  +6.3334662     201604.7     463930.7     519657.2     90.45469     181.0538     362.4684      2.312     5.30     1190.011     63.91001     20173.63       170     2.075     1.760 -53.11   0
       100    407.3748    804.9321 307.7443325  +6.3271541     4494.103     10717.11     12184.45     90.45469     181.1981     362.4684      2.397     5.63     1192.584     63.91001     458.4457        54     1.925     1.616 -51.81   0
       101    350.6266    803.3734 307.7680004  +6.3259033     7194.803     17460.28     20324.59     90.31008      181.126     362.4323      2.449     5.64     1193.506     63.91001     683.8846        61     1.982     1.673 -46.19   0
       102    650.6431    804.9153 307.6430980  +6.3352703     710.4999     1390.881     1016.754     90.88715     181.1981     362.5405      2.004     6.39      1187.67     63.91001     121.4451         9     1.483     0.773 -41.67   0
       103    668.8400    799.4766 307.6357094  +6.3381221      2324.45     4922.305     5234.627     90.74323     181.3423     362.6487      2.109     5.60     1187.191     63.91001     228.1545        33     1.705     1.302 -58.36   0
       104    901.2043    798.1616 307.5390529  +6.3463912     3936.969     7486.236     8745.768     89.87485     181.0538     362.2881      2.044     4.39      1183.82     63.91001     509.9388        33     1.595     1.244 -63.36   0
       105    643.7764    793.3848 307.6463460  +6.3398032     1970.747     4451.853     4825.501     90.59907      181.126     362.4684      2.220     6.83     1187.046     63.91001     211.7671        28     1.550     1.287 -39.24   0
       106    832.1536    792.3680 307.5679852  +6.3464896     1154.692     2411.445     2615.791     90.59907     181.3423     362.4684      2.161     7.46     1185.087     63.91001     149.3706        17     1.578     0.989 -74.14   0
       107    635.8164    788.9467 307.6498088  +6.3413708     1385.284     3485.462     5600.378     90.31007     181.4144      362.252      3.211     9.92     1186.906     63.91001     163.4935        33     2.224     1.292 -67.36   0
       108    920.2061    786.0916 307.5315526  +6.3520065     2525.799     4749.739     5287.581     90.45469     180.9816     362.3602      2.030     4.78     1182.943     63.91001     319.1665        28     1.524     1.160 -55.07   0
       109    239.9804    785.4293 307.8146538  +6.3296161     861.0329     2744.583     6750.308     90.45469      181.126     362.4323      5.398     6.93     1194.483     63.91001     110.3325        10     1.435     0.938   4.66   2
       110    378.6006    782.3450 307.7570733  +6.3355208     1503.328      3536.89     4356.231     90.02016     180.9816     362.1437      2.540     8.46     1192.626     63.91001     198.2933        26     1.689     1.184 -40.61   0
       111    516.3871    772.1982 307.7000776  +6.3443077     1236.316      2119.27     3042.662     90.45469     180.9816     362.3241      2.299     6.83     1189.542     63.91001     162.2548        17     1.680     1.014 -73.05   3
       112    513.3602    772.3091 307.7013335  +6.3441610     1464.463     2806.062      3626.22     90.88715     181.2702     362.6126      2.269     6.83     1189.609     63.91001     174.4524        15     1.656     0.789 -78.72   3
       113    561.3864    767.9771 307.6814938  +6.3475507     3529.032     8500.013     10634.92     90.59907      181.126     362.4684      2.601     5.70     1188.009     63.91001     355.8398        46     1.801     1.568 -49.01   0
       114    858.6911    770.5756 307.5576775  +6.3563707     665.3379     1270.975     1922.124     91.03084      181.126     362.3963      1.960     3.50     1183.206     63.91001     106.2921         5     0.783     0.450  18.54   0
       115    121.2037    768.7499 307.8646480  +6.3325304     635.4691      1410.24     1387.907     90.16523     181.0538     362.1076      1.995     4.02     1192.289     63.91001     106.0619         5     0.934     0.494  -2.61   2
       116    479.6347    766.8350 307.7155542  +6.3452969     864.1198     2023.121     1997.299     90.59907     181.0538     362.2881      2.243     7.90     1190.036     63.91001     115.5021        13     1.657     1.054 -14.76   0
       117    897.1713    765.7183 307.5418271  +6.3596548     944.0145      1952.16     1793.535     90.74322      181.126     362.5045      2.110     7.09     1182.443     63.91001     124.5729        12     1.209     1.164  38.29   0
       118    532.2023    761.8988 307.6938451  +6.3490880        11199     26651.82     29969.08     90.31007     181.0538     362.2159      2.349     5.51     1188.523     63.91001     1075.268        64     1.943     1.620 -53.50   0
       119    123.1321    764.8026 307.8639799  +6.3342249     534.5215     1084.006      1368.88     90.16523     180.9094     362.3602      2.154     4.45     1192.184     63.91001     88.14355         5     0.793     0.711  49.95   0
       120    945.6243    759.8760 307.5218593  +6.3636763     3002.233     5389.786      5387.46     90.45469     181.2702     362.5405      1.896     4.41     1181.433     63.91001     409.3322        29     1.525     1.155 -55.40   0
       121    324.6314    750.8362 307.7806024  +6.3467297     1632.019     4413.568     4917.859     90.45469     181.0538     362.2881      2.513     7.83      1193.02     63.91001     195.2462        34     1.775     1.575 -55.83   0
       122     42.6930    752.5266 307.8978711  +6.3366007     1042.277     2205.542     2687.506     90.74323     181.4864     362.6126      2.323     7.33     1190.404     63.91001     132.1396        17     1.383     1.280  57.83   0
       123     25.1740    748.9395 307.9052835  +6.3374949     1252.221     2942.764     2935.277     90.45469     181.3423     362.4323      2.197     5.53     1190.225     63.91001     198.0942        20     1.609     1.196 -48.10   0
       124    790.2196    746.3435 307.5869927  +6.3641015      37004.7     77539.98     85415.02     90.31008     181.2702     362.3602      2.181     4.93      1182.69     63.91001     3848.929        85     1.946     1.540 -54.18   0
       125    247.7593    744.3947 307.8128116  +6.3468208     3111.841     7931.476      10009.2     90.02016     180.9816     362.2881      2.890     6.35     1193.553     63.91001     351.1649        50     1.928     1.648 -60.33   1
       126    915.4241    741.4920 307.5350488  +6.3702653     6799.559     12385.44     13616.22     91.03084      181.126     362.3963      1.963     4.41     1181.243     63.91001     730.9451        40     1.601     1.320 -53.98   0
       127    718.4624    740.8939 307.6170408  +6.3639652     13797.48     30329.58     33821.61     90.88715     181.3423     362.6487      2.293     5.24     1183.474     63.91001     1419.561        60     1.955     1.493 -53.04   3
       128    712.1786    737.4865 307.6197713  +6.3651632     55507.16     122232.1     136844.9     90.88715     181.0538     362.4323      2.257     5.20     1183.302     63.91001      5678.55       100     2.004     1.657 -51.01   3
       129    357.1818    738.5478 307.7674737  +6.3528912     10896.17     27710.85     31185.96     90.31007     181.4144     362.2881      2.418     5.75     1192.134     63.91001     1099.709        68     1.996     1.712 -54.86   0
       130    419.0444    736.4124 307.7418014  +6.3558382     11622.81     29762.41     33605.51     90.31007      181.126     362.2881      2.451     5.80      1191.36     63.91001     1086.587        72     2.032     1.714 -55.01   0
       131    247.0892    723.0459 307.8138161  +6.3556141     773787.9      2482874      2994320     90.88715     181.1981     362.7207      2.808     5.64     1192.599     63.91001     62485.09       492     2.514     2.191 -65.84   4
       132    956.1267    734.5746 307.5183424  +6.3744732      1546.13     2923.234     3490.275     90.45469     181.1981     362.5045      2.249     5.14     1180.033     63.91001     200.6991        20     1.511     0.960 -59.30   0
       133    912.3293    732.9905 307.5366239  +6.3736733     5071.527     9864.961     10391.87     90.31007     180.9094     362.3963      2.027     4.81     1180.853     63.91001     589.5297        41     1.722     1.289 -54.86   0
       134    653.0228    732.2888 307.6445665  +6.3653405     3947.599     8704.331     9798.033     90.88715      181.126     362.4323      2.258     5.39     1183.822     63.91001     413.0459        44     1.786     1.474 -58.12   0
       135    166.8470    729.9960 307.8469727  +6.3500605     635.6157     1342.614     1001.248     90.16523     181.0538     362.2159      1.906     3.76     1192.001     63.91001      97.8717         5     1.215     0.334 -24.25   0
       136    688.3561    722.0135 307.6302094  +6.3707599     1493.904     3429.666     3805.261     90.16523      181.126     362.2881      2.252     7.15      1182.67     63.91001     188.5048        25     1.594     1.258 -27.04   0
       137    421.9712    719.0591 307.7411723  +6.3631017     28167.87     72018.91     82543.41     90.45469     181.4144     362.4684      2.468     5.86     1190.109     63.91001      2663.47        87     2.077     1.763 -49.97   0
       138    539.7166    718.0444 307.6922044  +6.3674480     3814.362     9475.457     10485.19     90.88715     181.3423     362.5766      2.421     5.87     1185.599     63.91001     359.6149        47     1.810     1.613 -47.15   0
       139    456.3982    716.6794 307.7269256  +6.3652332     2325.819      6091.61     7853.956     90.16524     180.6925     362.3241      2.726     7.15     1188.353     63.91001     250.4109        42     1.834     1.661 -74.01   0
       140    784.8288    714.4100 307.5903161  +6.3771093     7448.938     16006.91     17932.72     90.31007      181.126     362.3963      2.228     5.14     1180.955     63.91001     759.8062        54     1.949     1.416 -48.13   0
       141     15.5469    711.7557 307.9105565  +6.3525266     705.0496     1246.745     465.2964     90.88715     181.3423     362.5766      1.826     5.12     1189.075     63.91001     88.17236         6     1.120     0.661 -69.20   0
       142    453.2009    709.7709 307.7284906  +6.3679793     1137.945     2546.523     2951.662     90.31007      181.126     362.3602      2.376     6.68     1188.104     63.91001     152.0269        16     1.438     1.026  13.19   0
       143    142.7367    706.8505 307.8577937  +6.3588113     6132.769     15897.27     19256.74     90.88715     181.2702     362.6126      2.586     5.94      1190.03     63.91001     684.3529        65     2.056     1.761 -50.42   3
       144    150.7215    706.9051 307.8544690  +6.3590560     1550.744     4235.933     5346.838     90.59907     181.6304     362.6126      2.606     7.83     1190.232     63.91001     166.2568        34     1.738     1.533  77.23   3
       145    135.1986    703.9921 307.8610280  +6.3597393     1595.836     4509.854     6271.975     90.16523     180.9816     362.3602      3.020     8.00     1189.666     63.91001     184.8394        40     2.006     1.561 -71.50   3
       146    135.3418    697.6254 307.8611851  +6.3623732     1029.379     2703.912     3401.639     90.45469     181.3423     362.3963      2.958     9.07     1189.345     63.91001     171.3224        19     1.772     1.296 -25.62   3
       147    806.0532    708.7905 307.5816727  +6.3801355     678.4493     1488.962     1170.056     90.16523     181.2702      362.252      1.808     7.08     1180.445     63.91001     94.33081         8     1.699     0.826  80.57   0
       148    974.5353    707.4373 307.5115969  +6.3862908     703.0087     1335.016     680.3317     90.74323     181.2703     362.6487      1.709     4.01     1177.474     63.91001     100.9279         5     1.076     0.427 -14.81   0
       149    930.3060    702.9225 307.5301575  +6.3866869     4714.109     9189.091     9840.448     90.59907     181.5584     362.6487      2.016     4.59     1178.906     63.91001     518.4932        37     1.646     1.269 -63.41   0
       150    979.6005    702.8414 307.5096439  +6.3883568      1135.66     1891.909     2391.522     90.16523     180.9816     362.1798      1.831     5.89      1177.01     63.91001     139.3628        16     1.319     1.035 -80.20   0
       151    686.0776    702.9224 307.6318038  +6.3785678     638.9064     1200.807     1654.799     91.17431     181.6304     362.6847      2.013     3.72     1181.494     63.91001      121.532         5     1.051     0.379 -55.63   3
       152    684.6904    700.6260 307.6324589  +6.3794698     876.8494      1980.03     2044.723     91.03084     181.0538     362.3963      2.248     5.21     1181.378     63.91001     115.9611         9     1.242     0.696 -59.88   2
       153    572.7780    699.7270 307.6790658  +6.3761139     1274.971     3328.763     3673.763     90.45469      181.126     362.5045      2.563     7.69     1183.969     63.91001     181.6039        27     1.685     1.419  13.36   0
       154    924.5103    694.9899 307.5328376  +6.3897703     2098.596     4113.304     4205.225     90.59907     180.9816     362.3602      2.057     5.21     1178.486     63.91001     253.0825        27     1.587     1.201 -61.18   0
       155    984.6561    694.3378 307.5078267  +6.3920361     1519.047     2924.387     3319.317     91.03084     181.3423     362.6126      2.065     4.99     1176.188     63.91001     207.5522        22     1.458     1.113 -52.10   0
       156    953.9360    694.2781 307.5206146  +6.3910411     2251.899     4198.545     2546.256     91.17431     181.4144     362.5766      1.925     5.31     1177.404     63.91001     268.8611        27     1.578     1.146 -44.04   0
       157    676.9049    694.0519 307.6359217  +6.3819255     1006.275      2161.66     2316.819     90.74322     181.2702     362.8648      2.298     6.30      1181.02     63.91001     124.2826        13     1.272     0.995  11.29   0
       158    824.7937    693.3758 307.5743941  +6.3871240     609.8847     1440.053     1598.436     90.31008      181.126     362.4323      2.332     4.55     1179.443     63.91001      86.4071         5     1.353     0.435 -33.31   0
       159    249.6439    690.0078 307.8138761  +6.3693421     983.2858      2691.38     3344.735     90.31007      181.126      362.252      2.802     9.58     1190.746     63.91001     127.2281        23     1.753     1.483 -69.92   0
       160    942.4632    684.5331 307.5257186  +6.3946845     834.1693     1501.453     1066.323     90.88715     181.3423     362.5766      1.981     5.63     1177.299     63.91001     108.9243         8     1.179     0.759 -20.09   0
       161    968.7209    682.4479 307.5148604  +6.3964172     1859.917     3448.558     3910.559     90.88715     181.4144     362.5045      1.950     4.41     1176.001     63.91001     291.0485        21     1.346     1.109 -51.41   0
       162    916.1920    683.1680 307.5366989  +6.3943760     733.4235     1060.432     674.3148     90.31007     181.1981     362.3602      1.501     4.62     1177.856     63.91001     124.1045         6     1.160     0.523 -21.31   0
       163   1010.6239    675.6210 307.4976504  +6.4006269     1401.497     2669.475     2506.405     90.45469      181.126     362.5405      1.977     7.14     1173.839     63.91001     176.0374        19     1.558     0.952 -35.72   0
       164    811.6238    673.0703 307.5805619  +6.3950714      677.166     1711.546     1793.887     90.45469     181.1981     362.5045      2.550     4.29     1178.626     63.91001     119.1609         4     1.118     0.470 -78.17   2
       165    897.9636    671.4254 307.5446823  +6.3986197     1025.684     2056.692     2127.284     90.45469      181.126     362.3241      1.931     6.44     1177.414     63.91001     132.9982        15     1.389     1.069 -38.20   0
       166    872.1902    667.0261 307.5555580  +6.3995802     849.1074     1387.196     1779.558     90.45469      181.126     362.4323      1.780     5.25     1177.564     63.91001     96.43152        10     1.007     0.774  27.23   0
       167     54.6963    661.3957 307.8959800  +6.3746332     1363.897     3291.437     4200.517     90.59907     180.9816      362.252      2.692     7.59     1186.864     63.91001     158.9509        24     1.501     1.429  58.89   2
       168    855.2803    662.4437 307.5627510  +6.4009107     961.2844     1867.541      1709.56     90.88715     181.3423     362.5405      2.035     6.30     1177.555     63.91001     137.1672        11     1.281     1.179 -51.95   0
       169    118.5398    662.1998 307.8693832  +6.3764390     657.2563     1585.258     1946.141     90.02016     181.0538     362.1798      2.508     4.66     1187.266     63.91001     86.09534         7     1.001     0.616  33.57   2
       170    666.9621    650.4163 307.6415372  +6.3996137     3512.496     8092.591     8999.809     90.45469      181.126     362.2881      2.313     5.87     1179.071     63.91001     349.8412        39     1.735     1.428 -47.72   0
       171    131.5267    646.9570 307.8644973  +6.3831680     1865.314     3793.616     4371.003     90.74322     181.4144     362.6126      2.140     7.10     1186.721     63.91001     207.3232        24     1.834     1.063 -86.32   3
       172    128.6892    646.9667 307.8656778  +6.3830690     1145.885     2142.806     2555.679     91.03084     181.1981     362.5766      1.995     5.62      1186.69     63.91001     169.5909        12     1.826     0.488 -87.43   3
       173    640.9630    646.2106 307.6525005  +6.4004847     1197.453     2709.749     2531.654     90.31007      181.126     362.2159      2.215     7.83      1179.62     63.91001     137.4716        20     1.415     1.212 -51.50   0
       174   1003.8840    645.3644 307.5014766  +6.4128979     1942.319     3594.451     4486.334     90.88715     181.3423     362.5405      2.129     6.14     1173.489     63.91001      250.543        23     1.484     1.120 -46.98   0
       175    783.7744    642.4601 307.5931881  +6.4067859     12367.08     27709.83     30209.81     90.45469     181.3423     362.4323      2.267     5.23     1177.892     63.91001      1350.21        65     1.951     1.545 -49.46   0
       176    913.9356    642.1381 307.5390238  +6.4112445     2621.164     5297.358     5518.732     90.88715     181.3423     362.6126      2.142     5.00     1175.911     63.91001          319        32     1.615     1.295 -52.11   0
       177    482.1718    642.4912 307.7187157  +6.3967284     800.0114     1669.162     2373.132     91.03084     181.0538     362.4323      2.507     4.76     1183.279     63.91001       100.78         7     1.057     0.607 -50.84   0
       178    257.4359    636.4876 307.8124527  +6.3917030     3058.969     8118.373     8996.626     90.88715     181.1981     362.5766      2.521     6.42     1186.835     63.91001      318.071        51     1.941     1.689 -57.40   0
       179    664.2547    635.3608 307.6431738  +6.4057407      3805.55     9340.583     10593.69     90.88715     181.4144     362.5766      2.437     5.97      1178.55     63.91001     379.4917        52     1.962     1.593 -42.92   0
       180    924.6508    628.3798 307.5350286  +6.4172818     881.4785     1686.735     1173.079     90.31008     181.4144     362.3963      1.981     5.66     1175.209     63.91001     113.4611        10     1.275     0.708 -13.60   0
       181    735.8464    623.6710 307.6137720  +6.4129507     2138.796     5273.562     6200.625     90.88715     181.3423     362.5766      2.445     6.73     1177.804     63.91001     209.5432        38     1.795     1.503 -72.02   0
       182    691.3978    624.1793 307.6322550  +6.4112617     802.5214     1507.773     1775.772     90.45469     180.9816     362.2881      1.980     5.95     1177.919     63.91001     97.63208         9     1.186     0.839 -42.77   0
       183     20.9123    620.3630 307.9114376  +6.3904449     919.7899     2789.617     3789.348     90.88715     181.1981     362.5766      3.271     8.57     1184.654     63.91001     157.0234        16     2.246     0.914  82.41   2
       184   1002.3338    620.2719 307.5029686  +6.4232086     7018.838     13049.04     13875.38     90.88715     181.4144     362.6487      1.976     4.34     1173.157     63.91001     794.9747        42     1.660     1.303 -61.25   0
       185    940.8702    620.6718 307.5285380  +6.4210034     1505.069     3102.915      3425.85     91.03084     181.4864     362.5045      2.278     5.27     1174.602     63.91001     204.7391        23     1.499     1.146 -56.25   0
       186     79.8662    615.5583 307.8870661  +6.3944038     13203.62     34529.94     40153.31     90.88715     181.2702     362.6487      2.528     6.02     1184.935     63.91001     1511.457        80     2.113     1.799 -64.59   0
       187    541.2604    616.2745 307.6950118  +6.4095247     993.7337     2864.621     2955.486     91.17431     181.3423     362.5766      2.513     9.60     1179.769     63.91001     129.4884        24     1.657     1.552 -77.41   0
       188    930.7809    612.5956 307.5330101  +6.4240035     855.8312     1544.227     1459.925     90.45469     180.9094     362.3602      1.946     6.97     1174.505     63.91001     131.2273        13     1.466     1.168 -71.67   0
       189    725.6775    607.2697 307.6185595  +6.4193853     1941.174     4269.291     4361.993     91.17431     181.6304     362.5405      2.205     7.32     1177.245     63.91001      199.306        30     1.795     1.239 -42.76   0
       190    747.7003    605.6765 307.6094470  +6.4207759     2381.435     5538.022     5748.179     90.31008     181.4864     362.6126      2.237     5.98     1177.042     63.91001     235.0275        37     1.656     1.511 -45.94   0
       191    579.3596    603.4791 307.6795882  +6.4160783     1482.996     3961.492     3937.924     90.74323     181.3423     362.5405      2.459     9.78     1178.319     63.91001      224.606        35     1.970     1.544 -47.09   0
       192    416.2156    605.5068 307.7474217  +6.4098000     727.5735     1536.238     1210.926     90.59907      181.126     362.4323      1.877     6.12      1182.66     63.91001     88.88293         8     1.223     0.860 -10.62   0
       193    238.7394    602.5615 307.8213874  +6.4050871     958.5995     2561.465     3521.854     90.88715     181.4144     362.5766      3.042     8.02     1184.452     63.91001     124.9611        12     1.941     0.927 -75.44   2
       194   1020.4963    601.7083 307.4960352  +6.4314771     3925.484      6799.85     7439.784     90.88715      181.918     325.2159      1.925     4.23     1172.049     63.91001     459.3784        30     1.414     1.225 -51.91  16
       195    985.9626    600.3699 307.5104545  +6.4308840     6070.814     11696.34     12513.25     90.45469     181.0538     362.4323      2.016     4.55     1172.561     63.91001     720.3945        42     1.702     1.293 -51.59   0
       196    322.5610    602.7836 307.7864935  +6.4077970     688.0434     1756.551      2104.18     90.45469     181.1981     362.3241      2.671     7.34     1183.082     63.91001     104.9083         9     1.481     1.019  14.77   0
       197    144.6645    594.4599 307.8608163  +6.4052854     11827.67     32051.44     37388.52     90.88715     181.2703     362.6126      2.615     6.23     1184.139     63.91001     1355.082        78     2.087     1.837 -57.51   0
       198     99.1693    597.7492 307.8796389  +6.4024041     624.8956      1160.62     1325.436     90.59907     181.4864     362.5045      1.936     5.31     1184.468     63.91001     110.6801         5     1.178     0.676 -77.55   0
       199    431.8608    594.9967 307.7412668  +6.4146623     1301.226      3529.51     4644.114     90.16523     181.0538      362.252      2.683     9.73     1181.629     63.91001     153.2805        30     1.934     1.367 -36.95   0
       200    812.7604    596.5622 307.5826756  +6.4267033     722.9423     1266.715     2380.623     90.59907     181.2702     362.4323      1.889     4.28     1175.494     63.91001     102.4257         6     1.117     0.467   9.48   0
       201    980.8221    583.4357 307.5131658  +6.4377064     5126.931     10525.98     11780.24     90.31007     181.0538     362.3241      2.165     4.45     1171.294     63.91001     581.4418        47     1.727     1.492 -58.29   0
       202    574.5037    579.0051 307.6824387  +6.4260230     23761.11     63347.98     73327.64     90.59907     180.9816     362.2881      2.546     6.25     1177.544     63.91001     2244.272        93     2.117     1.826 -53.05   0
       203    182.2094    575.8884 307.8458223  +6.4142106     1550.003     4241.859     5599.915     90.45469     180.9816     362.3241      2.983     8.84     1182.899     63.91001     185.7035        35     1.866     1.469 -47.61   0
       204     75.3892    570.2704 307.8904718  +6.4129546      703.649     1804.063     1639.795     90.31008     180.9816     362.3602      2.397     7.77     1183.755     63.91001     119.2903        11     1.790     0.945 -80.90   0
       205    471.8075    562.8809 307.7257301  +6.4292571     28594.54     81937.95      96520.9     90.45469     180.9094     362.3963      2.615     6.66     1178.845     63.91001     2834.006       100     2.177     1.886 -50.88   0
       206     14.7381    564.8414 307.9158992  +6.4131643     776.0403     2003.008     2777.442     90.88715     181.3423     362.6487      2.744     7.43     1183.971     63.91001     99.00159        10     1.457     1.061  10.18   0
       207    147.9347    557.4105 307.8607163  +6.4206937     739.1215     1573.564     2420.462     90.31007      181.126     362.4323      3.063     6.21     1182.045     63.91001     117.0656         8     1.557     0.697 -85.39   0
       208    317.7184    551.8380 307.7902401  +6.4286726     1086.071     2657.672     3708.761     90.88715     181.4144     362.5045      2.641     9.70     1179.162     63.91001     149.9803        21     1.869     1.452 -66.05   0
       209    743.8215    546.2120 307.6130736  +6.4452027     2752.388     6533.658     7566.914     90.45469     181.0538     362.4323      2.274     6.24     1172.424     63.91001     292.3805        40     1.891     1.431 -42.61   0
       210    797.2518    541.4543 307.5909944  +6.4489445     8209.573      18727.8        21233     91.03084     181.2703     362.6126      2.316     5.60     1172.152     63.91001     838.5151        61     1.947     1.566 -58.41   0
       211   1013.7611    541.7817 307.5008609  +6.4560007      669.617     1175.182     1134.523     90.45469      181.126     362.3241      1.434     3.77     1167.242     63.91001      103.183         5     1.204     0.339 -77.07   0
       212    620.0816    542.0000 307.6647218  +6.4428226      866.923     1728.268      2531.66     90.02016     180.7648     362.1798      1.873     4.01     1175.184     63.91001     143.0212         6     0.910     0.505  31.91   3
       213    622.8490    539.4614 307.6636559  +6.4439631     1272.005     2704.609     3157.207     90.88715     181.2702     362.6487      2.482     6.24     1174.822     63.91001     142.5219        14     1.212     1.067  69.50   2
       214    937.7742    535.6002 307.5326996  +6.4560312     760.4199     1553.421     1939.562     90.45469     180.9816     362.3602      1.883     5.17     1168.924     63.91001     89.81396         7     0.970     0.778  48.29   0
       215    873.5199    524.7547 307.5598123  +6.4583757     1698.725     3880.975     3992.501     90.88715     181.3423     362.5766      2.246     6.03     1169.349     63.91001     205.9991        31     1.582     1.416 -19.85   0
       216    831.9778    521.9509 307.5771992  +6.4581529     1486.393     3159.652     3648.969     90.45469     181.4144     362.4684      2.174     6.32     1170.281     63.91001     188.3851        22     1.456     1.220 -27.89   0
       217    812.5690    513.3970 307.5855674  +6.4610400     88538.98     213064.6     241755.4     90.31008      181.126     362.3241      2.397     5.64     1170.394     63.91001     8716.021       160     2.385     1.793 -39.75   0
       218    194.4651    512.0074 307.8428948  +6.4409991     26225.32     75930.53     91054.26     90.31007     181.0538     362.3963      2.694     6.57     1178.474     63.91001     2977.979       108     2.221     1.965 -57.44   0
       219    119.2043    508.5491 307.8743375  +6.4399083     3048.789     7309.596     9194.539     90.16524     181.0538     362.1076      2.519     7.19     1180.371     63.91001     388.1538        41     2.075     1.520 -55.31   2
       220    116.6947    507.6153 307.8754139  +6.4402099     1422.837     2402.484     3632.048     90.59907      181.126     362.3963      1.978     3.99     1180.354     63.91001     247.4429         8     1.071     0.580 -55.49   3
       221    982.6769    505.4126 307.5150277  +6.4699880     660.9199     1386.542     1010.291     90.45469     180.9094     362.3963      1.921     4.60     1166.187     63.91001     101.0356         6     1.287     0.467  88.48   0
       222    849.1418    500.6018 307.5707763  +6.4675395      2606.48       6046.6     7016.981     90.16523     181.0538      362.252      2.350     6.21     1168.636     63.91001     279.3718        37     1.792     1.441 -61.64   0
       223    367.7814    499.0154 307.7711970  +6.4521574     7259.822     21645.23      25341.4     90.59907     181.0538     362.4684      2.674     7.05     1174.586     63.91001     742.6511        72     2.106     1.864 -54.22   0
       224    170.8946    498.2638 307.8531730  +6.4458856     930.2297     2371.626     3242.938     90.74322     181.4864     362.6487      3.200     7.63     1178.669     63.91001     116.5549        15     1.822     0.894 -69.07   0
       225    803.1102    493.9614 307.5901621  +6.4687515     3317.553      7792.09     9333.979     90.88715     181.2702     362.6126      2.454     5.60     1169.759     63.91001     358.6647        44     1.828     1.492 -52.64   0
       226    532.7621    494.1902 307.7026885  +6.4596554     2616.334     6194.508     7792.424     90.02016      181.126      362.252      2.473     7.80     1172.594     63.91001     321.1384        38     2.201     1.344 -72.87   3
       227    536.0000    493.9567 307.7013487  +6.4598597     2184.224     3534.721      4569.82     90.02016     180.9094     362.1076      1.857     5.98     1172.535     63.91001      263.991        18     1.681     0.791 -80.03   3
       228    108.6987    495.3822 307.8791585  +6.4449936     506.1914     859.2761     990.6819     90.88715     181.1981     362.2881      1.692     4.58     1179.761     63.91001     95.07898         6     1.203     0.495 -29.39   0
       229    181.2418    487.2629 307.8492406  +6.4507745     3020.965     8744.563     10826.79     90.88715     181.2702     362.6487      2.749     7.02     1177.492     63.91001     413.2028        54     2.047     1.729 -57.27   0
       230    276.4510    483.6595 307.8097339  +6.4554467     37316.62       111457     134846.8     90.88715     181.2703     362.5766      2.728     6.90     1174.011     63.91001     4023.472       120     2.272     1.985 -55.17   0
       231     53.0250    485.8644 307.9026552  +6.4470590     2476.916     6604.396     7882.832     90.45469     181.3423     362.5045      2.616     6.35     1180.776     63.91001     285.3534        44     1.869     1.589 -58.65   0
       232    579.7219    486.1459 307.6834142  +6.4645426      1202.89     3299.025     3599.982     91.03084     181.3423     362.5766      2.651     8.24     1171.664     63.91001     159.6898        17     1.418     1.337  37.85   2
       233    260.2991    517.4034 307.8153096  +6.4409727     3387.148     9931.721     11908.68     90.59907     181.0538     362.2159      2.708     6.95     1177.245     63.91001     428.0671        57     1.959     1.862 -62.33   0
       234    503.1369    474.3092 307.7156944  +6.4668771     18895.94     54601.64     68419.97     90.88715     181.4864     362.6847      2.789     6.54     1171.463     63.91001     1651.621       108     2.303     2.039 -46.49   0
       235    260.4479    479.1895 307.8165470  +6.4567576     736.5933     1880.177     2601.908     90.31007     181.1981     362.2159      2.953     8.55     1173.717     63.91001     122.9614        11     1.718     1.190  37.63   0
       236    799.4261    475.7512 307.5923115  +6.4761489     8989.363     21612.25      24330.6     90.45469     181.4144     362.4684      2.369     5.78     1168.857     63.91001     870.8154        61     1.959     1.597 -54.22   0
       237    975.5918    476.9230 307.5189389  +6.4815177     1116.562     2225.504     1898.414     90.45469     180.7648     362.3602      2.086     5.37     1164.976     63.91001     143.0221        15     1.345     0.978 -53.88   0
       238    216.0246    471.5403 307.8352978  +6.4584306     879.0714     2233.239     2808.788     90.45469     181.3423     362.4323      2.482     7.97     1174.372     63.91001     114.7311        14     1.829     0.970 -46.48   0
       239    662.7816    469.4131 307.6494067  +6.4742192     1463.874     3900.701     5565.084     90.59907     180.9816     362.4684      3.033     8.75     1169.345     63.91001     161.4766        33     1.730     1.603 -83.28   0
       240    672.8625    468.0522 307.6452565  +6.4751169     855.5682     2118.656     2745.249     90.88715     181.2702     362.5405      2.936     6.94     1169.125     63.91001     112.9919        10     1.245     1.084   1.55   2
       241    401.1568    465.1416 307.7584551  +6.4672597     886.9446     2359.095     2537.406     90.74322     181.2702     362.6847      2.457     9.03     1171.406     63.91001     120.8993        15     1.730     1.316 -78.90   0
       242    333.7279    463.9391 307.7865631  +6.4655042      1610.99     3518.719     4277.891     91.03084     181.3423     362.6487      2.337     8.81     1171.927     63.91001     202.8381        27     2.165     1.020 -43.60   2
       243    331.2899    461.7039 307.7876539  +6.4663457     1303.476     2068.445     2883.565     90.88715     181.8462     362.5766      1.831     6.39      1171.77     63.91001      169.288        14     1.639     0.700 -66.09   3
       244    147.5277    462.0599 307.8641313  +6.4600533     11395.77     33018.28     39573.04     91.03084     181.3423     362.6126      2.714     6.69     1177.231     63.91001     1284.599        80     2.184     1.890 -60.04   0
       245    511.6797    462.7421 307.7125308  +6.4719386     965.6144      2678.88     3771.093     90.88715     181.3423     362.5405      3.065     9.49     1170.205     63.91001     135.9175        18     1.656     1.519   6.15   0
       246    874.2546    462.5880 307.5616075  +6.4840720     746.4246     1498.649     1585.901     90.16524     181.2702     362.2159      2.162     3.56     1166.259     63.91001     140.4199         7     1.021     0.622 -73.50   0
       247    113.0291    460.3484 307.8785490  +6.4596050     1379.682     3569.073     4016.659     90.59907     181.4864     362.4684      2.534     8.14     1177.992     63.91001     184.4554        29     1.794     1.349 -42.85   0
       248    972.7922    456.1163 307.5208069  +6.4900169     3377.465     6849.715     7402.417     90.45469     180.9816     362.3963      2.086     4.81     1163.863     63.91001     394.1222        34     1.630     1.270 -57.59   0
       249    546.7175    447.7420 307.6984546  +6.4793011     754.9717     1765.833     2734.405     91.03084     181.3423     362.6487      2.533     5.03      1168.06     63.91001     96.74023         7     1.376     0.520  44.27   0
       250    444.4678    443.0775 307.7411757  +6.4778166     18202.47     54168.09     65106.18     91.03084     181.4144     362.5405      2.719     6.97     1169.179     63.91001     1819.378        95     2.234     1.907 -50.98   0
       251    654.0000    442.9424 307.6539588  +6.4848578     4643.455     8542.293     10208.23     90.02016     180.9094     362.1798      1.976     5.60     1167.231     63.91001     550.9449        30     1.829     0.954 -76.35   3
       252    651.2164    442.3690 307.6551370  +6.4850019     4965.481      10150.9     12066.93     90.45469     181.0538     362.4684      2.209     6.64     1167.166     63.91001      554.719        33     2.132     0.971 -82.26   3
       253    209.7373    440.7505 307.8389623  +6.4709344     8561.144     25118.62     31029.15     90.88715     181.2702     362.6487      2.756     6.70     1173.598     63.91001     837.9105        82     2.173     1.975 -52.44   0
       254     11.8661    446.4700 307.9211291  +6.4619466     11988.87     32765.35     38718.45     90.88715     181.4144     362.5766      2.601     6.23     1179.509     63.91001     1349.369        82     2.122     1.875 -62.33  16
       255    574.2349    439.2221 307.6872888  +6.4837366     1299.682     3548.611     4468.455     90.31007     181.0538     362.2881      2.767     9.10     1167.174     63.91001     166.0297        33     1.883     1.485 -36.44   0
       256    947.8254    436.3579 307.5318675  +6.4973474     2982.814     6172.476     6082.344     90.45469     181.2702     362.3602      2.101     5.17     1163.583     63.91001     324.7886        33     1.636     1.281 -56.83   0
       257    621.2726    434.8981 307.6678549  +6.4870896     2915.558     8202.962     9400.997     90.59907     181.4864     362.5766      2.550     7.05     1166.709     63.91001     317.5245        49     1.927     1.661 -57.02   0
       258    970.4237    428.8046 307.5227151  +6.5012167      2172.28     4417.761     4644.118     90.45469     181.0538     362.3963      2.122     5.06     1162.416     63.91001       245.12        30     1.596     1.239 -54.85   0
       259    535.1628    426.1135 307.7039979  +6.4878472     2821.264     5887.979     7548.672     90.88715     181.2702     362.5766      2.210     7.66     1166.126     63.91001      294.911        33     2.085     1.071 -66.16   3
       260    532.0000    425.9402 307.7053204  +6.4878133     2556.764     5381.613     6364.196     90.02016     181.0538     362.1798      2.217     6.92     1166.189     63.91001     297.4298        22     1.929     0.810 -76.49   3
       261    379.3198    427.0396 307.7688389  +6.4822643     1012.037     3343.457     3773.326     90.88715     181.4144     362.5045      2.741     8.87     1168.158     63.91001     142.8683        25     1.867     1.819 -70.36   0
       262    889.8769    421.7029 307.5564860  +6.5014745     1907.271     4482.391     5364.611     90.45469     181.5584     362.6487      2.422     6.61     1164.307     63.91001     224.6648        33     1.775     1.367 -49.89   0
       263    895.5675    417.4866 307.5542596  +6.5034047     1022.775     1725.147      2921.62     90.88715      181.126     362.5766      2.732     6.36     1163.953     63.91001     156.4673        11     1.446     0.785  35.99   3
       264    897.5468    415.2369 307.5535116  +6.5043995     1005.938     2064.197      2553.98     90.74323     181.3423     362.6126      2.199     7.17     1163.778     63.91001     116.7194        15     1.573     0.914  24.76   2
       265    936.7281    415.4029 307.5371950  +6.5056323     930.5917     1809.962     1768.141     90.31008     180.9094     362.3963      2.005     7.65     1162.809     63.91001      109.865        12     1.553     1.054 -15.62   0
       266    721.2736    412.1848 307.6269957  +6.4997987     1365.241     4015.001     4456.403     90.31007     181.0538     362.4684      2.568     9.90     1164.727     63.91001     184.2964        33     1.781     1.534 -20.76   0
       267    392.3834    410.7281 307.7639549  +6.4894362     1669.023     4916.032     6018.713     90.31008     181.2702     362.4684      2.671     8.75     1166.731     63.91001     173.8331        42     1.859     1.748 -42.40   0
       268     84.4588    412.9623 307.8920550  +6.4782153     945.2034     1790.451      2256.96     90.88715     181.4144     362.6126      2.299     5.55     1176.984     63.91001     140.6597        10     1.231     0.704 -31.44   2
       269     82.0293    410.4631 307.8931514  +6.4791659     751.9943     1581.929     2230.647     90.59907     181.3423     362.5045      2.756     7.21     1176.894     63.91001     94.49084         9     1.780     0.817 -69.85   2
       270    621.6334    407.1824 307.6686439  +6.4985466     3966.113     7555.911     9412.854     90.45469      181.126     362.3963      2.098     8.56      1164.53     63.91001     446.8754        32     2.233     0.917 -61.18   3
       271    618.5027    407.0021 307.6699532  +6.4985168     3862.518     7663.596     9258.141     90.31007     181.0538     362.2159      2.180     5.93     1164.529     63.91001     436.2855        33     2.252     0.918 -72.79   3
       272    782.6469    403.5009 307.6017405  +6.5054266     8717.312      21669.8      25730.8     90.88715     181.1981     362.7928      2.499     6.16     1164.187     63.91001     879.2136        72     2.184     1.652 -58.08   0
       273    303.6427    404.4985 307.8011064  +6.4890440     940.3439     2321.165     3145.885     90.88715     181.1981     362.8288      2.931     7.94     1167.342     63.91001     104.1807        15     1.641     1.073 -59.69   2
       274    300.0000    404.9811 307.8026064  +6.4887229     709.3087     1482.629      2237.18     90.31007     180.7648     362.1798      2.196     3.78      1167.49     63.91001     118.2748         5     1.111     0.369  81.31   2
       275    385.2967    402.8543 307.7671724  +6.4924509     651.4456     1310.667     2200.647     90.74322     181.3423     362.8288      1.950     4.93     1166.103     63.91001      94.5542         8     1.436     0.479 -14.27   0
       276    810.5316    402.1902 307.5901766  +6.5068951     591.3329     1161.239     1625.216     90.31007      181.126     362.3963      1.917     4.30      1163.96     63.91001     87.31604         5     0.918     0.574  42.82   0
       277    967.5203    398.5112 307.5249468  +6.5136301     1198.612     2212.852     2296.097     90.59908     181.6304     362.6847      1.959     6.24     1160.765     63.91001     146.2904        17     1.504     0.873  89.95   0
       278    120.3179    396.0944 307.8777032  +6.4863814     2101.096     5767.943     7316.207     90.59907     181.7024     362.7207      2.714     7.37      1174.83     63.91001      266.906        42     1.868     1.682 -69.83   0
       279    759.8249    394.5592 307.6115437  +6.5083599      1099.77     2618.215     3370.306     90.45469     181.1981     362.3241      2.642     8.71     1163.851     63.91001     138.4568        13     1.824     1.160 -74.88   2
       280   1021.5240    393.3822 307.5026380  +6.5175404     2798.168      5869.82     6643.055     90.31008     174.2858     309.9049      2.127     5.00     1158.402     63.91001     299.7551        37     1.574     1.481 -47.66  24
       281    279.5188    394.0085 307.8115050  +6.4925693     664.3564     1456.778     2594.965     90.45469     180.9094     362.4323      2.681     3.97     1167.628     63.91001     101.7128         5     1.310     0.345 -41.61   0
       282    356.6279    389.9549 307.7795446  +6.4968200     1409.705     4217.886      5244.08     90.31007     181.4144     362.4684      2.694     9.41     1165.212     63.91001     149.1919        29     1.866     1.323  47.77   2
       283    276.6092    392.4163 307.8127703  +6.4931295     642.1084     1616.961     2170.339     90.59907     181.0538     362.4323      2.752     5.34     1167.695     63.91001     96.33105         6     1.104     0.728  83.19   0
       284    710.7536    388.2611 307.6321850  +6.5093277      834.986     1870.565     2228.641     90.74323     181.1981     362.6126      2.409     5.14     1163.625     63.91001     93.53015         8     1.210     0.616 -82.14   0
       285    721.0649    375.4253 307.6283271  +6.5149714     7415.947     19598.65     23218.32     90.45469     181.3423     362.4684      2.554     6.20     1163.004     63.91001     735.1768        64     2.014     1.723 -48.53   0
       286    823.5871    376.9127 307.5855966  +6.5177675     1114.159     2633.362     3084.047     90.45469      181.126     362.4684      2.429     7.77     1162.486     63.91001     129.0344        20     1.395     1.211 -10.24   0
       287    640.7736    372.5912 307.6618481  +6.5134684     1032.922     2357.439     3537.996     90.45469      181.126     362.4323      2.832     8.49     1162.953     63.91001      122.094        19     2.091     0.962  86.33   2
       288    643.7655    370.7507 307.6606649  +6.5143281     911.4215     1790.718     2666.799     90.74323     181.3423     362.5045      2.648     6.98     1162.865     63.91001     134.6885        12     1.823     0.748  87.40   3
       289    614.5552    366.6316 307.6729647  +6.5150560     7088.589     20445.99     28847.09     90.45469     181.4144     362.3963      3.096     7.56      1162.62     63.91001     713.5865        97     2.604     2.079  31.65   0
       290    946.0703    365.1524 307.5350033  +6.5266935     2466.025     5065.629     6024.116     90.88715     181.2702     362.6126      2.269     5.66     1159.666     63.91001     264.6202        34     1.667     1.387 -51.12   0
       291    385.5161    361.5138 307.7684852  +6.5095293     11925.89     36699.53     44609.42     90.59908     181.5584     362.6126      2.752     7.20     1162.776     63.91001     1228.997        87     2.246     1.929 -44.29   0
       292    901.0062    360.2368 307.5539302  +6.5272267     1023.436     2677.347     3228.043     89.87485     181.0538     362.3241      2.741     5.77     1160.188     63.91001     111.3875        12     1.212     0.774  58.63   2
       293    132.3688    360.8824 307.8738859  +6.5013250     1097.362     2963.878     3946.697     90.74322      181.126     362.5045      2.788     9.05     1173.034     63.91001     120.4562        22     1.607     1.423 -22.09   0
       294    915.0822    355.5961 307.5482270  +6.5296107     2978.249     6617.743     6816.387     90.31007     180.9094      362.252      2.223     5.53     1159.879     63.91001     346.4307        37     1.752     1.368 -42.04   0
       295     66.0994    357.4935 307.9015870  +6.5005047     897.8859     1775.648     2322.348     90.88715      181.918     362.4684      2.362     5.31     1175.794     63.91001     125.4988         9     1.116     0.860 -51.61   0
       296    243.1202    352.2299 307.8280776  +6.5086040     5817.999     17626.11     21651.54     90.74322     181.3423     362.5405      2.755     6.97     1167.306     63.91001     679.1466        72     2.153     1.898 -62.76   0
       297    966.5358    343.2000 307.5272247  +6.5364383     803.5724     1520.842     1119.826     90.02016     180.9094      362.252      1.967     5.22     1157.484     63.91001     140.2438         8     1.517     0.507 -25.51   0
       298    144.3714    341.7466 307.8695411  +6.5096285     2241.032     4580.636     5611.603     90.59907     181.4864     362.4684      2.194     7.82     1171.999     63.91001     276.3279        27     2.110     0.977 -46.12   3
       299    141.9983    339.7506 307.8705970  +6.5103733     1616.642     3619.177     4607.499     90.16523     180.9094     362.1076      2.372     6.49      1172.02     63.91001     197.5964        19     1.808     0.785 -60.79   3
       300    353.9728    341.3677 307.7823007  +6.5167947     637.6355     1496.407     1836.687     90.31007     181.0538     362.3602      2.793     5.23     1162.004     63.91001     117.8647         5     1.039     0.744 -73.22   0
       301    165.4921    337.0056 307.8609105  +6.5122933     1160.021     3411.118     4174.452     90.45469     180.9816     362.2881      2.772     9.62     1170.944     63.91001     139.7814        26     1.910     1.351 -33.89   0
       302    976.0643    330.3863 307.5236906  +6.5420460     642.6251     1318.616     1606.995     90.31007      181.126     362.4323      2.183     5.37     1156.204     63.91001     106.0061         6     1.349     0.603 -81.32   2
       303    389.3412    333.0185 307.7678608  +6.5214238     858.4802     1848.133     2854.646     90.45469     181.1981     362.3241      3.097     5.17     1161.196     63.91001     111.1481         9     1.193     0.633 -44.64   0
       304    386.8253    330.4731 307.7689946  +6.5223908     625.6177     1604.173     2403.059     90.45469     181.1981     362.5045      2.265     4.84     1161.105     63.91001     97.55566         7     1.726     0.385 -67.48   2
       305     39.2295    325.9716 307.9138463  +6.5126205     1617.236     4482.828       5008.9     90.31007     181.0538     362.2881      2.610     8.20     1177.078     63.91001     194.2682        41     1.969     1.586 -54.04   0
       306    441.3096    324.7975 307.7465057  +6.5265536      2653.98     6415.271     7867.497     90.16523     180.9816     362.3241      2.548     7.91     1159.749     63.91001     310.4784        30     2.201     1.036 -79.57   3
       307    444.5822    324.7250 307.7451457  +6.5266928       2771.4      4942.19     5905.978     90.31008     181.0538     362.4684      1.998     5.56     1159.643     63.91001     315.9338        26     1.725     1.029 -77.41   3
       308    774.5844    324.3838 307.6077740  +6.5378296      992.002     2546.408     3561.978     90.59907     180.9816     362.5045      2.532     6.90     1159.835     63.91001      148.942        14     1.905     0.700  86.98   2
       309    783.1439    321.9739 307.6042921  +6.5391095     6760.421      17274.8     20811.31     90.45469     181.4144     362.3602      2.545     6.05      1159.69     63.91001     671.1821        61     1.943     1.714 -54.91   0
       310    489.4078    308.5697 307.7270330  +6.5348597     1155.741     2597.667     2984.318     90.31008      181.126     362.3241      2.561     8.75     1157.106     63.91001     131.2843        23     2.019     1.059  89.85   2
       311    492.5056    308.8897 307.7257325  +6.5348309     1167.577     2063.321     2774.335     90.88715      181.918     362.6487      1.898     5.35      1157.08     63.91001     167.9272        13     1.525     0.689 -85.97   3
       312    464.6754    309.1046 307.7373111  +6.5338136     949.7262     2406.042     2898.004     90.45469     181.5584     362.6487      2.605     7.49     1157.777     63.91001     136.0509        14     2.233     0.703 -48.61   2
       313    848.5429    304.8418 307.5776444  +6.5483587     18987.28     45178.39     51816.86     90.74322     181.3423     362.6126      2.412     5.59     1157.432     63.91001     1801.773        81     2.050     1.703 -66.19   0
       314    620.2142    297.4390 307.6729539  +6.5438172     1276.287     3791.317      4671.15     90.45469      181.126     362.2881      2.755     9.99     1155.833     63.91001       170.46        31     1.855     1.500 -46.15   0
       315    704.9910    290.9520 307.6378791  +6.5493193     37858.76     103614.2     121385.8     90.31007      181.126     362.1798      2.553     6.29     1157.052     63.91001     3639.235       112     2.177     1.865 -52.78   0
       316    566.1547    288.5595 307.6957610  +6.5456822     990.7402     2421.632     3307.581     90.74322     181.3423     362.3963      2.962     8.80     1154.643     63.91001     129.8815        21     2.223     0.972 -85.70   2
       317    569.3561    288.0494 307.6944454  +6.5459996     1077.947     2062.807     2745.575     90.88715     181.2702     362.5766      2.092     6.47     1154.592     63.91001      140.621        12     1.571     0.749  85.29   3
       318     85.5944    290.4374 307.8957565  +6.5288470     708.6279     1450.758     1605.729     89.87485     181.0538     362.2881      1.652     3.43     1173.477     63.91001     83.17957         5     1.082     0.314  68.63   0
       319    106.1908    287.3229 307.8872886  +6.5308230     2723.458     5596.779     7586.251     90.45469     180.7648     362.3602      2.511     6.87     1172.189     63.91001     342.0374        33     2.022     1.185 -68.82   2
       320    103.0000    286.0046 307.8886618  +6.5312605     1722.518       3692.5     5168.654     90.02016     180.7648      362.252      2.482     6.58     1172.322     63.91001      233.104        17     1.971     0.616 -78.91   3
       321    550.8358    284.0035 307.7022930  +6.5470528     3145.783     9421.111     11297.77     89.87485     181.1981     362.3602      2.692     7.27     1154.379     63.91001     330.9741        52     1.973     1.767 -50.60   0
       322    280.0804    282.2556 307.8150713  +6.5387345     1203.247     3105.492     2775.781     91.03084     181.3423     362.6126      2.428     9.09      1162.63     63.91001     138.2688        26     1.734     1.332 -18.61   0
       323    415.2990    279.3501 307.7588773  +6.5444522      10644.8     22264.26     27809.02     90.88715     181.3423     362.7928      2.418     8.74     1158.213     63.91001      1189.63        58     2.450     1.522 -60.11   3
       324    412.3116    278.3485 307.7601550  +6.5447660     9100.553     18230.14     20414.95     90.88715      181.126     362.6847      2.098     6.42     1158.251     63.91001     934.6674        26     1.752     1.014 -57.30   3
       325    491.5733    276.2183 307.7272293  +6.5482911     545.1407     963.5273     1687.505     90.45469      181.126     362.4684      2.162     4.59     1154.346     63.91001     80.51794         5     1.330     0.449 -58.51   0
       326    502.7512    269.6928 307.7227972  +6.5513586     3658.645     10937.49     13534.16     90.74323     181.1981     362.7207      2.829     7.29     1153.907     63.91001     389.7941        55     2.040     1.764 -48.70   0
       327    771.9457    268.5243 307.6107630  +6.5608088      1735.48     4300.948     5700.638     90.74322     181.3423     362.6126      2.671     8.54     1156.292     63.91001     170.4506        34     1.811     1.540  38.31   0
       328    392.7403    253.8709 307.7691343  +6.5542202     3138.895      9599.09     11656.91     91.03084     181.3423     362.6487      2.735     7.71     1157.788     63.91001      399.056        55     2.124     1.755 -49.54   0
       329    247.3112    257.2320 307.8295645  +6.5479717     636.2265     1419.044     2122.146     91.03084      181.126     362.5766      2.337     5.30     1163.689     63.91001     107.8353         6     1.097     0.724  79.50   3
       330    250.3709    254.9235 307.8283692  +6.5490273     763.6039     1516.243     2222.348     90.74322     181.4144     362.6126      2.019     4.24     1163.551     63.91001     129.9211         6     1.424     0.360 -57.96   3
       331    248.6505    252.7111 307.8291607  +6.5498833     1333.234     2208.737     2754.713     90.88715      181.126     362.7207      1.750     2.01     1163.582     63.91001     420.2822         8     0.904     0.660   4.98   3
       332    760.4647    249.4578 307.6161883  +6.5683003     28003.44     71463.93     82069.71     91.03084     181.2703     362.6126      2.501     6.19      1155.27     63.91001     2713.938        92     2.101     1.790 -51.16   0
       333    431.0474    250.0317 307.7533166  +6.5570846     755.2991      2127.29     2666.617     90.59907     181.3423     362.4684      2.890     9.44     1155.761     63.91001     108.0233        13     1.839     1.352  34.95   0
       334    995.1960    246.3052 307.5185648  +6.5774024     1084.135     2415.904     2393.472     90.59907     180.9816     362.3241      2.216     8.00     1150.022     63.91001     121.7922        15     1.606     1.115 -84.84   0
       335    936.1467    245.3530 307.5431823  +6.5758351     1359.229     3112.503     3243.487     90.88715     181.3423     362.6126      2.281     7.24     1152.729     63.91001     167.2689        24     1.672     1.247 -84.89   0
       336    419.3523    245.1156 307.7583525  +6.5587241     970.5062     2449.329     2830.908     90.88715     181.3423     362.6126      2.412     7.86     1156.202     63.91001     129.3124        18     1.825     0.947 -32.52   0
       337    838.8286    238.1307 307.5839450  +6.5755840     672.2789     1054.469     713.8303     90.59907     181.3423     362.5045      1.944     4.68     1154.299     63.91001     104.2875         6     1.070     0.581 -69.68   0
       338    195.7234    236.5804 307.8517438  +6.5547735     1069.713     2618.839     3325.273     90.45469     180.9816     362.5405      2.553     9.29     1166.646     63.91001     112.6809        20     2.026     1.189 -53.08   0
       339    449.4717    238.5615 307.7460355  +6.5624361     661.5164      1404.04     1732.859     90.74323     181.3423     362.6487      2.200     4.68     1154.053     63.91001     86.29419         6     1.230     0.505 -29.22   2
       340    760.3453    234.3060 307.6167509  +6.5745532     2601.807     4492.645     5234.783     90.74323     181.3423     362.8288      1.855     5.54     1154.503     63.91001     292.4829        23     1.745     0.861 -63.54   3
       341    757.2742    233.7655 307.6180479  +6.5746742     2455.902     4754.135     5870.132     90.74323     181.3423     362.5405      2.094     6.52     1154.503     63.91001     311.0756        26     1.995     0.943 -76.76   3
       342    775.3204    232.0640 307.6105919  +6.5759772     1251.131     3513.456      3797.35     91.17431     181.4144     362.5405      2.553     9.49     1154.401     63.91001     138.4106        29     1.728     1.453 -86.58   0
       343    365.4057    226.8697 307.7814318  +6.5644568      944.668      2328.15     2966.633     90.31007     180.9094     362.3963      2.673     7.54     1158.107     63.91001     127.1349        15     1.448     1.099  40.25   0
       344   1013.3960    222.7820 307.5117814  +6.5877203     4101.373     8147.478     8592.306     90.45469     180.8371     362.3602      2.060     4.73     1148.009     63.91001     455.6761        40     1.708     1.374 -58.98  16
       345    492.1736    222.9939 307.7287858  +6.5702895      991.443     2750.142     3408.217     90.31007      181.126     362.3602      2.630     9.80     1151.189     63.91001     117.7338        22     1.749     1.532 -29.95   0
       346    254.3801    218.7093 307.8279321  +6.5641153     2426.835     7250.246      8819.32     90.74323     181.0538     362.3963      2.707     7.54     1163.462     63.91001     290.5562        53     2.145     1.720 -48.33   0
       347    387.8629    209.5865 307.7726694  +6.5723438     774.0174     2113.063     2847.416     90.31007      181.126     362.3963      2.819     5.95     1156.128     63.91001     101.8121         9     1.324     0.752  39.43   0
       348    975.5176    207.5357 307.5280675  +6.5927590     737.2346     1591.997     1390.331     91.03084     181.4864     362.6126      2.088     7.15     1148.611     63.91001     122.9692         8     1.299     1.104  -0.78   0
       349    158.2985    206.9751 307.8683323  +6.5657456     761.0272     1618.742     2117.157     91.03084     181.0538     362.4323      2.262     5.77     1169.107     63.91001     102.7368         8     1.497     0.627 -31.95   2
       350    157.0796    203.9846 307.8689416  +6.5669397     786.9339     1524.166     2161.536     90.45469     181.0538     362.3602      2.170     3.66     1169.153     63.91001     123.9149         5     0.663     0.581   0.69   3
       351    567.8134    202.6415 307.6979842  +6.5812165     928.3572     2467.223     3143.749     90.16523      181.126     362.2881      2.934     9.62     1150.995     63.91001     120.7747        19     1.943     1.327  41.72   2
       352    911.0600    199.6258 307.5551728  +6.5938848     1105.667     2331.994     3062.124     90.45469     181.3423     362.4323      2.327     7.45     1149.901     63.91001     130.8043        16     1.385     1.121 -50.28   0
       353    670.6461    196.7233 307.6553702  +6.5870868     580.2152      1265.72     2406.696     90.74323     181.4144     362.5766      2.986     4.17     1151.737     63.91001     109.0792         5     1.246     0.399 -14.16   2
       354    671.2973    200.1000 307.6549846  +6.5857141     1046.857     2123.321     3375.042     90.88715      181.918     362.3963      2.914     6.78     1151.802     63.91001     145.8618        15     1.297     1.177 -33.30   2
       355    731.4215    198.0951 307.6300194  +6.5885437     2500.077     6472.253     7441.338     90.74322      181.126     362.3963      2.503     7.24     1152.651     63.91001     262.6073        41     1.868     1.566 -60.58   0
       356    925.9027    191.4259 307.5492699  +6.5977640     764.5466     1431.082     1963.559     91.03084     181.0538     362.4684      2.273     4.52     1148.792     63.91001     102.5092         7     0.921     0.630 -80.72   0
       357    233.0033    183.5576 307.8380278  +6.5779154     784.7156     2012.495     2569.526     90.16523     180.9816     362.2159      2.745     6.12     1166.396     63.91001      129.282        10     1.480     0.749  88.68   2
       358    873.5776    182.1504 307.5713701  +6.5998558      1087.75     2540.378     2695.649     90.45469     181.4144     362.4684      2.380     8.73     1148.757     63.91001     124.7778        22     1.737     1.226 -67.18   0
       359    763.7549    180.7093 307.6171456  +6.5967990     794.6634     1412.635     1481.255     90.88715     181.2702     362.7207      2.097     5.45     1151.401     63.91001      100.507         6     1.069     0.783 -45.26   0
       360    464.9472    173.4857 307.7418019  +6.5898247     9615.954     29579.28     36301.12     90.88715     181.2702     362.7567      2.787     7.22     1150.603     63.91001     1012.182        92     2.438     1.912 -46.10   0
       361    789.5699    173.2556 307.6066493  +6.6007358     6415.158     12986.65     15781.32     90.74323     181.4144     362.5045      2.222     6.38     1150.326     63.91001      648.871        42     2.152     1.222 -86.70   3
       362    792.3231    172.3592 307.6055333  +6.6011975     5204.166     8853.501     10950.07     90.74323     181.3423     362.6487      1.917     4.40     1150.207     63.91001     648.4855        21     1.480     0.961 -65.64   3
       363    154.8902    166.9623 307.8711139  +6.5821538     1090.107     2455.912      3804.01     90.88715     181.2702     362.6126      3.131     9.38     1169.206     63.91001     167.4561        19     2.044     1.201  28.64   2
       364    926.6859    163.2523 307.5498960  +6.6094242      909.535     1848.108     2460.289     90.88715     181.2702     362.6847      2.300     7.24      1146.25     63.91001     115.8033        14     1.441     1.019 -86.51   0
       365    587.3293    161.0163 307.6912703  +6.5990557     1744.373      2759.35      3836.84     90.31007     181.2702     362.4323      1.643     5.90     1150.571     63.91001     203.5427        13     1.400     0.700  66.86   3
       366    590.6971    159.9250 307.6899050  +6.5996186      1301.51     2642.491     3842.709     90.45469     181.4864     362.6126      2.373     6.39       1150.6     63.91001      227.978        14     1.765     0.716 -69.17   3
       367    587.9803    158.3230 307.6910905  +6.6001896     1922.833     3591.772     4817.833     90.45469     181.0538     362.5405      2.163     7.78     1150.507     63.91001     209.8928        16     1.624     1.042  36.35   3
       368    550.9306    159.8325 307.7064655  +6.5983310     836.6134     2383.307     2707.044     90.74322     181.3423     362.6126      2.717     9.53     1150.047     63.91001     100.8809        15     1.835     1.381 -46.94   0
       369    895.8378    155.6320 307.5629981  +6.6115462     6863.013        15411     17554.45     90.45469     181.0538     362.3602      2.289     5.36     1146.147     63.91001     666.6815        56     1.910     1.539 -61.90   0
       370    393.9862    159.3995 307.7718251  +6.5932722     648.4371     1807.645     1366.244     90.45469     180.9816     362.3241      2.322     6.01      1153.35     63.91001     100.6056         6     1.243     0.816 -10.27   0
       371    949.4130    155.8898 307.5406817  +6.6132193     1858.449     3721.227     4071.619     90.59907     181.0538     362.4323      2.254     4.99     1145.619     63.91001     220.8927        26     1.604     1.085 -85.83   0
       372    693.8536    154.1390 307.6471501  +6.6054444     1359.082      4007.95     4948.854     90.88715     181.2702     362.5405      2.662     9.61     1150.621     63.91001     164.9673        35     1.838     1.690 -51.88   0
       373     22.1639    152.7245 307.9268571  +6.5835860     11919.06     33605.77     39276.52     90.74322     181.4144     362.6126      2.616     6.51     1176.948     63.91001      1437.31        78     2.158     1.800 -58.44   0
       374    982.4597    153.3551 307.5270072  +6.6153632     6771.153     13786.45     14695.54     90.74323     181.2703     362.6847      2.102     4.94     1145.084     63.91001     672.8921        48     1.741     1.434 -59.84   0
       375    502.8355    147.9926 307.7268922  +6.6016160      811.099     2065.898     2018.741     90.31007      181.126     362.3241      2.283     6.83     1149.786     63.91001     110.7482        13     1.479     0.884  18.12   0
       376    833.9323    145.1136 307.5891301  +6.6138321     1169.787     2646.963     2883.653     91.03084     181.6304     362.6126      2.255     7.06     1147.141     63.91001     144.1814        19     1.409     1.170  74.51   0
       377    886.7397    143.8712 307.5671840  +6.6161004     1271.655     2999.203     3321.348     91.03084     181.3423     362.6487      2.326     8.69     1145.696     63.91001      145.693        23     1.648     1.279 -70.25   0
       378    746.0410    141.6275 307.6258443  +6.6123482     20464.56     53348.83     61488.71     90.45469      181.126     362.3963      2.507     6.05     1149.548     63.91001     1902.943        87     2.087     1.789 -54.52   0
       379    515.3254    146.2945 307.7217495  +6.6027339     856.9639     2012.565     3256.667     90.59907     181.5584     362.5766      2.939     7.75     1149.749     63.91001     138.6893        14     2.313     0.726 -60.40   2
       380    512.6707    144.9255 307.7229013  +6.6032106     977.5561     2119.882     3162.854     91.17431     181.4864     362.5766      2.985     8.10     1149.735     63.91001     134.4087        13     1.868     0.981 -83.20   2
       381    349.1359    141.2486 307.7911156  +6.5992690     3083.463     9386.898     12750.92     90.74322     181.1981     362.6126      2.992     7.99     1159.219     63.91001     302.6396        68     2.403     1.856 -75.06   0
       382    979.6486    140.3114 307.5286184  +6.6206562     2002.544     4006.865     4290.934     90.88715     181.1981     362.6847      2.072     5.37     1144.492     63.91001     214.0365        27     1.571     1.194 -65.13   0
       383    913.8539    138.5455 307.5560741  +6.6192005     4549.676     9968.573     10663.21     91.17431     181.2702     362.5766      2.200     5.33     1145.297     63.91001     496.5837        45     1.777     1.499 -59.12   0
       384    458.7352    138.8250 307.7455652  +6.6039300     2031.738     3996.502     4730.868     90.45469     181.3423     362.5045      2.105     7.18     1150.113     63.91001     223.3297        21     1.817     0.874 -60.65   3
       385    456.0000    138.0335 307.7467309  +6.6041655     1710.473     4134.148     4623.426      89.7293     181.0538      362.252      2.349     7.78     1150.164     63.91001     222.1709        22     1.975     0.858 -72.38   3
       386   1017.2439    138.9656 307.5130095  +6.6224598     1237.425     2493.111     2325.354     90.59907     181.3423     359.3539      2.038     6.27     1143.898     63.91001      150.188        17     1.314     1.116 -70.93  16
       387    115.0805    129.4656 307.8889654  +6.5963039     2110.606     6221.244     7644.277     91.17431     181.4864     362.5405      2.695     7.87     1170.257     63.91001     262.8669        45     2.013     1.605 -52.36   0
       388    285.2488    126.2055 307.8182269  +6.6033451     14021.38     43573.57     53378.44     90.16523      181.126     362.2159      2.767     7.17     1165.433     63.91001     1652.045        92     2.243     1.945 -51.04   0
       389    260.5640    127.3353 307.8284661  +6.6020531     2756.232     8576.139     10133.47     90.74323     181.3423     362.6126      2.726     7.31     1166.605     63.91001     324.6809        55     2.051     1.772 -39.36   0
       390    409.2746    121.5201 307.7667466  +6.6094244     21256.44     64712.77     77928.16     91.17431     181.6304     362.6487      2.736     7.18     1152.103     63.91001     2243.347       103     2.269     1.967 -48.62   0
       391    165.7663    124.0428 307.8680473  +6.6002404     1718.953     4916.761     6234.403     90.59907     181.3423     362.3602      2.800     8.36     1168.939     63.91001     227.3141        36     2.017     1.535 -50.03   2
       392    424.7890    122.9678 307.7602377  +6.6093447     462.6214     1364.638      1986.16     90.31007     181.0538     362.3963      1.822     3.74     1150.763     63.91001     82.85425         5     1.446     0.277  77.83   0
       393    314.4904    119.8919 307.8062666  +6.6069299     7838.477     16992.24     23293.51     90.88715      181.918     362.6847      2.889     7.26     1163.439     63.91001     874.0179        82     2.964     1.810 -29.48   3
       394    311.4132    119.0138 307.8075777  +6.6071896      5944.36     12241.75     14741.79     90.74322     180.9816     362.5045      2.237     6.55     1163.726     63.91001     643.3934        30     2.054     0.928 -72.80   3
       395    748.4700    117.5475 307.6256482  +6.6223726     17086.01     43834.87     50841.05     90.74323     181.1981     362.5045      2.513     5.95     1148.056     63.91001      1561.35        81     2.063     1.787 -57.63   0
       396    696.0040    118.4194 307.6474648  +6.6202661     583.5662     1148.088     969.1404     90.45469     180.8371     362.3602      2.284     4.85     1148.849     63.91001        85.63         5     1.206     0.552  51.08   0
       397     65.3727    115.2272 307.9101461  +6.6005177     4353.603     12142.12     13907.97     90.31008      181.126     362.3602      2.547     6.52      1173.28     63.91001     539.8773        58     2.057     1.688 -56.54   0
       398   1006.4981    111.7976 307.5184015  +6.6333221     952.0016     1823.226     2107.263     90.31007     181.0538     362.2159      2.039     6.59     1142.659     63.91001     128.1289        13     1.372     0.889 -86.72   0
       399    100.9592    112.1268 307.8954355  +6.6029904     923.1802      1407.72     1712.271     90.74322     181.4144     362.6126      1.551     2.67     1170.286     63.91001     344.8204         5     1.098     0.308   6.88   0
       400   1008.1915     97.9941 307.5181625  +6.6390785     1477.767     3137.264     3333.365     90.16523      181.126     362.3963      2.153     6.22     1141.889     63.91001     170.6337        22     1.384     1.296  -1.02   0
       401      2.0627     97.2376 307.9371183  +6.6058235     661.7942     1566.653     2949.922     88.26064     156.3381     286.3625      3.466     6.10     1179.067     63.91001     101.0201         8     1.737     0.602 -65.67  24
       402    284.0813     92.4121 307.8198624  +6.6172604     12872.24     40103.63     49277.39     90.45469     180.9816     362.3963      2.782     7.27     1166.638     63.91001     1506.871        89     2.259     1.934 -52.93   0
       403    599.2901     94.1902 307.6885562  +6.6270494     837.7684     2126.553     2714.953     90.59907     180.9816     362.3602      3.075     8.30     1148.888     63.91001     107.8527        15     1.730     1.114   8.52   0
       404    345.2830     94.3402 307.7943144  +6.6185101     646.5646     1225.042     1717.339     91.03084     181.4144     362.6126      1.617     3.42     1162.469     63.91001     102.9474         5     1.186     0.286 -54.46   0
       405     29.4986     91.3056 307.9258978  +6.6091929     2287.513     6115.991     6975.669     90.88715     181.9899     362.3963      2.624     7.06     1176.518     63.91001     273.1611        46     2.073     1.579 -73.52   0
       406    715.6613     88.8092 307.6402828  +6.6331478     4041.087     10553.34     12684.11     90.16523     181.1981     362.2881      2.526     6.09     1147.004     63.91001     384.7209        52     1.881     1.699 -51.82   0
       407    126.4847     86.0964 307.8856948  +6.6145939     2163.516     6084.983     7455.396     90.88715     181.7743     362.6487      2.711     7.77     1169.465     63.91001     289.3806        41     1.844     1.614 -86.17   0
       408    397.4073     82.0822 307.7730278  +6.6253132     1923.684     5332.215     6643.718     90.45469     180.9094     362.3963      2.793     7.95     1155.347     63.91001      192.704        43     1.909     1.678  28.86   0
       409    361.7675     81.1047 307.7879006  +6.6245263      1496.27     4281.003     4860.978     91.03084     181.1981     362.6487      2.688     7.87     1160.581     63.91001     178.3961        36     1.923     1.518 -68.75   0
       410    117.1773     80.5756 307.8897581  +6.6165619     1038.169     2058.648     2834.794     90.31007     181.1981     362.5405      2.460     6.15      1169.53     63.91001     144.6476        13     1.252     0.848  89.04   0
       411   1007.8491     74.5962 307.5190954  +6.6487292     1228.224      2284.46     2552.431     90.16523      181.126     362.1076      1.854     6.14      1139.64     63.91001     168.9713        17     1.502     0.875 -52.37   0
       412    213.4908     70.1195 307.8500127  +6.6241041     2314.852     7059.184     8483.551     90.59907     181.6304     362.6487      2.757     7.67     1168.852     63.91001     297.1508        51     2.130     1.672 -44.74   0
       413     95.6108     71.3997 307.8990502  +6.6196283     884.8403     1985.144     2121.953     90.45469     180.9816     362.3602      2.188     8.15     1169.714     63.91001     133.0443        15     1.845     1.005  54.91   2
       414     98.2989     68.3143 307.8980361  +6.6209924      588.504     1255.156     1828.812     90.88715     181.8462     362.6487      2.920     4.14     1169.554     63.91001     104.4728         5     0.970     0.503 -57.67   3
       415    673.8497     68.8287 307.6583699  +6.6400063     2633.433     5508.103      6365.45     90.45469     181.4144     362.4684      2.221     6.49     1147.354     63.91001     284.9984        25     1.818     0.972 -88.61   3
       416    676.7859     68.8347 307.6571471  +6.6401016     2280.591     3977.588     5355.957     90.45469     181.0538     362.4323      2.149     6.01     1147.265     63.91001     278.5759        20     1.741     0.857 -73.94   3
       417    627.4361     65.9788 307.6777930  +6.6396370     4640.131     12715.73      15335.4     90.31007     181.0538     362.2881      2.618     6.87     1148.174     63.91001     450.1876        55     1.939     1.743 -39.43   3
       418    630.9081     57.3349 307.6766404  +6.6433220     25736.98     70521.78      83180.2     90.74322     181.5584     362.5766      2.603     6.38     1147.914     63.91001     2481.927        96     2.187     1.864 -53.23   3
       419    352.6010     62.5016 307.7923497  +6.6319018     1304.969     2656.878     3857.437     90.31008     180.9094     362.2159      2.963     8.99      1161.91     63.91001     162.0485        21     2.252     1.002 -86.57   3
       420    356.2736     61.9073 307.7908407  +6.6322699     1626.766      3032.85      4075.83     90.74322     181.4864     362.6126      2.072     6.74     1161.552     63.91001     201.2511        24     1.772     1.076 -69.57   3
       421    537.3005     61.9796 307.7154608  +6.6382835     596.0916     1429.994      1698.34     90.88715     181.1981     362.3241      2.487     6.44      1148.94     63.91001     88.40894         8     1.876     0.621 -34.74   0
       422   1000.0995     60.7248 307.5227910  +6.6542001      750.108     1165.819     798.2644     90.31007     181.4864     362.4684      1.712     6.43      1138.64     63.91001     90.38782        11     1.507     0.770 -25.08   0
       423    310.9568     52.3270 307.8100356  +6.6347112     1612.861     3595.355     4744.385     90.74322     181.4144     362.6126      2.440     8.63     1166.044     63.91001     192.2434        26     2.087     0.997 -51.53   2
       424    308.2943     51.0913 307.8111862  +6.6351324      1260.59     2821.916      3877.98     90.88715      181.918     362.5766      2.458     7.72      1166.37     63.91001     190.6132        15     2.035     0.820 -66.48   3
       425    607.0020   1019.9525 307.6539773  +6.2450183     1840.401     3081.924     2934.401     90.16523     180.9816     332.1747      1.753     4.47     1198.234     63.91001     216.0236        19     1.344     0.971 -69.10  16
       426    682.5064     44.0492 307.6556049  +6.6505270     791.9125     1733.934     2753.386     90.74322     181.1981     362.7207      3.132     5.53     1146.169     63.91001     113.8474         9     1.305     0.661  -9.74   2
       427    695.1472     41.4525 307.6504291  +6.6520203     1541.208     3919.904     4588.534     91.17431     181.1981     362.6126      2.557     9.39     1145.625     63.91001     152.9156        33     1.693     1.507 -42.58   0
       428    437.0174     32.5829 307.7582162  +6.6470758     1840.557     5338.006     6225.774     90.59907     180.9816     362.5045      2.678     7.48     1154.534     63.91001     241.1508        42     1.914     1.667 -42.13   0
       429    909.3500     27.5596 307.5617017  +6.6648819     2542.636      5726.15     6282.285     91.03084     181.3423     362.5045      2.310     5.65     1140.963     63.91001     264.0946        36     1.630     1.491 -83.20   0
       430    891.2221     28.8648 307.5692065  +6.6637405     1436.732     2803.156     3171.151     90.45469     181.3423     362.4323      2.229     5.23     1141.077     63.91001     165.6985        19     1.363     1.130 -40.33   0
       431    602.5795     27.3226 307.6894542  +6.6547711     855.0845     1848.177     1528.757     90.45469     181.0538     362.5405      2.079     5.70     1148.107     63.91001     110.4626         9     1.392     0.658  -6.13   0
       432    401.2149     25.6596 307.7733595  +6.6487390     898.5087     1639.968     2173.121     90.31008     181.2702     362.2881      2.039     6.99     1158.736     63.91001     124.1495        13     1.791     0.765 -38.86   0
       433    148.3350     21.5889 307.8787946  +6.6419623     1622.365      4326.93     4805.388     90.31008      181.126     362.3963      2.573     8.96     1168.958     63.91001     244.7965        33     1.832     1.419 -17.95   0
       434    163.4527   1017.0378 307.8386220  +6.2314182     13125.01     25097.68     26302.38     90.74322     181.4144     360.6609      2.010     4.33     1197.811     63.91001      1546.02        56     1.725     1.439 -67.18  16
       435    906.4153   1017.9528 307.5294633  +6.2558009     740.3826     1160.684     1008.555     90.16523      181.126     354.0776      1.889     5.15     1195.806     63.91001     118.8981         8     1.153     0.651 -86.10  16
       436    477.6214   1015.6474 307.7079553  +6.2424846     2938.821     5633.514     6375.048     90.45469     181.3423     362.3963      2.061     4.76     1198.739     63.91001     324.3197        32     1.582     1.255 -59.32  16
       437    836.8159   1015.0633 307.5585205  +6.2546822     2742.541     4687.871     4583.955     90.31007     181.2702     362.3963      1.794     4.51     1196.682     63.91001      334.485        25     1.496     1.007 -56.33  16
       438    819.5256   1013.2223 307.5657771  +6.2548679     951.5543     1577.233     1709.939     90.45469     181.1981     362.5045      1.855     6.88     1196.455     63.91001     136.0922        11     1.239     1.072 -51.84   0
       439    757.6081   1013.5845 307.5915281  +6.2526600      1357.66     2211.543     2043.272     90.45469     181.0538     362.3963      1.748     4.38     1196.239     63.91001       205.71        17     1.348     0.984 -59.90   0
