#   1 NUMBER                 Running object number                                     
#   2 X_IMAGE                Object position along x                                    [pixel]
#   3 Y_IMAGE                Object position along y                                    [pixel]
#   4 ALPHA_J2000            Right ascension of barycenter (J2000)                      [deg]
#   5 DELTA_J2000            Declination of barycenter (J2000)                          [deg]
#   6 FLUX_APER              Flux vector within fixed circular aperture(s)              [count]
#   9 FLUXERR_APER           RMS error vector for aperture flux(es)                     [count]
#  12 FLUX_RADIUS            Fraction-of-light radii                                    [pixel]
#  13 FWHM_IMAGE             FWHM assuming a gaussian core                              [pixel]
#  14 BACKGROUND             Background at centroid position                            [count]
#  15 THRESHOLD              Detection threshold above background                       [count]
#  16 FLUX_MAX               Peak flux above background                                 [count]
#  17 ISOAREA_IMAGE          Isophotal area above Analysis threshold                    [pixel**2]
#  18 A_IMAGE                Profile RMS along major axis                               [pixel]
#  19 B_IMAGE                Profile RMS along minor axis                               [pixel]
#  20 THETA_IMAGE            Position angle (CCW/x)                                     [deg]
#  21 FLAGS                  Extraction flags                                          
         1    189.6783     18.4758 307.8649869  +6.6679999     10594.71     16698.37     17564.28     79.32701     158.0291      315.557      1.752     4.08     855.8678     55.60547     1284.137        44     1.643     1.085  70.41   0
         2      2.8508     18.5895 307.9425926  +6.6616422     1048.199     1832.921     1871.142     78.44905     145.5122      260.642      1.830     4.24     857.6904     55.60547     160.0229        11     1.331     0.633  89.39  16
         3    935.3574     16.2860 307.5552768  +6.6939712     4036.694     6119.116     6163.067     79.07716      157.653     315.4629      1.620     4.01     837.8439     55.60547     534.3099        23     1.434     0.863  74.29   0
         4    533.8774     16.5156 307.7220635  +6.6804038     2881.313     4462.539     4702.794     79.20218     158.0917      315.557      1.680     4.19      842.532     55.60547     343.8175        21     1.452     0.886  75.73   0
         5    472.2498     15.1067 307.7477134  +6.6789123     1683.224     2485.874      2372.68     78.95193      157.653     315.6197      1.563     4.13     843.6171     55.60547      228.412        16     1.381     0.733  63.90   0
         6    736.2314     14.9978 307.6380478  +6.6878277     1840.322     2915.802     2469.782     78.44905     157.5903     315.2433      1.575     3.86     840.0983     55.60547     326.7839        16     1.327     0.716  72.13   0
         7   1000.0894     12.2924 307.5285171  +6.6977863     1883.542     2958.352     3028.892     79.07716     158.2794     315.5256      1.744     4.68     831.2909     55.60547      246.816        20     1.526     0.874  85.26   0
         8    719.4373      8.9314 307.6452288  +6.6897677     7214.645     11220.87     11602.24     78.95193     157.7785      315.557      1.662     4.17      840.371     55.60547     953.9708        34     1.526     1.001  74.54  16
         9    639.6223      8.2582 307.6784105  +6.6873656     3552.182     5482.554     5510.281      78.7009     157.7785      314.835      1.665     4.17     841.7927     55.60547     459.5322        26     1.564     0.894  72.31  16
        10    341.5813      7.7423 307.8022455  +6.6775517     927.3323     1245.039     1385.355      78.7009     157.7158     312.5324      1.578     5.70     853.0441     55.60547     116.7809        12     1.172     0.780  79.48  16
        11    439.8328      4.3876 307.7615418  +6.6822450     6021.869     9666.037     9960.988     78.57507     157.3389     281.5197      1.711     4.23     846.5074     55.60547     750.2873        33     1.573     0.977  80.11  24
        12    395.7836      6.5260 307.7797693  +6.6798795     707.2709      957.793     754.5867     78.57507     157.5275      303.897      1.343     4.20     850.0083     55.60547     115.9237         6     1.052     0.478  60.89  16
        13     40.7726      4.0161 307.9273330  +6.6689383       8137.6     13175.24     13811.49      78.7009     155.6953     276.7701      1.687     4.03     856.0418     55.60547     1024.913        38     1.612     1.034  77.10  24
        14    687.0088      3.2699 307.6588917  +6.6910157     742.9666     989.3289     911.5914     78.57507     149.6686     266.7208      1.500     5.11      841.064     55.60547     106.3922         9     1.312     0.562  76.72  24
        15    336.7113      1.4318 307.8044816  +6.6799919     4574.028     5466.316     5953.385     70.19516      126.839     239.2664      1.056     2.35     853.2459     55.60547     1258.118        16     1.118     0.648  -0.07  24
        16    515.5645      1.6696 307.7301715  +6.6859149     779.0363     949.2723      971.509      72.9598     130.6054     242.9596      1.308     3.63     842.2999     55.60547     125.0261         8     0.943     0.797  23.03  24
        17    431.7769      1.4412 307.7649879  +6.6831898     505.3614     544.8182     1244.125     70.05407      126.917     238.9768      1.017     3.32     847.2788     55.60547       105.25         5     0.727     0.471 -16.44  24
        18    110.3807      1.2899 307.8985092  +6.6724151     1034.565     1334.362     1152.247     68.04801     124.5563     236.5214      1.100     2.20     855.8575     55.60547     252.1832         7     0.878     0.451  -4.07  24
        19    895.6458    989.5734 307.5391405  +6.2909500     11277.71     19363.31     20917.42     78.57507     157.8412     315.3688      1.858     4.14      869.717     55.60547      1257.85        51     1.681     1.265  74.45   0
        20    727.6874   1023.5198 307.6077257  +6.2713117      3084.47     3699.148     4196.868     70.61676     127.7716     239.9684      1.108     2.81     875.9573     55.60547     697.4742        12     1.044     0.643  11.79  24
        21    719.8373   1023.6215 307.6109809  +6.2710065     619.3605     716.6142      1024.71     69.05832     125.8208     237.8978      1.184     2.99     875.9613     55.60547     117.3625         5     0.718     0.464  14.92  24
        22    594.7278   1023.9053 307.6629057  +6.2666909     705.3895     1250.171     1905.222     65.37842     121.5816     233.3629      1.720     3.82     877.3904     55.60547     153.8033         7     1.492     0.281  -3.22  24
        23    583.9051   1023.0608 307.6674266  +6.2666760     2880.361     3649.392     3769.142     75.62344     134.4135     247.1586      1.332     3.22     877.6023     55.60547     557.1387        17     1.054     0.982  56.24  24
        24    442.3215   1023.5356 307.7261824  +6.2617220     1671.547     2176.844     2355.586     70.61676     127.4615     239.6383      1.238     2.87     877.7786     55.60547     373.1606        12     1.082     0.641  -0.33  24
        25    608.5814    990.1100 307.6582904  +6.2811038     1334.327     1919.493     1523.294     78.82652     157.5275     315.3688      1.524     4.59     876.1711     55.60547     190.5928        13     1.372     0.619 -85.80   0
        26   1017.3998    989.0311 307.4886143  +6.2952479     4106.273     7394.262     7699.769     78.32283     157.5903     311.8351      1.909     4.31     865.3088     55.60547     458.1212        36     1.593     1.195  74.57  16
        27    539.7932    988.5893 307.6868967  +6.2794210     3910.592      6120.33      6911.44     78.57507     157.5903     315.3688      1.687     3.80     877.3391     55.60547     513.5102        27     1.539     0.928  70.47   0
        28    649.3674    987.9609 307.6414315  +6.2833599     1288.061     2238.776     2100.015      78.7009     157.5903     315.2747      1.831     4.32     875.4475     55.60547     168.8333        15     1.233     0.933  80.07   0
        29    804.9317    986.6390 307.5768971  +6.2891225     648.7349     991.7526     1209.419     78.95193     157.7785     315.5883      1.633     5.52     871.9575     55.60547     99.66864         6     1.067     0.805 -81.84   0
        30    493.1978    985.0859 307.7063570  +6.2793011      2151.11     3353.362     3337.239     78.44905     157.4018     315.1805      1.551     3.88      877.208     55.60547     307.2794        21     1.524     0.884  78.31   0
        31     74.7103    986.6895 307.8800174  +6.2645440     804.2143     1390.024     1478.313     79.07716     158.2794      315.557      1.798     5.37     875.9925     55.60547     115.0101         9     1.078     0.921  29.67   0
        32    927.4337    977.1188 307.5263614  +6.2971544     40302.99     68003.34     73586.65     78.95193     157.7158     315.4943      1.833     3.95     868.6917     55.60547     4837.067        80     1.787     1.306  75.42   0
        33      1.3265    976.8787 307.9108093  +6.2661153     1454.204     1933.771     1977.159      68.9149     125.5059     237.2732      1.345     4.38     876.3258     55.60547     320.8855        12     1.412     0.538  88.36  24
        34    234.7672    975.3675 307.8139609  +6.2746143     1750.612     2856.408     3067.604     78.57507     157.5275     315.2119      1.762     4.71     876.5278     55.60547     229.7079        19     1.446     0.874  79.15   0
        35    122.7345    974.3340 307.8605002  +6.2712635     638.1078     1002.638     924.6014     79.07716     157.7785     315.4943      1.799     5.06     875.5518     55.60547     105.8784         8     1.272     0.569  75.25   0
        36    825.4841    971.1550 307.5688843  +6.2962017     2219.042     3574.702     4077.582     79.07716     157.7785     315.4943      1.729     4.98      871.142     55.60547     251.5707        24     1.690     0.885  79.55   0
        37    633.7938    973.4893 307.6483825  +6.2888098     783.3553     1166.718     905.5464     78.57507     157.4646     315.2433      1.668     5.48     875.3005     55.60547     110.3246        10     1.270     0.668  42.46   0
        38    773.5898    968.8970 307.5905032  +6.2953945     6466.462     10552.49     11722.31     78.82652     157.4018     315.3061      1.812     3.91     872.4802     55.60547      745.448        43     1.701     1.135  86.55   0
        39    560.3807    968.2937 307.6790328  +6.2884889     972.4457     1518.079     1183.363     78.95193     157.5903     315.3374      1.619     5.91        876.4     55.60547     120.8639        12     1.274     0.772  75.00   0
        40    242.7586    967.5676 307.8109067  +6.2781026     1385.465     2252.071     2898.206     78.82652     157.7158     315.3374      1.813     4.80     876.4926     55.60547     192.5255        17     1.424     0.830  88.67   0
        41    207.2114    967.4681 307.8256658  +6.2769457      756.744      1298.98     1189.312     78.57507     157.5903     315.3374      2.059     5.32     876.1347     55.60547     113.2512        11     1.202     0.884  62.65   0
        42     67.8636    965.6625 307.8835696  +6.2729906     2660.372     4164.705      4185.78     79.07716     157.7785     315.4943      1.676     4.03     875.5315     55.60547     336.7743        22     1.515     0.829  73.79   0
        43    961.7794    963.9003 307.5125458  +6.3037593     6173.457     10541.57      11021.1     79.07716     157.5903     315.2433      1.844     3.91     866.8239     55.60547      728.531        38     1.591     1.184  73.64   0
        44    218.3293    959.5904 307.8213164  +6.2805715     528.1024     1101.484     1080.593     78.57507     157.4018     315.3061      1.713     6.26     876.1995     55.60547     99.93622         6     1.676     0.656  81.32   0
        45    644.8773    957.9805 307.6443025  +6.2955825     648.9645     1304.268     1420.082      78.7009     157.5275     315.4315      2.230     5.87     874.7219     55.60547     80.47485         8     1.276     0.760  81.08   0
        46    935.5213    955.6062 307.5237245  +6.3063038     1997.837     3010.826     2696.309      78.7009      157.276     315.2433      1.716     4.40     867.8026     55.60547     245.4219        21     1.522     0.876  69.15   0
        47    795.0468    952.3818 307.5821496  +6.3029298      1287.67     2245.222     2290.144     78.57507     157.7158     315.2433      1.866     4.58     871.5523     55.60547     179.6846        16     1.449     0.737  74.06   0
        48    656.3138    951.5258 307.6397715  +6.2986302     4482.282     6866.099     6859.106     79.20218     158.0917     315.4943      1.648     3.86     874.3837     55.60547     581.0698        29     1.421     1.070  77.46   0
        49    268.3664    951.5251 307.8008176  +6.2855861     4337.309     6866.971     7095.945     78.95193     157.7785     315.4315      1.732     3.94     876.5498     55.60547     547.8185        31     1.624     0.988  74.08   0
        50   1005.5250    950.3988 307.4948370  +6.3107951     682.7399     1140.546     1873.261     78.32283     157.2131     315.3374      1.825     5.34     864.2942     55.60547     112.7474         8     1.160     0.834 -76.78   0
        51    904.8939    951.3552 307.5365817  +6.3070330     3649.067     4280.462     3506.592     78.95193     157.7158     315.5883      1.183     3.93     868.6556     55.60547     1169.485         9     1.234     0.359 -17.79   0
        52    478.6674    949.7739 307.7135768  +6.2933861     1153.939     1883.781     1472.482      78.7009      157.653     315.3688      1.705     6.79     876.0772     55.60547     136.2785        16     1.360     0.950 -76.33   0
        53     37.1101    948.8842 307.8969021  +6.2788768     2068.778     3586.493     4079.849     78.82652     158.0291     315.5883      1.832     4.52     875.2053     55.60547     254.8724        21     1.473     0.917  78.21   0
        54    887.9187    948.1242 307.5437371  +6.3077981     785.3352     1160.664     888.6401     79.32701     158.0291      315.557      1.592     5.31     869.0531     55.60547      119.015         7     1.064     0.750  88.32   0
        55    980.3210    946.3626 307.5054355  +6.3116178     542.6243     843.4148     373.1103     78.95193     157.8412     315.4629      1.569     5.38     865.4075     55.60547     82.63831         8     1.392     0.587  64.62   0
        56    580.8754    944.0804 307.6713387  +6.2991703     1795.129      2779.73     2670.708     79.32701     158.0291      315.557      1.630     4.30     875.3424     55.60547     263.3092        16     1.424     0.730  77.77   0
        57    304.4478    946.5744 307.7860066  +6.2888446     625.0605     884.1981     1343.628      78.7009     157.8412     315.3688      1.371     3.19     876.7468     55.60547     129.8067         5     0.788     0.437 -67.28   3
        58    303.7106    943.7186 307.7864089  +6.2899983     553.1934     1014.146     1605.556     78.82652     157.9665      315.557      1.939     2.46      876.744     55.60547      125.668         5     0.676     0.591  42.59   3
        59   1012.3353    943.8848 307.4922277  +6.3137113     843.2947     1867.574     1478.424     79.20218     157.9665     315.5256      2.014     6.86     863.7746     55.60547     108.0844        13     1.700     0.775 -81.52   0
        60    959.4401    944.9012 307.5141531  +6.3115224     675.5704     971.9016     783.3391     79.07716      157.653     315.6824      1.411     3.96     866.3989     55.60547     130.4681         5     0.925     0.484 -82.03   0
        61     69.9205    941.2947 307.8835389  +6.2831166     769.7832     1377.021     1766.453     78.82652     158.0291     315.5256      2.101     5.00     874.9009     55.60547     106.6224         9     1.052     0.672  86.64   0
        62    620.3940    940.1265 307.6550661  +6.3021292     1159.294     1730.927     1530.969      78.7009     157.3389     315.3688      1.617     4.53     874.6511     55.60547     141.6688        15     1.218     1.006 -88.25   0
        63    299.9539    938.0068 307.7881608  +6.2922291     1460.166      2225.86     2197.745     78.57507     157.5275     315.1177      1.569     4.11     876.7336     55.60547     191.8926        14     1.207     0.786  75.31   0
        64    567.8270    936.3268 307.6770162  +6.3019320     597.3304     750.1179     358.2503     78.82652     157.7158     315.4002      1.218     4.71     875.2857     55.60547      94.5954         7     1.008     0.626  89.46   0
        65    766.8300    933.8911 307.5944838  +6.3096153     880.9593     1493.815     650.5969     79.20218     157.5275     315.4315      1.645     6.32     871.5461     55.60547     137.8574        13     1.374     0.816  75.05   0
        66    904.5566    930.7778 307.5374112  +6.3155144     6708.804     10901.21     11417.06     78.57507      157.653     315.2747      1.742     3.98      868.217     55.60547     802.4214        34     1.518     1.081  74.80   0
        67    141.8936    932.3307 307.8539653  +6.2892444     487.2107     867.7855     780.3674     78.95193     157.9039     315.4629      1.494     5.90     874.8323     55.60547     83.78906         7     1.572     0.624 -60.69   0
        68    440.2368    927.7913 307.7302701  +6.3011663     2313.514     3682.787     3355.123     78.32283     157.5275     315.2119      1.651     4.39     875.9857     55.60547     287.6048        20     1.489     0.838  80.81   0
        69    342.0120    926.2661 307.7710973  +6.2984907     9330.756     14569.87     15754.19     78.57507     157.5903     315.3688      1.675     4.23     876.6824     55.60547     1172.437        35     1.576     0.994  80.04   0
        70    262.0650    925.1289 307.8043234  +6.2962676     6952.578     10693.21     10926.54     79.07716     157.8412     315.4629      1.626     3.91     876.3618     55.60547      972.235        32     1.529     0.978  78.02   0
        71    590.1325    919.7678 307.6683129  +6.3095153     1117.873     1686.795     1770.297     78.95193     157.7785     315.4315      1.590     4.48     874.5541     55.60547      191.903        10     1.230     0.552  79.22   0
        72    920.3348    916.2330 307.5313480  +6.3220455     1091.952     1818.684     2093.613     78.95193     157.7785     315.4315      1.794     5.25     867.4125     55.60547     158.2565        12     1.329     0.761  86.96   0
        73    154.0573    916.2476 307.8494589  +6.2962921     529.4094     1128.487     1460.843     79.07716     157.7785     315.5883      1.753     3.84     874.6901     55.60547     82.15991         5     1.176     0.359 -12.34   0
        74    876.8867    914.3129 307.5494502  +6.3213833     738.1794     1274.672     1199.865     78.82652     157.9665      315.557      1.748     4.21     868.5875     55.60547     122.5478         6     0.890     0.569  85.65   0
        75    987.0300    911.3154 307.5038236  +6.3263070     819.8256     1448.034     2138.001     79.07716     157.5903     315.3374      2.697     5.92     864.2653     55.60547     107.3361        11     1.267     0.778 -81.33   0
        76    756.5942    908.9479 307.5995701  +6.3195666      1634.43     2492.749     2862.263     78.57507     157.5903     315.1177      1.600     3.89     871.1809     55.60547     204.2682        17     1.299     0.794  68.72   0
        77    580.2336    909.2743 307.6727751  +6.3135137     745.3779     973.5723     354.9253     78.95193     157.7785     315.4629      1.413     4.52     874.3889     55.60547     131.3416         7     1.169     0.626 -87.48   0
        78    849.6178    908.6334 307.5609614  +6.3228140     630.9987     882.9854     708.7022      78.7009     157.5903     315.3061      1.463     3.18     869.1899     55.60547     118.3325         5     0.732     0.469  76.78   0
        79      7.4736    906.5915 307.9106336  +6.2953299     923.4706      1591.88     1671.925      78.7009     157.3389     310.9773      1.994     5.78     874.0948     55.60547     140.0532        12     1.398     0.812  82.41  16
        80    632.1522    905.6531 307.6513430  +6.3167515     628.4046     859.9741     442.2166     79.20218     157.7785     315.4943      1.444     4.76     873.5381     55.60547     90.20703         7     1.464     0.440  70.40   0
        81    987.6641    904.5269 307.5037876  +6.3291300     1174.922     2110.008     2473.176     79.07716     157.7785     315.4629      2.169     6.37     864.1462     55.60547     147.7676        14     1.599     0.714  78.90   0
        82    620.3773    905.3454 307.6562416  +6.3164832     656.3376     972.6624     993.0804     78.57507     157.7785     315.2747      1.487     4.33     873.7461     55.60547      97.6048         7     1.157     0.462  60.52   0
        83    541.7382    904.7859 307.6889071  +6.3140729     1155.938     1633.857     1368.773     78.57507     157.5903     315.2747      1.543     5.56     874.6818     55.60547     148.8345        13     1.374     0.682  89.59   0
        84    675.2508    902.4206 307.6335592  +6.3195321     2486.303     3725.826     3836.967     78.57507     157.8412     315.3374      1.633     4.03     872.5703     55.60547     337.4675        22     1.326     1.092  62.97   0
        85    965.8199    900.6810 307.5129853  +6.3299864     614.4846     1168.086     1360.679     78.82652     157.4646     315.4002      1.708     4.41     865.1022     55.60547     91.72632         7     1.331     0.417  26.48   0
        86    836.4306    898.5336 307.5667748  +6.3265406     779.5102     1284.396     1377.714     78.82652     157.7785     315.4002      1.960     6.01     869.2929     55.60547     116.7476        11     1.404     0.724 -83.62   0
        87     71.7604    898.1343 307.8842332  +6.3009907     2797.697     4742.158     4754.303     79.07716     157.7158     315.5883      1.840     5.36     874.1537     55.60547     340.3145        25     1.710     0.900  83.71   0
        88    215.3328    897.2860 307.8246620  +6.3061836     2289.241     3509.474     3546.033     79.20218     158.0291     315.4943      1.622     4.09     875.4064     55.60547     278.0142        21     1.386     0.887  77.20   0
        89     89.0656    897.4241 307.8770735  +6.3018679     1979.111     3189.401     3676.168      78.7009     157.7785     315.3688      1.809     4.55     874.2112     55.60547     244.6359        19     1.473     0.812  74.73   0
        90    952.9446    897.1218 307.5184498  +6.3310245     860.9492     1495.046     953.1592     79.20218     157.7785     315.4943      1.866     6.18      865.618     55.60547     117.3611        12     1.301     0.824  64.64   0
        91    669.8048    891.3676 307.6361913  +6.3239111     6745.752     10558.55     11294.12     78.44905      157.653     315.2433      1.689     3.83     872.3063     55.60547     898.7236        36     1.631     0.984  76.74   0
        92    354.0413    893.0920 307.7672212  +6.3125867     984.4747     1469.488     1737.441     79.07716     157.7158      315.557      1.669     4.38     875.6985     55.60547     145.1843        12     1.123     0.789  59.57   0
        93    248.9662    893.7510 307.8108191  +6.3087760      764.394     1314.395     1028.242     78.95193     157.7785     315.4002      1.752     4.34     875.9902     55.60547     136.5452         8     1.081     0.497  54.78   0
        94    807.2432    892.1381 307.5791067  +6.3282021     732.2278     1295.858     892.1615     79.07716     157.7158      315.557      1.578     4.85     869.8853     55.60547     93.00757         8     1.057     0.632  80.51   0
        95     29.6346    889.6002 307.9020086  +6.3030905     1159.924     1812.985      1591.85     78.06976     157.5903     315.2747      1.621     4.48     873.8203     55.60547     189.3336        16     1.330     0.843  74.53   0
        96    907.5101    887.8334 307.5376238  +6.3333373     2718.913      4235.72      4112.72     79.20218      157.653     315.4629      1.686     4.37     867.0444     55.60547     364.0717        21     1.482     0.838  76.79   0
        97     42.7540    887.5554 307.8966317  +6.3043773     1072.267     1585.902     1780.838     79.07716     157.7785     315.4002      1.622     4.06     873.8508     55.60547     159.8982        12     1.165     0.836  76.02   0
        98    352.6945    884.3979 307.7680732  +6.3161295      16028.4     25205.29     26816.78     78.57507     157.4646     315.1177      1.700     3.98     875.4426     55.60547     1983.012        48     1.609     1.103  74.48   0
        99     87.2265    885.4977 307.8782398  +6.3067278     1371.283     2331.317     2262.258     79.20218     157.5275     315.4002      1.815     5.43     874.0523     55.60547     162.2943        15     1.313     0.871  75.06   0
       100    404.0925    884.4477 307.7467341  +6.3178387     533.3531     910.9915     1076.974     78.95193     157.7158     315.5883      1.879     4.92      875.011     55.60547     86.39203         7     1.596     0.430  57.09   0
       101    223.3626    883.9893 307.8217772  +6.3119418     1252.692     2155.721     2117.078     78.57507     157.5903     315.1491      1.899     4.73        875.4     55.60547      165.183        16     1.377     0.857 -68.72   0
       102    430.4235    875.5090 307.7361039  +6.3224135     1142.673     1833.726     1526.031     79.07716     157.5903     315.3061      1.705     4.65     874.5628     55.60547     174.7676        14     1.331     0.833  69.40   0
       103    116.0087    875.1108 307.8666425  +6.3119857      1606.94     2396.835     2170.157      78.7009     157.4646     315.1805      1.570     4.26      874.086     55.60547     225.6821        17     1.388     0.794  83.00   0
       104    511.0094    872.1808 307.7027607  +6.3264967       621.53     929.2313      1415.51      78.7009     157.5275     315.3061      1.571     4.45     873.9596     55.60547     103.8149         7     1.037     0.543 -58.25   0
       105    684.0442    871.4611 307.6309482  +6.3326046     853.3087     1393.508      2149.55     78.95193     157.7785     315.5883      2.057     3.93     871.4904     55.60547     133.6905         8     1.077     0.767  53.65   0
       106    868.6605    869.1902 307.5543778  +6.3397307     2007.083     3081.534     3274.765     78.44905      157.653     315.1805      1.654     4.03     867.5869     55.60547     244.9272        19     1.303     0.896  75.97   0
       107    897.9720    869.2260 307.5422072  +6.3406976     1901.891     2772.806       2483.3     78.57507     157.5903     315.3061      1.615     4.58     866.8248     55.60547     229.1449        17     1.287     0.905  73.57   0
       108    831.9769    868.3544 307.5696358  +6.3388469     3052.909     4749.314     5075.341      78.7009     157.7785     315.3374      1.644     3.86     868.5697     55.60547     411.5953        24     1.446     0.935  75.04   0
       109     99.5667    868.5941 307.8736881  +6.3141203     2399.453     3616.635      4421.52     78.44905     157.5903     315.2747      1.651     4.18     873.9453     55.60547       293.96        19     1.400     0.803  78.14   0
       110    462.4418    866.3138 307.7231211  +6.3272853      570.426     902.4298     2046.685     79.07716     157.7158     315.4629      1.970     4.01     874.1307     55.60547      128.075         6     1.478     0.311  64.33   0
       111    567.8293    859.6857 307.6795917  +6.3335628     336840.7     511839.5     540138.7     79.20218     157.4646     315.3061      1.659     3.82     873.1056     55.60547     43806.38       183     1.762     1.307  75.72   0
       112    655.6885    862.7361 307.6430135  +6.3352540     1080.773      1642.47      1314.96     78.95193     158.0291     315.4943      1.470     3.94     871.7468     55.60547     171.4045        10     1.142     0.592  82.06   0
       113    412.1194    862.2053 307.7441508  +6.3272883     7508.417     11473.73     11972.59      78.7009     157.3389     315.2433      1.607     3.89     874.2881     55.60547     979.8032        33     1.497     0.976  74.00   0
       114    355.2429    860.6027 307.7678169  +6.3260357     12117.79     18923.47     20103.03     78.44905     157.3389     315.1177      1.683     3.98     874.8133     55.60547      1605.97        41     1.560     1.046  76.57   0
       115    673.6782    857.0270 307.6357365  +6.3382139      3458.21     5263.881     5467.847     78.95193     157.7158     315.4315      1.595     3.87     871.1597     55.60547     478.0656        24     1.477     0.887  78.75   0
       116    906.0944    855.8322 307.5392838  +6.3464974     5069.076     8379.095     9523.429     79.20218      157.653      315.557      1.836     3.88     866.3199     55.60547      668.212        37     1.678     1.213  54.41   0
       117    745.6971    853.3405 307.6059603  +6.3421513     768.4156     1013.264     817.1712     78.82652     157.7785     315.5883      1.518     3.32     870.3824     55.60547     123.5446         8     0.945     0.586  69.19   0
       118    648.4972    851.0092 307.6463930  +6.3398525     3553.023     5308.513      5749.21     78.82652     157.4018     315.2747      1.601     3.70     871.5397     55.60547     466.9598        23     1.399     0.919  73.01   0
       119    836.7957    850.1364 307.5682460  +6.3465272     1748.995      2580.32     2556.811     78.32283     157.5275     315.2433      1.600     3.71     868.0896     55.60547      270.373        18     1.341     0.847  75.57   0
       120    638.8350    849.5642 307.6504529  +6.3401245     983.8319     1632.515     2346.888     78.82652     157.5275     315.2119      1.675     5.07     871.6942     55.60547     139.6602        12     1.353     0.642  76.78   3
       121    641.3647    845.5782 307.6495366  +6.3418545     2242.214     3363.391     4509.998     78.57507     157.5275     315.2119      1.699     4.11     871.5084     55.60547     313.9349        22     1.475     0.910  78.59   2
       122    191.6189    850.8112 307.8360745  +6.3245643     623.8754     838.5272     1115.304      78.7009     157.4646     315.3688      1.433     4.28     874.5571     55.60547     95.28558         6     1.086     0.480 -85.71   0
       123    963.7082    848.7805 307.5156000  +6.3513361     777.2625     1421.129     1799.165     78.95193     157.5275     315.3061      1.910     5.07     864.2501     55.60547     113.7155         9     1.267     0.591  84.28   0
       124    925.0168    843.7608 307.5318321  +6.3521130     2957.239      4838.72     5129.645      78.7009      157.653     315.2433      1.735     4.14     865.4535     55.60547     377.1945        27     1.485     0.975  78.55   0
       125    335.3954    844.6167 307.7765952  +6.3319650     1150.379     1773.602     2045.159      78.7009     157.4646     315.3061      1.596     4.97     875.0221     55.60547     146.0401        13     1.330     0.758  78.24   0
       126    383.0916    839.5785 307.7569637  +6.3356498     2769.189     4218.573     4213.348     79.07716     157.5903     315.3061      1.612     4.12     874.2753     55.60547     345.2896        22     1.406     0.882  76.90   0
       127    519.4765    829.4393 307.7006833  +6.3444212     3089.721      4620.03     4466.579     78.95193     157.7785     315.4943      1.649     4.15     872.3732     55.60547      435.777        21     1.400     0.817  76.52   0
       128    864.1132    828.8299 307.5576186  +6.3562359      1042.37     1650.957      1889.38     79.20218     157.5275     315.3688      1.658     4.42     867.2502     55.60547     150.1642        14     1.259     0.788  67.31   0
       129    584.6815    826.7455 307.6737027  +6.3477237     788.2012     1444.163     1336.129     79.07716     157.7785     315.5256      1.565     5.45     871.4897     55.60547     114.6368        10     1.639     0.510  68.16   0
       130    566.3158    825.5804 307.6813668  +6.3475876     6164.153     9258.737     10004.12      78.7009     157.4646     315.4315      1.630     3.87     871.6193     55.60547     829.3499        28     1.480     0.919  69.71   0
       131    278.1482    826.0179 307.8009885  +6.3377127     657.6992     920.0153     577.9482     78.57507     157.8412     315.2119      1.583     5.59     875.2432     55.60547     99.96722        10     1.575     0.560  71.32   0
       132    573.1201    825.0084 307.6785611  +6.3480522     1228.919     2002.663     2498.822      78.7009     157.4018     315.3061      1.781     3.60     871.5106     55.60547     232.8785        14     1.308     0.715  84.33   0
       133    484.1946    824.3829 307.7155013  +6.3453219     1626.723     2374.291     2526.946      78.7009     157.4646     315.3061      1.649     4.01     872.8065     55.60547     228.5426        17     1.304     0.888  77.16   0
       134    901.9401    823.6292 307.5420878  +6.3596491     1202.246     1925.673     2054.852     78.82652     157.7785     315.4315      1.755     4.11      865.786     55.60547     206.6741        14     1.305     0.700  80.75   0
       135    125.7317    823.5042 307.8643488  +6.3336116     1381.398     2114.363      2295.11     78.95193     157.9039     315.4943      1.636     5.05     873.7452     55.60547     205.1086        14     1.376     0.732  76.71   0
       136    702.0418    822.5651 307.6251180  +6.3533886     910.0533     1239.877     1128.507     78.82652     157.7785     315.3061      1.561     5.30     869.9647     55.60547      121.205        10     1.147     0.691  75.21   0
       137    536.9551    819.2932 307.6937679  +6.3491960     19557.19     30005.93     31752.93     79.07716     157.7158     315.5883      1.656     4.05     871.6591     55.60547     2615.664        54     1.653     1.080  77.06   0
       138    378.2375    821.3644 307.7595925  +6.3430035     785.9888     1138.264     915.7109     78.82652      157.653     315.2433      1.615     5.03     874.0729     55.60547     115.6088         9     1.290     0.554  82.59   0
       139    950.6295    817.8448 307.5220662  +6.3636663     3595.329     5743.311     5909.574      78.7009     157.8412     315.3374      1.692     3.95     863.9741     55.60547     437.2558        28     1.527     0.985  79.31   0
       140     47.3254    809.5690 307.8973694  +6.3367163     1539.672     2230.215     2290.677     78.95193     157.7785     315.4629      1.563     4.05     872.5001     55.60547     200.1719        14     1.183     0.800  71.34   0
       141    329.5352    808.1160 307.7802583  +6.3468317       3251.9     5123.337     5339.763     79.20218     158.0291     315.5256      1.675     4.11     874.3464     55.60547     396.6768        25     1.455     0.945  73.65   0
       142    795.1056    803.9594 307.5871038  +6.3641882     53805.31     83749.21     88637.59     79.20218     157.7158      315.557      1.665     3.97     867.7849     55.60547     7126.196        79     1.694     1.174  75.67   0
       143     29.3412    806.1749 307.9049501  +6.3375097     2062.049      3206.91     2992.276      78.7009     157.7785     315.3061      1.644     4.39     872.1044     55.60547     237.5605        20     1.367     0.967  78.86   0
       144    733.8804    806.1973 307.6124487  +6.3612118     690.4536      1061.95     1379.921     78.44905     157.3389     315.2119      1.574     4.47     869.0533     55.60547     96.58282         7     1.074     0.530  67.67   0
       145    251.8031    780.2974 307.8134678  +6.3556940     758588.2      1791591      2010656     78.82652     157.4646     315.1491      2.357     6.41     873.9862     55.60547      63430.5       715     2.932     2.175  84.00   4
       146    920.4075    799.2320 307.5352377  +6.3703366     8383.377     13314.51      14023.2     78.57507      157.653     315.2747      1.721     3.91     864.4832     55.60547     990.6642        37     1.549     1.053  72.94   0
       147    723.4039    798.5486 307.6170551  +6.3640171      21255.7     32962.48     35152.58     78.44905     157.5275     315.0235      1.699     3.86     868.9526     55.60547     2620.323        53     1.638     1.117  77.71   3
       148    717.0871    795.0576 307.6197950  +6.3652461     86528.66     133912.4       141636     79.07716     157.7785     315.5883      1.653     4.00     868.8757     55.60547     11391.18        94     1.712     1.179  78.66   3
       149    539.2188    799.1597 307.6935053  +6.3575813     481.6611     664.0281     304.3836      78.7009     157.5903     315.1805      1.126     3.42     870.8015     55.60547     75.22498         5     0.985     0.343 -45.62   0
       150    361.9464    795.8582 307.7672153  +6.3529817     20225.55     31875.43     33942.26     79.20218     157.7785     315.4629      1.684     4.11     873.8073     55.60547     2633.016        57     1.629     1.160  75.10   0
       151    411.1345    795.9845 307.7467896  +6.3545850     1391.544     2124.741     2058.323     78.57507      157.653     315.3688      1.546     4.24     873.3939     55.60547     213.5507        12     1.270     0.609  72.55   0
       152    650.5820    795.7634 307.6473834  +6.3627231     759.1202     1243.336     1801.906     78.57507     157.5903     315.2433      1.681     4.21     869.6501     55.60547     114.0936         6     1.105     0.457  79.43   0
       153    423.7980    793.6677 307.7416101  +6.3559672     21476.18     33734.34     35371.63     78.44905     157.3389     315.2747      1.694     3.95     873.1563     55.60547     2736.346        53     1.615     1.115  76.66   0
       154    961.0052    792.6702 307.5186014  +6.3744036     2063.258     3528.026     3368.817     78.57507     157.4018     315.3061      1.802     4.36     863.1512     55.60547     270.2311        21     1.420     0.983  88.84   0
       155    917.3458    790.6534 307.5367964  +6.3737747      6490.65     10263.21     11053.05     79.32701     157.7158     315.4629      1.732     3.94     864.4557     55.60547     838.7455        34     1.592     1.006  72.12   1
       156    890.2247    791.6631 307.5480232  +6.3724498     773.8301     1179.827     949.3038      78.7009     157.7785     315.4315      1.626     5.42     865.6117     55.60547      101.633         7     1.076     0.769 -67.19   0
       157    657.8548    789.5997 307.6445709  +6.3655111     6300.728     9740.433     10434.22     78.32283     157.4018     315.1177      1.653     4.18     869.3912     55.60547     837.6436        33     1.552     0.977  78.29   0
       158    438.4864    802.4464 307.7352162  +6.3528383     900.6105       1610.8     1995.923     79.07716      157.653     315.4629      1.885     4.16     873.0681     55.60547      118.194         8     1.047     0.500  89.27   0
       159    588.4340    789.9172 307.6733828  +6.3630492     441.0396     937.7673     637.6769     79.07716     157.7785     315.4002      2.074     5.57       869.92     55.60547     76.96259         7     1.783     0.491  87.65   0
       160    446.5862    787.7595 307.7323478  +6.3591721      1661.65     2606.527     2309.822     78.57507     157.5903     315.2119      1.662     4.39     872.5553     55.60547     235.4628        16     1.293     0.793  72.60   0
       161    398.6216    789.2674 307.7522108  +6.3569361     537.8458     860.0023     616.9617      78.7009     157.7158     315.4002      1.767     4.13     873.3138     55.60547     84.83954         6     0.944     0.515  49.68   0
       162    496.1742    786.3189 307.7118085  +6.3614341     506.9327     426.7024     336.4931     78.95193     157.5903     315.4943      1.163     3.63     871.4604     55.60547     85.98578         5     1.014     0.375 -86.41   0
       163    171.5673    786.8057 307.8465591  +6.3503031     813.3882     1142.421     958.7347     78.44905     157.5903     315.2747      1.524     3.31     873.8023     55.60547     150.0986         7     0.926     0.494  87.17   0
       164    885.8164    782.0677 307.5501752  +6.3762624     675.0856     925.4301     1058.576     78.57507     157.7158     315.3688      1.586     4.68     865.5027     55.60547     94.58954         7     1.029     0.604  88.04   0
       165    611.1054    781.9139 307.6642389  +6.3671136     960.6196     1111.318     658.6323     79.07716     158.1543     315.5256      1.290     4.60     869.4089     55.60547     131.4421        12     1.278     0.615  72.83   0
       166    162.0192    780.7378 307.8507280  +6.3524853     754.9974     1247.888      966.099      78.7009     157.7158     315.3374      1.610     6.61     873.6841     55.60547     129.8583        12     1.579     0.777 -85.18   0
       167    137.1398    780.0901 307.8610787  +6.3519134      1026.17     1412.399     1347.467     78.95193     157.9039     315.4943      1.520     4.76     873.3753     55.60547     174.1249        11     1.423     0.549  75.75   0
       168    692.9559    779.7169 307.6303292  +6.3707678     2471.451     3820.822     3999.545     79.07716     157.7785     315.4629      1.684     4.20     868.6384     55.60547     320.6681        22     1.465     0.872  69.82   0
       169    426.7258    776.3713 307.7409769  +6.3632040     52927.59     82354.85     86360.13     78.95193     157.7785     315.4315      1.698     4.01     872.6592     55.60547     6772.144        74     1.657     1.182  76.67   0
       170    970.1158    778.2198 307.5153027  +6.3806724     782.6918     1232.507     1274.787      78.7009     157.4646     315.4315      1.622     5.06     862.5658     55.60547     101.8006         9     1.101     0.656  48.47   0
       171    544.5392    775.3980 307.6920955  +6.3675668       6943.5     10513.05     11050.68     78.44905     157.5903     315.1805      1.627     3.93     869.8871     55.60547     855.7684        29     1.476     0.918  72.51   0
       172    461.3274    774.0663 307.7266886  +6.3653191     4219.131     6858.053     7528.126     79.20218     157.8412     315.4629      1.732     4.20     871.9359     55.60547      546.099        30     1.564     0.984  77.96   0
       173    789.6752    772.0422 307.5904293  +6.3771789     11291.08     17649.46     18427.58     78.95193     157.8412     315.4943      1.671     4.05     866.9396     55.60547      1452.91        38     1.568     1.026  74.98   0
       174    458.0095    767.3343 307.7282927  +6.3679859     2227.617     3364.884     4035.307     78.57507      157.653     315.3688      1.640     4.37     871.8243     55.60547     301.3346        19     1.401     0.832  85.37   1
       175     19.3030    767.8557 307.9104128  +6.3529848     1200.509     1860.649     2371.883     78.95193     157.7785     315.6511      1.630     4.23     871.9471     55.60547     155.6627        13     1.249     0.741  61.36   0
       176    811.6601    766.5345 307.5814859  +6.3801889     1354.635     1989.311      2021.78     79.20218     157.7158     315.4943      1.678     3.81     866.5123     55.60547     185.0699        12     1.123     0.720  62.50   0
       177    147.5235    763.9583 307.8573125  +6.3589213     11278.83      17792.9     19798.09     78.95193     157.7785     315.4943      1.712     3.98      873.274     55.60547     1434.055        43     1.564     1.113  78.37   2
       178    139.6471    761.3803 307.8606696  +6.3597195     2867.606     4705.035     5429.922      78.7009     157.7785     315.2747      1.867     3.87       873.12     55.60547      359.178        26     1.484     1.026  68.92   3
       179    139.5828    754.9012 307.8609150  +6.3623912     2003.655     3423.111     4009.795     79.07716     157.5903     315.2433      1.927     5.00     873.0279     55.60547     262.3261        21     1.543     0.895  79.16   3
       180    155.6509    764.0544 307.8539351  +6.3591557     2932.973     4644.666      5456.44     79.07716     157.7785     315.4943      1.737     4.06     873.3821     55.60547     390.9598        23     1.389     0.939  81.53   0
       181    935.2419    760.7498 307.5303678  +6.3867155     6195.744     9660.779     10316.25     79.20218     157.7785     315.4629      1.698     4.02     863.2609     55.60547     789.5374        31     1.520     1.004  74.42   0
       182    984.3718    760.5368 307.5099756  +6.3884476     1319.546     2180.691     2228.058      78.7009     157.7785     315.4002      1.749     4.57      861.732     55.60547     185.5192        15     1.310     0.898  84.08   0
       183    690.7958    758.3389 307.6319440  +6.3795183     1688.544     2635.547     2732.182     78.44905     157.5903     315.1805      1.661     5.07     867.8401     55.60547     251.6284        14     1.407     0.721  78.03   0
       184    577.5629    757.5076 307.6789860  +6.3760599     2388.353     3464.702     3971.029     79.20219     157.7158     315.5256      1.630     4.23     868.9519     55.60547     309.1298        21     1.446     0.839  73.11   0
       185    425.6082    756.9006 307.7420965  +6.3712021     1116.906     1811.003     1859.287     78.82652     157.4018     315.3061      1.722     5.45     872.2169     55.60547     148.8759        14     1.577     0.640  79.55   0
       186    989.9529    752.1068 307.5079406  +6.3921135     1787.997     2942.212      2988.75     78.95193     157.7158     315.5883      1.752     4.67     861.3061     55.60547     228.7172        21     1.535     0.890  73.88   0
       187    958.8643    752.0680 307.5208503  +6.3910893     2863.659     4617.367     4670.139     79.07716     157.7785     315.4943      1.671     4.22     862.3176     55.60547     366.2166        24     1.561     0.882  84.10   0
       188    929.4990    752.6516 307.5330236  +6.3898656     2866.062     4478.881      5023.68     79.07716     157.7785     315.6824      1.717     4.10     863.3132     55.60547     352.3315        20     1.339     0.906  77.53   0
       189    681.8550    751.9547 307.6358707  +6.3818532     1373.871     2278.212     2413.918     79.07716     157.7785     315.4629      1.715     4.98      867.764     55.60547     207.4631        13     1.266     0.664  77.51   0
       190    829.2180    750.1606 307.5747449  +6.3875351      966.812     1425.863     906.8221      78.7009     157.5903     315.2433      1.448     4.44     865.7888     55.60547     147.6636        10     1.231     0.561  82.09   0
       191    904.4992    748.3134 307.5435492  +6.3908191     775.7648     1155.626     1066.369     79.07716     158.2169     315.5256      1.607     4.94     864.0029     55.60547     111.5492         7     1.049     0.659 -88.94   0
       192    254.4490    746.8398 307.8134978  +6.3695912     1812.864     3260.612     4027.857     79.07716     157.7785     315.4002      2.014     3.94      873.469     55.60547     254.5697        20     1.303     1.013  72.00   0
       193    947.1595    742.4800 307.5260315  +6.3946547      1087.32     1694.433     1719.271     79.07716     157.7785     315.4002      1.908     4.72      862.512     55.60547      179.355        13     1.330     0.808  64.61   0
       194    274.5614    742.6888 307.8052876  +6.3719820     711.7185     980.9361     774.7629     79.07716     157.7158     315.4943      1.531     4.26     873.4148     55.60547     134.2809         6     1.183     0.437  77.67   0
       195    973.9074    739.8577 307.5150131  +6.3966321     2495.707     3939.028     4166.846     78.95193     157.7158     315.5883      1.644     4.53     861.5403     55.60547     293.6284        24     1.519     0.937  71.27   0
       196    921.1386    741.1935 307.5368789  +6.3943147     1186.453     1750.417     1582.402     78.44905     157.5903     315.2119      1.560     4.47     863.3445     55.60547      182.475        15     1.322     0.772  77.29   0
       197    169.8259    741.9624 307.8487959  +6.3687512     711.9639     1104.379     18.63173      78.7009     157.5903     315.3061      1.281     3.76     873.1829     55.60547     121.0671         6     0.885     0.489  59.54   0
       198    693.2858    738.9299 307.6315620  +6.3876123     1022.018     1413.276      1651.02     79.20218     158.0291     315.4943      2.025     5.81     867.0905     55.60547     132.4742        12     1.375     0.691  84.26   0
       199   1015.6434    733.5370 307.4978951  +6.4006370     1738.013     2635.196     2721.183     79.07716     157.7158     315.5256      1.657     4.11     859.9473     55.60547      230.447        17     1.330     0.820  79.96  16
       200    484.6421    734.1334 307.7183526  +6.3825838     625.8209     864.0906     601.4965     79.07716     157.7158     315.5256      1.546     3.91     870.3842     55.60547     94.09644         6     1.087     0.403  75.11   0
       201    817.0319    732.0110 307.5804135  +6.3946174      1155.97     1614.266     1107.469     78.57507     157.5275     315.3374      1.524     4.58     865.3957     55.60547     163.8906        13     1.261     0.782  75.53   0
       202    641.7316    733.1363 307.6531623  +6.3882731     636.9205      716.285      490.143     79.07716     157.8412     315.5256      1.306     4.42     867.5026     55.60547     90.68488         7     0.905     0.614  64.93   0
       203    903.2789    729.0160 307.5447027  +6.3987426     1458.797     2556.713     2775.797      78.7009     157.5275     315.3061      1.876     4.90     863.5436     55.60547     202.3158        18     1.428     0.885  70.24   0
       204    877.6039    724.5854 307.5555119  +6.3997114     915.2401     1101.699     1104.758      78.7009     157.4018     315.3374      1.476     4.84     864.1389     55.60547     143.2769         9     1.134     0.585  79.70   0
       205    859.9872    720.4193 307.5629665  +6.4008408     1441.739      2431.74     2790.038     78.82652     157.5275     315.3688      1.883     4.61     864.4275     55.60547      228.137        17     1.525     0.763  84.59   0
       206     59.1938    719.2826 307.8954934  +6.3743777     2566.555     3881.188     4541.892      78.7009     157.4018     315.2433      1.689     4.01     871.9522     55.60547     337.2131        23     1.423     0.899  77.00   0
       207    122.9181    717.7198 307.8690895  +6.3771736     1026.144     1814.443     1849.156     79.20218     158.0291     315.5883      1.868     6.59     872.0408     55.60547      143.189        14     1.552     0.786  79.56   0
       208    471.8255    718.2166 307.7242097  +6.3887219     554.1951     875.2386     761.2454     78.82652      157.653     315.4002      1.381     3.66     869.9752     55.60547     76.26178         5     1.176     0.328  80.27   0
       209    577.1063    714.2006 307.6806317  +6.3939179     609.0728     811.8895     496.6346     78.57507     157.3389     315.1491      1.403     4.86      867.816     55.60547     86.58344         7     0.957     0.698 -42.12   0
       210    671.8702    707.9910 307.6414933  +6.3996625     6039.811     9408.821     10113.06     78.57507     157.4018     315.3374      1.628     4.08     866.6239     55.60547     796.0159        28     1.496     0.931  76.63   0
       211    618.7841    707.4121 307.6635548  +6.3981193     1248.662     2060.639     2556.438     78.95193     157.4646     315.4002      1.768     5.49     867.0087     55.60547     168.8286        15     1.493     0.742  82.74   0
       212    529.7450    707.9259 307.7005075  +6.3949161     854.7058     1005.865     723.2497     78.95193     157.7158     315.4002      1.320     4.57      868.543     55.60547      149.889         8     1.140     0.521  72.32   0
       213    540.2855    707.4966 307.6961455  +6.3954475      752.849     1186.071     874.7253     79.07716     158.1543     315.5256      1.781     4.60     868.3578     55.60547     108.2628         8     1.223     0.491  69.05   0
       214    645.6537    703.4579 307.6525310  +6.4006534      2021.13     3246.114     4012.385     79.20218     157.7785     315.4629      1.823     4.55      866.696     55.60547     276.0854        20     1.475     0.818  82.20   0
       215    134.7314    703.6964 307.8646584  +6.3833596     3658.113     5646.604     5736.223     78.95193     157.9039     315.4943      1.669     4.06     871.8027     55.60547     476.4637        24     1.482     0.887  72.91   0
       216   1008.9030    703.2827 307.5017069  +6.4128982     2493.955     3806.205     3763.096     78.95193     158.1543     315.5256      1.628     3.68     859.6313     55.60547     333.8722        22     1.382     0.914  70.79   0
       217    321.1895    703.9539 307.7872341  +6.3895388     667.9016     926.9182     505.3085     78.57507      157.653     315.1491      1.356     3.90     871.5029     55.60547      124.651         6     0.890     0.488  60.10   0
       218    788.7276    700.0964 307.5932367  +6.4068404     19490.36     30167.59     31519.25     78.82652     157.9665     315.4315      1.656     4.10     864.5577     55.60547     2483.977        50     1.585     1.086  73.64   0
       219    918.6215    699.6945 307.5393147  +6.4113579     3657.569       5769.2     5964.279     78.95193     157.5903     315.3061      1.721     4.05     862.2361     55.60547     469.3226        26     1.452     0.977  73.41   0
       220    487.6798    700.3112 307.7182296  +6.3966447     1401.817     2180.915     1819.323     78.82652     158.0291      315.557      1.674     6.10      868.937     55.60547     204.3873        16     1.424     0.808  75.86   0
       221    516.1810    699.9612 307.7064074  +6.3977473      1020.72     1482.785     1098.188      78.7009     157.5903     315.2119      1.602     5.89     868.5677     55.60547     126.0142        13     1.164     0.925 -83.51   0
       222    333.2741    699.8772 307.7823540  +6.3916282     636.1528     1005.426     473.1898     79.32701     158.0291     315.4943      1.713     3.87     871.3188     55.60547     101.8262         6     1.053     0.408  79.35   0
       223    289.5603    699.4908 307.8005169  +6.3903153     530.1507     817.1616     221.4156     79.07716     157.7158     315.4943      1.548     3.95     871.4037     55.60547     77.32086         5     1.100     0.406 -73.75   0
       224    262.1547    693.5735 307.8120952  +6.3918340     5932.082      9185.91     9890.363     78.57507     157.8412     315.3688      1.678     3.93     871.1752     55.60547     827.3872        33     1.526     1.009  73.75   0
       225     97.2335    696.5980 307.8804667  +6.3850237     482.3965       749.75     830.9984     78.32283     157.5903     315.2433      1.538     3.45     871.4081     55.60547     67.53131         5     0.767     0.448 -18.70   0
       226    669.3680    692.7511 307.6430442  +6.4058683     6678.639     10388.68     11730.45     78.82652     157.7785     315.4002      1.711     4.30     866.2587     55.60547     876.5317        38     1.637     1.091  75.68   0
       227    652.0435    694.3464 307.6501841  +6.4046284     945.1959     1439.471      1745.64     79.07716     157.7785     315.4629      1.756     4.67     866.4167     55.60547      150.329         9     1.141     0.543  63.22   0
       228    364.4177    692.6483 307.7696668  +6.3956602     573.6627     715.0372     1159.479     78.57507     157.8412     315.2433      1.353     2.87     870.8692     55.60547     106.8251         5     0.941     0.729 -21.45   0
       229    929.0309    685.7949 307.5354582  +6.4174430      1185.39     1757.577      2190.98     78.44905      157.653     315.2433      1.604     4.86     861.5303     55.60547     164.6182        12     1.197     0.683  71.12   0
       230    637.8384    685.0345 307.6563952  +6.4079946     1094.213     1274.554     1321.483     78.82652      157.653     315.2433      0.549     1.02     866.2929     55.60547     642.0352         5     0.549     0.350  22.72   0
       231    741.0435    681.3796 307.6136646  +6.4129663      3646.47     5801.744     6734.922     78.57507      157.653     315.3061      1.749     4.00     865.2341     55.60547     473.0723        25     1.479     0.898  74.39   0
       232    696.2684    681.6527 307.6322473  +6.4113515     1011.681     1480.824     1090.681     78.95193     157.7158     315.3688      1.602     4.96     865.7347     55.60547     158.6519        12     1.389     0.667  72.46   0
       233    945.7380    678.3967 307.5287687  +6.4210557     2412.301      3642.07      3800.15     78.44905     157.5903     315.1805      1.665     4.03     860.8443     55.60547     298.1117        23     1.437     0.947  76.80   0
       234   1007.2994    677.9034 307.5032225  +6.4233191     8447.126     13472.23     14199.64     79.07716     158.2794     315.3061      1.695     4.00     859.2342     55.60547     1103.026        39     1.586     1.039  74.83   0
       235     26.4635    677.9896 307.9104782  +6.3903137     1801.264     3323.964     4074.312     78.57507     157.5903     315.3061      2.232     5.26     872.1853     55.60547     273.8287        22     1.580     1.065  80.68   0
       236      6.3157    680.0810 307.9187725  +6.3887700      678.763     1002.736     1247.635     78.82652     158.0917     302.2647      1.513     4.18     872.4789     55.60547     132.3566         5     1.059     0.471  54.93  16
       237    559.9856    675.4225 307.6890445  +6.4093468     552.8177      713.509     771.9085     78.82652     157.5903     315.3688      1.431     4.30     867.4885     55.60547     94.21881         6     1.156     0.457  73.76   0
       238    443.1407    676.1352 307.7375366  +6.4051244     598.8959     914.8359     907.9412     79.20218     157.7158     315.4943      1.486     3.98     868.5677     55.60547     78.82776         6     0.785     0.577  44.05   0
       239     84.6180    672.6189 307.8865147  +6.3944939        24751     38794.96     40820.51     78.82652     157.5903     315.4002      1.698     3.95     871.2096     55.60547     3092.053        51     1.617     1.086  75.18   0
       240    545.8906    673.7812 307.6949523  +6.4095506     1816.273     2936.777     3223.014     78.95193     157.5275     315.3374      1.659     4.52     867.8262     55.60547     234.8284        16     1.321     0.781  69.88   0
       241    935.5215    670.0646 307.5332902  +6.4241525     1033.192     1311.028     1141.858       79.327     157.8412     315.4315      1.513     5.52     860.9367     55.60547     136.4835        10     1.355     0.634 -88.74   0
       242    514.6053    671.0459 307.7080346  +6.4096279     1279.722     2082.001     2308.153     78.44905     157.5275     315.1177      1.735     4.15     867.7795     55.60547     202.0606        15     1.317     0.822  72.68   0
       243    555.0513    667.3515 307.6913648  +6.4125120     1106.272     1629.084     1778.036     79.20218      157.653     315.4629      1.612     5.33     867.3183     55.60547     140.4138        11     1.105     0.725  79.27   0
       244    730.5944    664.9883 307.6185538  +6.4193807     3325.206     5177.493     5372.038      78.7009     157.5903     315.3688      1.610     3.83     865.0374     55.60547     450.6047        24     1.535     0.804  75.87   0
       245    752.6561    663.2779 307.6094504  +6.4208266     4058.692     6221.418     6618.297     79.07716     157.7785     315.4629      1.704     3.90     864.4999     55.60547     537.3815        29     1.523     0.945  74.87   0
       246    584.0749    661.1161 307.6795232  +6.4160605      3212.74     4894.382     5282.048     79.20218     158.0917     315.5256      1.630     4.00     866.4526     55.60547     422.3256        24     1.457     0.916  73.95   0
       247    420.1088    661.6410 307.7475879  +6.4103314     1346.452      2211.32     2305.485     79.07716     157.7785     315.5256      1.743     5.95      868.603     55.60547     200.5351        16     1.520     0.699  77.51   0
       248    328.3739    660.0692 307.7857305  +6.4078921     1248.631     2040.104      2302.58      78.7009      157.653     315.4002      1.747     5.59     869.9457     55.60547     185.2865        12     1.351     0.651  65.06   0
       249    244.6714    660.6580 307.8204647  +6.4048290     1784.699     2579.306     2401.606     79.20218     157.7785     315.4629      1.607     4.00     870.0109     55.60547     225.3811        16     1.263     0.826  83.44   0
       250   1023.8640    658.9687 307.4969781  +6.4316879     897.7914     1308.972     1444.995      65.6804     122.2309     234.0402      1.383     4.14     858.1658     55.60547     230.0254         8     1.429     0.343 -89.56  24
       251    990.8835    658.2400 307.5106975  +6.4308855     7999.668     12441.42     13142.32     79.07716     157.7158     315.4315      1.661     4.07     859.1383     55.60547     1071.938        37     1.602     1.003  69.57   0
       252    710.9009    656.9500 307.6270011  +6.4220376     987.0981     1558.334      1464.19     79.07716     157.7785     315.6197      1.536     4.00     864.9427     55.60547     153.1379        12     1.250     0.615  72.21   0
       253    102.4095    654.7290 307.8797322  +6.4024776     801.9892     1263.504     1201.898     78.57507     157.4018     315.3061      1.707     5.62     870.8547     55.60547     117.0675         8     1.159     0.768  78.07   0
       254    436.2817    652.6187 307.7411764  +6.4145991     2898.137     4629.062     4751.758      78.7009     157.4646     315.4002      1.703     4.21     868.2053     55.60547     373.3229        23     1.416     0.953 -88.56   0
       255    149.3430    651.5460 307.8603530  +6.4053750     23624.43     36549.63     38145.61     79.20218     157.7785     315.4629      1.706     4.04     870.7323     55.60547     3074.127        53     1.642     1.097  78.83   0
       256    817.7309    652.5243 307.5827898  +6.4274464     1164.612     1768.943      1815.51     79.20218     157.9039     315.4629      1.599     4.42     863.0006     55.60547     151.3917        14     1.182     0.814 -88.61   0
       257    611.1422    646.8711 307.6687630  +6.4228487     526.0668     660.8552     301.7321     79.20218     157.7785     315.4315      1.166     3.85     865.5931     55.60547     117.7996         6     1.272     0.334 -85.27   0
       258    369.0451    645.6951 307.7693277  +6.4151938      560.052     907.8354     615.0272     79.07716     157.7158     315.5883      1.649     4.29     869.1757     55.60547     87.69257         6     0.892     0.588  88.25   0
       259    985.8810    641.1946 307.5133457  +6.4377531     6656.138     11052.34     11816.95      78.7009     157.3389     315.2433      1.751     4.25     858.8493     55.60547     913.1816        41     1.713     1.098  62.00   0
       260    579.4128    636.4451 307.6822886  +6.4260859     47744.97     72941.69     76420.51     78.44905     157.5903     315.2119      1.675     3.89     865.6873     55.60547     6025.667        65     1.621     1.117  76.42   0
       261    222.4217    637.8173 307.8304736  +6.4135054     802.8438     1240.505     1041.631     78.82652     157.5903     315.4002      1.723     5.52     870.0061     55.60547     100.1881        10     1.626     0.529  63.46   0
       262    943.8754    638.6018 307.5308755  +6.4374174     596.3171     771.0833     1174.172     78.57507     157.2131     315.3374      1.605     5.34     860.3488     55.60547     78.37946         8     1.103     0.729  75.24   0
       263    187.1015    633.1516 307.8452965  +6.4142400     2682.064     4280.055     4400.302     79.07716     157.7158     315.6511      1.651     4.37     870.2604     55.60547     359.0753        24     1.483     0.994  72.60   0
       264     30.3331    640.5166 307.9101385  +6.4059093     1144.022      1872.47     2056.721     79.32701     158.0291     315.5256      1.717     5.37     871.4204     55.60547     171.7202        11     1.449     0.562  66.88   0
       265    509.2430    632.8447 307.7115466  +6.4252137     527.1216     899.7042     1106.835     79.07716     157.7785     315.3688      1.592     3.47     866.5771     55.60547     86.86523         5     1.004     0.346  45.55   0
       266     79.6130    627.3387 307.8901229  +6.4130119     1265.483     1832.026     2010.299     78.57507     157.5903     315.1805      1.531     4.18      870.758     55.60547     171.4118        13     1.191     0.708  71.16   0
       267    476.6259    620.2291 307.7255149  +6.4293235     59990.21     93876.23     98816.53     78.57507     157.5903     315.3374      1.694     3.93     866.9224     55.60547     7401.344        80     1.671     1.179  77.29   0
       268     19.9450    621.5592 307.9150926  +6.4133820      1882.09     3060.867     3197.971     78.95193     157.7785     315.4943      1.685     4.90     871.0603     55.60547     276.0345        22     1.730     0.826  64.76   0
       269    662.4176    617.3663 307.6484630  +6.4367473     869.5718     1407.862     1627.945      78.7009     157.5903     315.3061      1.660     4.14     864.0953     55.60547     146.6415         7     0.994     0.491 -87.25   0
       270    151.0981    615.1609 307.8608530  +6.4204502     1558.348     2441.594     2277.986     79.07716      157.653     315.6824      1.589     4.92     870.2927     55.60547     207.8063        15     1.401     0.711  79.52   0
       271    622.6486    612.0762 307.6651547  +6.4375954     887.3378     1394.726     1505.194     78.95193     157.8412     315.4629      1.735     4.78     864.5867     55.60547     140.8531        10     1.207     0.602  88.16   0
       272    430.3385    612.4997 307.7449953  +6.4309566     949.8052     1148.134      986.212     78.82652      157.653     315.5883      1.459     4.95     867.6435     55.60547     148.2479         9     1.096     0.694  67.46   0
       273     23.2267    611.7785 307.9140608  +6.4175293     601.3988     936.8265     1459.649     78.57507     157.5903     315.4002      1.768     5.31     870.8065     55.60547     95.98016         9     1.491     0.534  78.53   0
       274    330.3998    611.4367 307.7865288  +6.4280311     584.5281     875.9277     881.2122     78.06976     157.5903     315.2747      1.665     5.27     868.1169     55.60547     94.46381         5     1.040     0.754 -81.05   0
       275    322.1843    609.5715 307.7900030  +6.4285242      2106.65     3388.915     3679.662      78.7009     157.5275     315.3688      1.747     4.48     868.1649     55.60547     277.0787        23     1.556     0.961  75.79   0
       276    970.9543    610.5873 307.5205694  +6.4498858     579.0487     789.5565     724.2286     78.44905     157.5903     315.2119      1.510     4.54     858.7623     55.60547     96.51215         6     1.218     0.480  53.67   0
       277    474.1650    607.8486 307.7269535  +6.4343503     901.5539      1366.52     1968.735     78.95193     157.7785     315.4002      1.689     5.61     866.7347     55.60547     131.5255        11     1.185     0.750  79.98   0
       278    748.6744    603.7968 307.6131007  +6.4452419     5151.437     7934.323     7587.792     78.57507      157.276     315.3688      1.642     4.07     863.2612     55.60547     663.9102        28     1.484     0.928  81.09   0
       279    802.2933    599.0798 307.5909934  +6.4489864     13553.29     20934.87     21803.77     78.82652     157.9665     315.5256      1.673     4.09     862.8199     55.60547     1759.382        45     1.617     1.035  79.18   0
       280   1019.7127    599.9078 307.5006794  +6.4559247     1038.345     1402.013     1153.136     79.07716     158.2169     292.0764      1.507     4.62     856.4341     55.60547     139.4894        10     0.935     0.825  61.02  16
       281    544.7123    598.9229 307.6979598  +6.4404058     1008.605     1878.067     2343.496     79.07716     158.0917     315.5256      2.172     5.66     864.4875     55.60547     167.8735        12     1.584     0.570  77.65   0
       282    626.2028    597.3027 307.6641755  +6.4438120     2944.593     4447.026     4396.583     78.82652     157.4646     315.1491      1.600     4.21     864.0806     55.60547     410.8349        24     1.453     0.880  78.79   0
       283    949.2505    597.5537 307.5300189  +6.4545387     626.7792     724.4789     825.9827     79.20218      157.653      315.557      1.411     3.48     859.2889     55.60547     100.4453         5     0.948     0.719  89.06   0
       284     47.2856    597.9301 307.9045395  +6.4240570     739.1583      1104.84     1387.559     79.20218     158.0291     315.4943      1.424     3.43     870.8602     55.60547     113.9028         5     1.004     0.338  45.44   0
       285    943.3422    593.2980 307.5326150  +6.4560974     1027.085     1649.695     2413.275     78.82652     157.7158     315.6197      1.965     5.50     859.3012     55.60547     139.1929        11     1.166     0.785  83.17   0
       286    238.4355    590.9504 307.8254059  +6.4333872     1104.127     2095.482      2287.87     78.95193     157.7785     315.4002      2.143     5.06     868.9028     55.60547     153.9432        14     1.376     0.831  80.27   0
       287    384.6736    590.3989 307.7647015  +6.4385409     844.2833      1327.46     984.2664     78.44905     157.2131     315.3374      1.716     5.04     867.0252     55.60547     131.8907         8     1.139     0.632  84.53   0
       288    878.3556    582.2861 307.5599709  +6.4584662     2677.913     4199.565     4393.213     79.07716      157.653     315.4315      1.668     4.46     860.6741     55.60547     351.7097        20     1.469     0.787  72.12   0
       289    173.3819    581.8181 307.8527263  +6.4349624     766.7471     1269.523     1944.237     78.82652     157.4646     315.4002      1.726     5.41     869.4947     55.60547     118.4519         9     1.371     0.603  80.65   0
       290    837.1204    579.7391 307.5771799  +6.4581359     2442.298     3810.551     3565.867     79.20218     157.7785     315.4629      1.637     3.99     861.5595     55.60547     335.3655        20     1.422     0.838  75.85   0
       291    750.5993    576.4456 307.6132197  +6.4565946     766.9363      1355.92     1646.622     78.44905     157.5275     315.0235      2.032     4.68     862.6766     55.60547     97.87567         9     1.451     0.428  80.12   0
       292    808.0307    575.6413 307.5893974  +6.4588522     2429.367     3974.991     5027.976     78.57507     157.5903     315.3061      1.770     4.11      861.997     55.60547     320.3402        20     1.396     0.856  73.88   0
       293    265.0161    574.6611 307.8149184  +6.4410058     7438.726     11578.95     11528.47     78.57507     157.7158     315.2747      1.661     4.10     867.6961     55.60547     964.9971        35     1.545     1.010  79.29   0
       294    817.6748    570.9304 307.5855506  +6.4611197     152865.5       236588     250092.4     79.20218     157.9039     315.4629      1.670     4.03     861.6913     55.60547     19463.61       130     1.747     1.241  76.49   0
       295    199.2489    569.1412 307.8424135  +6.4410666     55630.69     90022.02     96464.57     79.07716     157.7785     315.5256      1.736     4.16     868.8099     55.60547     7148.801        84     1.722     1.248  75.62   0
       296    747.4404    571.4323 307.6146997  +6.4585578     682.1864     868.5984     1382.914      78.7009     157.5903     315.3374      1.458     3.91     862.6228     55.60547      111.633         5     1.137     0.385  72.95   0
       297    123.2865    565.5032 307.8740783  +6.4400053     5897.534     9671.123     10524.38     79.07716     158.1543     315.4943      1.816     4.20     869.8953     55.60547     757.0991        38     1.613     1.163  78.60   0
       298    988.6188    562.6458 307.5148398  +6.4702634     1265.871     1730.271     1445.565      78.7009      157.653     315.2433      1.559     4.85     857.0641     55.60547     161.8137        12     1.264     0.678  71.89   0
       299   1009.5262    562.4798 307.5061629  +6.4710313     643.1897     1139.771     1025.028     79.32701     158.0291     315.5256      1.819     3.86     856.6647     55.60547     105.8311         6     1.075     0.397  72.32   0
       300    237.8784    561.0145 307.8266474  +6.4457230     736.7831     1229.631     1092.675      78.7009     157.5275     315.3061      1.589     4.39      867.822     55.60547     131.4172         7     0.974     0.562  77.44   0
       301    854.2489    558.3407 307.5707847  +6.4675413     4308.689     6731.096     7450.537     79.07716     157.7785     315.5256      1.706     4.00     860.9413     55.60547     568.2694        26     1.446     0.959  75.32   0
       302    372.6564    556.3060 307.7708405  +6.4522067     16457.43        25932     27616.31     78.95193     157.7785     315.6511      1.723     3.97     865.6353     55.60547         1997        48     1.641     1.075  75.72   0
       303    462.7221    556.1658 307.7334452  +6.4552953       583.19     1104.732     773.9639     78.95193     157.7785     315.4315      1.782     5.11     864.9575     55.60547     86.93323         7     1.258     0.587  56.30   0
       304    174.5109    555.2106 307.8531559  +6.4459814     1765.217     2915.857      3477.67     78.82652     157.5275     315.2747      1.782     4.28     868.8466     55.60547     244.4725        20     1.429     0.856  77.85   0
       305    808.1827    551.6675 307.5901387  +6.4687517     5637.189     8826.509     9724.913     78.57507     157.7158     315.3688      1.671     3.97     861.2986     55.60547     781.7376        33     1.504     1.027  80.60   0
       306    539.0134    551.1672 307.7019329  +6.4599235     6241.548     9782.092     10320.17     78.57507     157.5275     315.3688      1.661     3.92     863.3549     55.60547     842.5731        34     1.552     1.015  75.65   0
       307    249.6024    552.9780 307.8220504  +6.4494349     863.0955     1124.293     1089.825      78.7009     157.4646     315.2119      1.423     4.43     867.2337     55.60547      140.447         8     1.152     0.486  86.66   0
       308    111.5684    552.2079 307.8793932  +6.4450967     887.4732     1361.914     1069.022     78.57507     157.5903     315.2747      1.611     5.36     869.9456     55.60547     123.9685        11     1.295     0.763  64.39   0
       309    179.8913    552.3705 307.8510176  +6.4473350     629.1617     978.7184     1845.346     79.20218     157.5275     315.4002      1.721     4.63     868.6818     55.60547     106.3171         5     0.893     0.681  44.49   0
       310    397.2522    547.9243 307.7609095  +6.4564938     1469.012     2132.863     2307.347     79.07716     157.8412     315.4629      1.595     3.88      865.255     55.60547     187.6192        14     1.217     0.754  65.13   0
       311    186.0888    544.3536 307.8487149  +6.4508526     6459.706     10202.41     10897.93     79.07716      157.653      315.557      1.730     4.13     868.3498     55.60547     818.1342        34     1.618     1.008  77.89   0
       312    824.9222    543.8986 307.5834479  +6.4725191     1362.753     2020.915     2085.815      78.7009     158.0291     315.4943      1.638     5.60      860.928     55.60547      169.058        13     1.348     0.656  73.31   0
       313    583.8414    544.0623 307.6835565  +6.4643621     2251.079     4113.168     4205.481     79.07716     157.7158     315.5256      1.892     4.38     862.6831     55.60547     300.3496        29     1.400     1.315 -28.50   0
       314    281.2409    540.8242 307.8093226  +6.4555170     81175.95       131944     139495.5      78.7009     157.5903     315.2433      1.739     4.20     865.9688     55.60547     10925.62        95     1.733     1.239  76.28   0
       315     57.6045    542.9967 307.9021120  +6.4470762     4763.459     7747.683     8025.439     78.44905     157.3389     315.3061      1.734     4.27     871.4236     55.60547     613.9061        31     1.578     0.973  72.06   0
       316    571.0596    538.2924 307.6890584  +6.4663139     801.0207     1271.661     1611.766     78.95193     157.7158      315.557      1.787     5.75     862.6082     55.60547     103.4071        11     1.240     0.751  81.71   0
       317    264.8799    535.8602 307.8162840  +6.4570143     1477.353     2438.153     2598.848     79.20218     157.7785     315.4315      1.799     6.01     866.1501     55.60547     206.0045        18     1.593     0.796  84.85   0
       318    804.4174    533.3260 307.5923179  +6.4761953     15727.59     24148.88      24983.3     78.57507     157.5903     315.3688      1.671     4.01     860.6341     55.60547     1932.368        48     1.620     1.047  75.08   0
       319    980.7191    534.6976 307.5190566  +6.4815338     1632.018     2429.609     2606.091     78.95193     158.0917     315.5256      1.634     4.29     856.3704     55.60547     223.4841        17     1.463     0.778  77.71   0
       320    508.0138    531.6454 307.7154629  +6.4669382     37774.32     65906.61     71355.77     78.44905     157.5903     315.2433      1.885     4.29     863.1663     55.60547     4639.755        83     1.785     1.379  67.41   0
       321    658.5139    529.8073 307.6530265  +6.4727530     821.0335     1384.556     1321.822      78.7009     157.4646     315.2433      1.913     5.46      861.996     55.60547     116.8796        11     1.193     0.704  73.73   0
       322    220.4405    527.9081 307.8350057  +6.4587981     1776.676     2931.171     3567.475     79.07716     157.7158     315.5256      1.892     4.46     866.8978     55.60547     236.8479        22     1.444     0.986  76.17   0
       323     55.9829    528.1337 307.9032878  +6.4531553      1092.96     1717.993     1782.438     78.57507     157.7158     315.3374      1.771     5.57     871.0926     55.60547     150.3863        12     1.352     0.646  74.61   0
       324    730.3201    525.9977 307.6233350  +6.4767350     1182.096     1969.004     2058.326     78.44905      157.276     315.2119      1.751     5.06     861.6618     55.60547     172.5584        15     1.466     0.734  71.62   0
       325    678.3152    526.9438 307.6448997  +6.4745995     1419.633     2223.895     2176.705     79.07716     157.7785     315.5883      1.700     4.71      861.881     55.60547     202.6772        16     1.267     0.855  69.50   0
       326    667.9987    526.6927 307.6491924  +6.4743569     2997.071     4695.666     4392.806     78.57507     157.4018     315.2119      1.659     4.07     861.9095     55.60547     414.7253        24     1.355     0.996  74.73   0
       327     85.9159    523.4395 307.8910172  +6.4561033     672.4853     1666.878     1936.809     79.07716     157.7158     315.4002      2.472     8.35     870.0216     55.60547      112.969        14     1.937     1.005  38.03   0
       328    405.8855    522.3079 307.7581876  +6.4673564     1616.533     2359.339     2308.395     78.82652     158.2169      315.557      1.532     5.49     863.7134     55.60547     223.4698        15     1.380     0.694  80.68   0
       329    337.1234    520.5590 307.7868007  +6.4657631     3659.413     5693.323     6285.328     78.95193     157.7785     315.5256      1.694     4.32     864.5496     55.60547     472.4691        24     1.433     0.929  77.56   0
       330    152.3327    519.1650 307.8635825  +6.4601091     23832.41     38663.72     40961.11     78.95193     157.8412      315.557      1.744     4.15     868.3063     55.60547     3113.794        55     1.678     1.132  75.87   0
       331    880.2526    519.4242 307.5612910  +6.4844739      1514.42      2122.08     2384.501     78.57507     157.7785     315.3688      1.527     3.97     858.6101     55.60547     202.2664        15     1.233     0.788 -89.80   0
       332    517.0505    519.9667 307.7121033  +6.4720619     2025.708     3123.243     2959.928     78.95193     157.8412     315.4002      1.601     3.85     862.4761     55.60547     259.8402        17     1.233     0.864  80.84   0
       333    117.3470    517.4719 307.8781674  +6.4596272     2634.476     4350.575     4377.665     78.95193     157.7158     315.4315      1.761     4.15     869.0684     55.60547     334.4243        23     1.446     0.957  71.61   0
       334    354.1513    515.7307 307.7798925  +6.4683292     1012.823     1612.559     1621.241     79.07716     157.7158     315.4943      1.715     5.80     864.2493     55.60547     146.5115        15     1.536     0.774 -83.43   0
       335    977.8879    513.7766 307.5209332  +6.4900736     4805.012     7458.071     7527.667     79.07716     157.5903     315.3374      1.634     4.01     855.5083     55.60547     655.2508        29     1.533     0.944  69.67   0
       336    551.0234    506.6290 307.6984441  +6.4787084         1336     2183.074     2465.309     78.57507      157.653     315.3061      1.719     5.40     861.6468     55.60547      200.603        17     1.397     0.864  82.75   0
       337     16.6073    503.4573 307.9204725  +6.4620089     23517.04     38238.48     40575.14     78.44905      157.653     315.2119      1.764     4.19       871.59     55.60547     2798.736        59     1.708     1.131  74.83   0
       338    449.3910    500.3500 307.7408608  +6.4778825     40215.48     64072.29     67724.89     78.57507      157.653     315.1491      1.734     4.05     861.9334     55.60547     5014.839        72     1.667     1.208  77.79   0
       339    657.4203    500.0268 307.6544816  +6.4850071     11528.53     18026.82     18918.18     78.57507     157.5275     315.3688      1.661     4.13     861.3245     55.60547     1513.941        40     1.552     1.017  78.20   0
       340      1.4933    498.0825 307.9269303  +6.4637164      23582.5     35050.25     38656.22     70.61676     128.0037     240.1744      1.553     4.88     871.9115     55.60547     6304.302        54     1.985     0.898 -87.49  24
       341    297.0701    500.7511 307.8041012  +6.4725887     1003.272     1547.374     1772.038     79.07716     157.7158     315.4943      1.639     4.37      863.999     55.60547      149.718        12     1.163     0.829  55.70   0
       342    214.5496    497.9121 307.8384645  +6.4709788     17973.86     30156.88     32002.38     79.07716     157.5903     315.5883      1.825     4.25     865.6771     55.60547     2040.973        57     1.784     1.166  67.34   0
       343    180.2591    499.0982 307.8526638  +6.4693327     1527.005     2303.586     1756.737     78.82652     157.7158     315.5883      1.598     4.71     866.8584     55.60547     236.1591        17     1.513     0.757  73.06   0
       344    991.3419    498.4377 307.5158597  +6.4968544     1171.864     1886.851      2429.61     79.07716     157.8412     315.4943      1.841     4.62     854.4919     55.60547     166.3823        16     1.288     0.982  65.99   0
       345    919.4913    497.7794 307.5457212  +6.4947212     831.4993     1260.162     1430.051     78.95193     157.5903     315.3061      1.728     5.35     856.3882     55.60547      116.623        10     1.449     0.558  58.21   0
       346    831.4767    498.0349 307.5822647  +6.4916674     886.3371     1465.412      1367.25     78.95193     157.8412     315.4943      1.649     5.27     858.6949     55.60547      123.119        14     1.458     0.724  68.88   0
       347    579.1582    496.6900 307.6870947  +6.4837558     2665.706     4253.255     4222.364     79.07716     157.7785     315.4943      1.694     3.92     861.2889     55.60547     382.4292        24     1.446     0.975  75.72   0
       348    953.0616    494.0663 307.5319040  +6.4973775      4538.63     6874.334     7285.925     79.07716     157.7158     315.4629      1.593     4.10     855.3326     55.60547     623.7715        27     1.457     0.926  74.43   0
       349    626.2171    492.4567 307.6676942  +6.4870836     6178.756     9616.407     10302.88     78.57507     157.7158     315.2119      1.696     3.95       861.16     55.60547     825.0344        31     1.513     0.999  73.27   0
       350    113.7999    493.2317 307.8804593  +6.4695113     1083.175     1724.096     1764.509     78.32283     157.5275     315.2119      1.775     5.12     868.5314     55.60547      147.087        14     1.448     0.664  82.24   0
       351    225.7880    492.3152 307.8339865  +6.4736676     508.4129     739.3251     1223.914      78.7009     157.5903     315.3061      1.494     3.77      865.043     55.60547     91.93433         5     1.014     0.402  85.56   0
       352    975.6876    486.3729 307.5227652  +6.5013100     3226.172     5121.294     5712.819     79.20218     157.5275     315.3688      1.735     4.46     854.3729     55.60547     393.9571        24     1.649     0.845  70.01   0
       353    538.4216    483.6585 307.7044502  +6.4877650     7118.955     11251.29     12103.19      78.7009     157.7158     315.3061      1.742     4.13     860.8065     55.60547     915.7586        34     1.542     1.027  73.15   0
       354    414.2241    485.0258 307.7559809  +6.4830235     737.6031      1306.98     1771.337     78.57507     157.5903     315.3688      1.935     5.44     861.2043     55.60547     91.11725        10     1.268     0.659  58.16   0
       355    384.4794    483.8246 307.7683736  +6.4825181     2508.474     4077.379     4005.279     78.82652     157.5903     315.4629      1.757     3.90     862.1537     55.60547     363.4928        25     1.418     1.030  81.95   0
       356    754.4136    485.0158 307.6147056  +6.4944570     579.2003     842.5801     602.9261     78.82652     157.4646     315.4002      1.813     4.72     859.8281     55.60547     102.2718         7     0.963     0.655  25.94   0
       357    107.5564    482.6941 307.8834081  +6.4736493     581.8555     892.2529     575.2267     79.07716     157.7785     315.5883      1.639     3.35     868.4443     55.60547     106.1624         5     0.767     0.424  66.18   0
       358    548.3588    481.0229 307.7004122  +6.4891867     721.0091     1136.616     1394.698      78.7009     157.5903     315.2433      1.848     5.80     860.6979     55.60547     111.6028        10     1.293     0.732  78.90   0
       359    894.9041    479.5166 307.5565446  +6.5014352     3105.286     4857.868     5248.605     78.95193     158.1543      315.557      1.746     4.09     856.3939     55.60547     428.8779        23     1.524     0.837  73.09   0
       360    242.8331    478.9367 307.8273599  +6.4797635     548.0399      606.582     652.6467     78.95193     157.8412     315.4315      1.510     4.25     864.1063     55.60547     80.23071         5     0.922     0.637  62.52   0
       361    902.2990    474.1774 307.5536525  +6.5038865     2028.861     3134.838     3117.927     79.07716     157.5275     315.2433      1.664     4.07     856.0399     55.60547     271.4147        21     1.409     0.913  72.95   0
       362    941.5240    473.2148 307.5373944  +6.5055971     1174.803     1831.979      1893.05     78.57507     157.5275     315.3061      1.525     4.17     854.9953     55.60547      160.169        11     1.198     0.641  73.04   0
       363    121.0199    472.5184 307.8781611  +6.4783032     610.3627     949.0339     923.6583     78.82652     157.4646     315.4002      1.578     4.22     867.8033     55.60547     111.0707         6     1.295     0.392  73.60   0
       364    726.3083    469.8591 307.6268866  +6.4997696     2734.375     4177.994     4209.289     78.95193     157.7158      315.557      1.607     4.16     859.6876     55.60547     409.8156        20     1.413     0.798  76.70   0
       365    279.6412    471.0017 307.8123424  +6.4842789      509.662     785.3375     403.7626     78.44905     157.4646     315.1805      1.635     4.81     863.0438     55.60547      96.6012         5     1.368     0.479  88.72   0
       366    397.0934    467.9828 307.7636691  +6.4894807     3519.962     5701.738     6107.335     78.82652     157.5903     315.3374      1.762     4.38     861.0386     55.60547     481.1509        29     1.573     1.010  80.66   0
       367    437.3183    468.5717 307.7469447  +6.4905914      1041.43     1296.606      1362.55     78.95193     157.5903     315.4002      1.561     5.21     860.3622     55.60547     151.7933        12     1.267     0.725  78.78   0
       368     87.9183    468.7307 307.8920348  +6.4787489     1917.212     2891.775     3240.782     79.32701     158.0291     315.4943      1.683     4.18     868.5907     55.60547     256.9304        18     1.338     0.879  84.44   0
       369    624.9087    464.6690 307.6691719  +6.4985080     9389.624     14810.54     15589.69     79.07716     157.9039     315.4629      1.704     4.01     860.1436     55.60547     1234.897        41     1.601     1.082  81.86   0
       370    787.6031    461.2298 307.6017206  +6.5053868      15768.5     24284.77     25401.03     78.57507     157.5903     315.2747      1.660     3.97     857.9791     55.60547     1990.113        44     1.560     1.053  75.38   2
       371    791.4955    456.0580 307.6002776  +6.5076517     1219.415     2016.776      2594.78     78.95193     157.7785     315.5883      1.762     4.99     857.6835     55.60547     171.7219        11     1.423     0.526  79.05   3
       372    307.2767    461.3643 307.8011912  +6.4891875     2503.527     4002.849     4139.782     78.95193     157.8412     315.4943      1.730     4.30     862.3852     55.60547     320.2577        24     1.519     0.932  79.86   0
       373    431.0160    460.9221 307.7498196  +6.4935364     657.1528      991.986     824.0768      78.7009     157.5275     315.3374      1.453     3.72     860.1023     55.60547     103.7639         5     1.026     0.388  57.96   0
       374    390.4723    458.0464 307.7667536  +6.4933586     1481.492     2229.785     2532.795     79.07716     157.8412     315.4629      1.602     5.08     860.8527     55.60547     198.1691        15     1.343     0.782  79.36   0
       375    816.5834    458.0840 307.5897905  +6.5076566     1248.538     1955.134     2336.271      78.7009     157.4646     315.3688      1.854     5.24     857.2334     55.60547     219.7961        12     1.133     0.784  85.54   0
       376    972.6830    456.1481 307.5250257  +6.5136837      1990.07     3071.602     2896.977     79.07716     157.7785      315.557      1.627     4.50     853.4266     55.60547     257.9099        19     1.499     0.869  73.63   0
       377    125.0927    453.0285 307.8771283  +6.4864841     3997.465     6812.144     7205.928     79.20218     157.5275     315.3688      1.805     4.68     867.1226     55.60547     508.1974        32     1.653     1.014  72.51   0
       378    763.2432    452.1740 307.6121414  +6.5083074     2427.404      3533.78     3636.992      78.7009     157.7785     315.3688      1.547     3.76     858.1365     55.60547     329.7405        19     1.338     0.826  83.41   0
       379    378.7159    453.4691 307.7717901  +6.4948519     777.6684     1006.344     908.1609     79.32701     158.0291     315.4943      1.588     4.02     860.9553     55.60547     117.3863         6     1.025     0.451 -89.77   0
       380    282.7737    450.1439 307.8117452  +6.4929926     1497.243     2605.615     3046.645      78.7009     157.8412     315.3061      1.753     6.04        862.3     55.60547     190.4453        17     1.527     0.772  80.67   0
       381    360.9789    447.7902 307.7793474  +6.4965984      2908.65     4628.191     4706.174      78.7009     157.5275     315.2747      1.696     4.40     861.2148     55.60547     397.1234        23     1.532     0.875  76.45   0
       382    717.0459    445.6223 307.6315474  +6.5094617     1703.672     2500.567     2333.114      78.7009     157.7785     315.3061      1.598     4.46     858.5839     55.60547     248.5035        15     1.326     0.750  84.10   0
       383    990.7124    444.0036 307.5179447  +6.5192993      503.375     887.9103     1155.884     78.57507     157.4646     315.1491      2.169     5.84     852.4273     55.60547      80.1167         8     1.457     0.660  67.78   0
       384    248.8971    443.4980 307.8260377  +6.4945935     753.2043     1474.255     1139.262     79.07716     158.2794     315.3061      1.945     4.46     863.0425     55.60547     118.0165         9     1.099     0.802  56.32   0
       385    558.5063    438.5140 307.6976283  +6.5070716     810.4505     1283.853     1440.517     79.07716     158.2169      315.557      1.842     5.62     859.0082     55.60547     130.1586        10     1.469     0.607  67.49   0
       386    458.8417    438.6570 307.7390138  +6.5036615      607.139     971.9836      485.361     78.95193     157.7785     315.4943      1.627     4.67     859.1401     55.60547      92.4494         7     1.051     0.589 -74.03   0
       387    706.9951    437.4202 307.6359971  +6.5125095      487.037     713.5645     652.3444      78.7009     157.4646     315.2747      1.394     3.27     858.1879     55.60547     96.73511         5     0.972     0.607  89.79   0
       388    480.6474    436.5479 307.7300291  +6.5052654     1251.045     1967.557     1533.609     79.20218      157.653     315.4943      1.708     6.08     858.9117     55.60547     152.5598        16     1.488     0.797  74.38   0
       389    843.0272    435.9085 307.5795522  +6.5176951      1427.09      2083.61     2516.341     79.20218     157.5275     315.3374      1.665     4.26     855.8822     55.60547     198.3798        15     1.270     0.786  81.23   0
       390    828.9432    434.8865 307.5854358  +6.5176448     1951.171     3106.669     2809.142     79.07716     157.7785     315.5883      1.622     4.22     856.0654     55.60547     267.5577        19     1.331     0.936  65.47   0
       391    726.0847    432.9221 307.6282202  +6.5150065     14188.52     22058.94     23443.53     79.07716     158.0917      315.557      1.639     4.21     857.8897     55.60547     1917.221        44     1.577     1.039  75.21   0
       392    647.2772    429.0193 307.6610807  +6.5139721     2363.673     3795.925      3920.83      78.7009     157.5275     315.4315      1.726     4.46     858.2045     55.60547     305.8434        22     1.559     0.871  72.72   0
       393    622.3633    426.1204 307.6715251  +6.5143319     5177.686     7688.502     8285.501     78.95193     157.8412     315.4629      1.587     5.04     858.3438     55.60547      698.068        21     1.381     0.882  85.57   3
       394    618.6098    423.3347 307.6731777  +6.5153555     13596.18     22180.75     23293.66     78.57507     157.5903     315.3374      1.778     4.03     858.2418     55.60547     1614.044        46     1.682     1.108  73.26   2
       395    951.4509    422.9009 307.5349579  +6.5266948     3518.927     5417.271     5621.715     79.07716     157.7785     315.6824      1.649     4.53     853.0756     55.60547     525.8185        25     1.417     0.970  73.16   0
       396    390.4329    418.6845 307.7680965  +6.5096021     27456.54     43818.68     45783.96     79.07716     157.5903     315.4315      1.744     4.16      859.257     55.60547     3398.089        54     1.653     1.120  75.55   0
       397    136.4888    418.2336 307.8735715  +6.5012284     2193.325      3539.68     3940.091     79.20218     157.7158     315.4629      1.824     4.84     865.8399     55.60547      297.717        22     1.623     0.825  74.48   0
       398    906.9319    418.0986 307.5536087  +6.5271862     1479.337     2687.519     3524.937     79.07716     157.9039     315.4943      2.319     5.30     854.0909     55.60547     188.2199        20     1.518     0.914  71.91   2
       399     69.7874    413.4745 307.9014319  +6.5009405     1426.026     2671.931     2990.106     78.57507     157.4646     315.2433      2.010     5.68     867.3111     55.60547     166.3181        21     1.568     0.989  79.64   0
       400    920.1539    413.2087 307.5482813  +6.5296471     4766.914     7180.818     7494.332     78.57507      157.653     315.1177      1.619     4.14     853.6743     55.60547     634.2726        25     1.399     0.901  78.24   0
       401    247.9973    409.1707 307.8275699  +6.5087300     12544.19     20683.22      21864.5     78.57507     157.5903     315.2747      1.741     4.19      862.179     55.60547     1589.561        47     1.678     1.100  77.98   0
       402    742.9659    403.9277 307.6221830  +6.5275392     645.6785     1160.011     1226.362     78.95193     157.7158     315.4315      2.072     5.26     856.3934     55.60547     99.03827         8     1.399     0.558  73.28   0
       403     83.3116    403.8503 307.8961410  +6.5053691     738.4628     1125.446      1253.19     79.07716     157.5903     315.5883      1.700     5.35     866.8058     55.60547     109.7198         9     1.339     0.604 -84.57   0
       404    971.6796    401.5192 307.5272730  +6.5361965     978.0834     1405.234      1496.48     79.32701     158.0291     315.6197      1.706     4.87     851.4402     55.60547     153.6101         9     1.233     0.545  73.71   0
       405    710.9575    402.4081 307.6355278  +6.5270924     648.7249     1096.612     1556.275     78.57507     157.5903     315.2119      1.756     4.45     856.3647     55.60547     118.4401         7     1.261     0.446  67.57   0
       406    360.8159    398.8560 307.7810648  +6.5167881     1182.093     1788.329     1889.347     78.44905     157.7158     315.2119      1.729     4.81       858.86     55.60547     163.6028        15     1.272     0.801 -86.07   0
       407    193.7033    399.1261 307.8504567  +6.5110444     856.0615     1553.986     1486.507     78.82652     157.9665     315.4943      2.082     4.61     863.7413     55.60547     144.7244        11     1.298     0.630  84.73   0
       408    148.2256    397.7624 307.8693891  +6.5100728     4911.478     8025.418     8241.269      78.7009     157.5903     315.3061      1.759     4.54     865.2566     55.60547     660.3174        28     1.528     0.961  77.49   0
       409    253.2491    396.5555 307.8258146  +6.5141133     1368.907     2343.937     2371.303     79.07716      157.653     315.4629      1.841     5.17      861.701     55.60547     185.2684        15     1.417     0.755  86.51   0
       410    445.7267    396.4432 307.7458824  +6.5206421     750.8287     1035.027     1101.146     78.95193     157.8412     315.4943      1.493     5.38     857.3038     55.60547     98.32776        11     1.122     0.729  45.12   0
       411    834.4866    394.4330 307.5844910  +6.5345264     769.6306     1122.043     1083.492     79.07716     157.5903     315.4629      1.638     4.48     854.7768     55.60547     108.6925         8     1.142     0.498  87.94   0
       412    170.3763    393.3986 307.8603376  +6.5126212     2297.997     3904.233     4605.958      78.7009     157.4646     315.2433      1.977     5.11     864.5715     55.60547     305.3768        25     1.704     0.932  86.44   0
       413    565.8954    393.1647 307.6960854  +6.5260359     906.9957     1374.248      1009.21     79.20218      157.653      315.557      1.658     5.65      856.538     55.60547     119.6999        10     1.295     0.695  79.91   0
       414    281.8204    388.9648 307.8142052  +6.5182090     848.0723     1578.859     1389.167     78.57507     157.5903     315.2433      1.861     6.37     860.7103     55.60547     121.0933        12     1.527     0.747  74.52   0
       415    393.7549    388.4181 307.7677370  +6.5222049     1925.175     3030.807     2690.015      78.7009      157.653     315.2119      1.682     4.49     857.7293     55.60547     243.1071        20     1.516     0.798  73.85   0
       416     12.3801    389.2331 307.9260916  +6.5090053     878.4187      1367.36     1525.159     78.57507     157.5903     315.2747      1.798     6.13     868.0897     55.60547      132.331        10     1.223     0.865  78.60   0
       417    982.6853    388.1826 307.5231488  +6.5420690     754.7394     1328.731     1775.652      78.7009     157.5275     315.4002      2.085     4.60      850.296     55.60547     109.8126         8     1.033     0.581  71.49   0
       418    600.7205    386.4074 307.6818493  +6.5299948     451.2378     760.9956     681.1589      78.7009     157.3389     315.2433      1.477     4.13     855.8291     55.60547     78.38776         5     1.175     0.414  13.95   0
       419    327.8145    385.7321 307.7952129  +6.5210929     569.3391     714.0256     705.0104     78.57507      157.653     315.3688      1.566     3.91     859.2052     55.60547     83.25098         5     0.936     0.467  46.96   0
       420     43.9111    382.7461 307.9132168  +6.5127478     2970.297     5160.491     5807.302     79.07716      157.653     315.5883      1.907     4.50     867.2116     55.60547     379.1863        29     1.703     1.045 -87.41   0
       421    447.6760    382.0416 307.7455579  +6.5266513     6809.931     11225.77     12286.53     78.95193     157.7785     315.4943      1.769     4.18     856.5291     55.60547     812.5617        37     1.598     1.102  71.34   0
       422    788.2301    379.4476 307.6042057  +6.5391604     12644.83     19178.72     20435.07      78.7009     157.8412     315.3688      1.651     3.98     854.9101     55.60547     1744.491        40     1.576     0.988  73.24   0
       423    780.3333    380.9461 307.6074351  +6.5382772      1884.49      3152.77     3600.394     79.07716     157.7158     315.4002      1.813     4.87     855.0425     55.60547     241.9556        18     1.434     0.814  76.41   0
       424    351.7844    377.7460 307.7855274  +6.5251961     1115.238     1663.376     2040.063     78.44905     157.7785     315.1805      1.630     5.62     858.0558     55.60547     157.7495        13     1.286     0.802  67.73   0
       425      2.1012    368.7525 307.9310532  +6.5171101     899.9174     1843.222     2681.353     76.92068     136.3139     249.8264      2.779     7.14     867.9241     55.60547     114.0904        15     2.204     0.647 -67.01  24
       426    963.2880    371.1515 307.5317761  +6.5484489     630.2272     756.8138     806.8318     79.07716      157.653     315.5256      1.371     3.37     850.3796     55.60547     132.9268         6     1.013     0.645 -40.95   0
       427    196.6475    370.4380 307.8502028  +6.5229832     875.8514     1469.713     982.5552     78.95193     157.7785     315.3374      1.726     5.00     862.9636     55.60547     116.3358         9     1.062     0.667  83.53   0
       428    913.5123    369.5246 307.5525045  +6.5474539     652.5817     922.4591     846.3102     79.07716     158.0917      315.557      1.798     5.92     852.4374     55.60547     119.0682        10     1.360     0.725 -77.69   0
       429    495.7157    365.8387 307.7261520  +6.5349543     2982.698     4729.198     4434.289     79.07716     157.7158     315.4002      1.708     4.30      855.045     55.60547     377.1707        25     1.567     0.963  82.94   0
       430    467.8657    366.1872 307.7377069  +6.5338737     2210.563     3692.736     4051.833     78.57507     157.5903     315.3688      1.775     4.00     855.2963     55.60547     324.4714        24     1.568     0.940  79.34   0
       431    924.4493    365.9153 307.5480829  +6.5493097     787.4551     1166.246     1237.749     79.07716     157.7785      315.557      1.453     5.03     851.9899     55.60547     121.6855         9     1.141     0.629  88.90   0
       432    853.6182    362.3763 307.5776206  +6.5483978     31860.92     51027.67     53806.39     78.82652     157.7158     315.3688      1.739     4.14     853.9073     55.60547     3965.571        63     1.757     1.093  80.64   0
       433    999.5825    362.6805 307.5169852  +6.5531596     537.8793     659.4053      453.572      78.7009     157.4646     315.3688      1.718     4.80     848.1585     55.60547     86.28534         7     1.355     0.482 -85.21   0
       434    345.9173    358.2805 307.7886204  +6.5330320      708.141     903.5312     1155.004     79.07716     158.0291      315.557      1.519     5.01     857.3928     55.60547     96.46356         8     0.941     0.754  86.37   0
       435    625.1996    354.7322 307.6727477  +6.5438897     2696.217     4418.037     5039.841     78.44905      157.276     315.2433      1.744     4.20     853.4319     55.60547     344.4089        26     1.457     1.048  57.55   0
       436     33.4745    355.0415 307.9184880  +6.5238286     1142.974     1770.267     1312.242     78.95193     157.8412     315.4943      1.637     5.44     866.8644     55.60547     141.0666        15     1.377     0.747  60.64   0
       437    868.4186    350.1672 307.5718830  +6.5539326     1182.899     1907.749     2048.761     78.57507     157.5903     315.2747      1.836     5.46     853.3577     55.60547     181.4819        14     1.527     0.639  77.74   0
       438    710.0671    348.3602 307.6377136  +6.5493687     76635.64     119102.4     126039.9     78.95193     157.7158      315.557      1.685     4.29     853.5563     55.60547     10265.42        91     1.679     1.214  75.08   0
       439     89.2386    347.8590 307.8955724  +6.5286764     1281.159     2253.868     2477.697     79.07716     157.8412     315.5256      1.897     5.63     865.3312     55.60547     161.6526        14     1.355     0.754  74.99   0
       440    572.4830    345.0743 307.6949675  +6.5461046     2564.329     3991.597     4063.431     79.20218     158.0917     315.5256      1.656     4.22      853.428     55.60547     349.4634        20     1.443     0.818  72.72   0
       441    951.4495    345.2969 307.5375597  +6.5587232     810.6535     1297.285     1216.883     78.95193     157.7158     315.6197      1.659     4.98     849.9144     55.60547      110.298         8     1.099     0.639  81.22   0
       442    109.8061    343.8570 307.8871660  +6.5310224     5777.068     9521.712     10002.18     78.57507      157.653     315.1805      1.746     4.27     864.9142     55.60547     682.7161        34     1.568     1.060  76.13   0
       443    399.9821    345.2944 307.7666042  +6.5402118     564.7266     955.1207     925.0195     78.95193     157.5903     315.3374      1.796     4.09     855.7274     55.60547     93.96252         5     0.844     0.565 -88.16   0
       444    555.7817    341.2704 307.7020321  +6.5471132     6928.353     10955.18      11099.1     78.57507      157.653     315.4002      1.683     4.11     853.4161     55.60547     876.5088        34     1.534     1.014  75.04   0
       445    284.6969    338.8477 307.8147016  +6.5389892      2480.15     4132.266     3616.948     79.07716      157.653     315.6197      1.773     4.36     859.3692     55.60547     283.8777        24     1.482     0.970  76.95   0
       446    418.6786    336.3680 307.7591399  +6.5445251      24397.8     39462.75     41212.54     78.95193     157.7785     315.4315      1.763     4.20     855.0286     55.60547     2859.642        59     1.688     1.146  77.83   0
       447    526.3266    335.3761 307.7144641  +6.5485557     1128.012     1762.172     1866.349      78.7009     157.5903     315.4002      1.772     4.83     853.2355     55.60547     191.0757        17     1.508     0.809  78.97   0
       448    397.9557    333.5004 307.7678433  +6.5450110     1006.272     2182.247     3362.151     79.07716      157.653     315.6824      3.281     7.38      855.453     55.60547     148.0668        18     2.359     0.647  63.09   2
       449    685.2201    334.6334 307.6484948  +6.5542000     581.6965     833.2006     1261.821     78.57507     157.5903     315.3061      1.594     4.04     852.6479     55.60547     115.9039         6     0.946     0.606  63.07   0
       450    597.7944    334.5416 307.6848091  +6.5513020     455.5457     810.0541     671.9463     78.57507      157.653     315.1805      1.462     3.34     852.6375     55.60547     102.1125         5     1.144     0.283 -54.23   0
       451    498.0511    331.6899 307.7263319  +6.5491262     1114.111     1749.528      1942.88     79.07716     157.5903     315.5883      1.595     4.56     853.1189     55.60547     139.9207        13     1.235     0.757  51.91   0
       452    813.3828    328.7801 307.5954596  +6.5609149      896.876     1446.253      1686.83     78.82652     157.5903     315.3688      1.769     4.74     852.7648     55.60547     125.0466         9     1.312     0.486  89.32   0
       453    649.8525    328.4804 307.6633912  +6.5555520     730.5547      1117.57     1476.001     79.07716     157.7785     315.4629      1.674     4.79     852.2211     55.60547     109.1874         7     1.039     0.626  87.24   0
       454    507.7789    326.7773 307.7224570  +6.5514808     8092.431     13311.06     14315.11     78.82652     157.5903     315.4315      1.767     4.17     852.8243     55.60547     1023.484        35     1.583     1.032  76.06   0
       455    776.8461    325.6596 307.6107399  +6.5609777     3045.295     4916.623     5449.986     78.95193     157.7785      315.557      1.721     3.99     852.7148     55.60547     444.2784        23     1.464     0.927  78.22   0
       456    932.6835    325.2201 307.5460273  +6.5663810     773.8635     1270.407     1012.955      78.7009     157.4646     315.4315      1.749     6.54     849.7572     55.60547     114.7856        11     1.233     0.973 -81.25   0
       457    122.3952    325.7557 307.8825495  +6.5389177     450.6891     505.2021     723.8524     78.44905     157.4018     315.1491      1.253     3.51     864.3416     55.60547     77.81903         5     0.781     0.455 -73.72   0
       458    724.6730    324.8851 307.6324358  +6.5595473     759.4373     1026.005     1003.791     79.20218     158.0917     315.4943      1.520     3.43     852.5541     55.60547     111.6978         7     0.975     0.610 -73.08   0
       459    334.8102    323.5262 307.7944055  +6.5470009     1065.082     1671.915     1629.057     78.57507     157.4018     315.3374      1.717     5.58     856.9587     55.60547     143.2916        11     1.162     0.754  89.10   0
       460    170.0203    317.1771 307.8630601  +6.5440654     989.1676      1309.66     1214.283     78.82652     157.5903     315.4002      1.429     4.02     862.7601     55.60547      160.363         9     0.997     0.623  58.78   0
       461    397.6522    310.9134 307.7687307  +6.5543225     6904.644     11193.79     11487.93     79.07716      157.653     315.5256      1.730     4.08     854.7935     55.60547     819.3679        36     1.592     1.039  77.56   0
       462    253.4955    311.3377 307.8285885  +6.5492908     1946.916     3073.902     3135.818     78.82652     157.8412     315.5256      1.720     4.69     859.4172     55.60547     234.1866        20     1.470     0.918  80.20   0
       463    751.2717    310.7423 307.6218632  +6.5662765     1046.724     1927.126     1798.663     79.20218     157.7785     315.4315      1.895     5.64     851.9015     55.60547     138.6959        15     1.403     0.853  85.07   0
       464    765.5892    306.8744 307.6160463  +6.5683531     52065.87     80909.52     85397.86      78.7009     157.4018     315.3061      1.677     4.14     851.6846     55.60547     6836.817        74     1.671     1.139  76.02   0
       465    437.1795    306.3191 307.7524684  +6.5575490     2175.934     3671.402     3221.536     78.82652     157.4646     315.4002      1.797     4.14      853.367     55.60547     324.1089        23     1.529     1.006  87.96   0
       466   1000.4490    304.2894 307.5185817  +6.5772876     1796.694     2525.607     2352.894     79.07716     157.5903      315.557      1.566     3.77     847.7526     55.60547     255.9097        16     1.312     0.753  70.91   0
       467    583.4253    303.8931 307.6918083  +6.5634680     1173.903     1786.424     1183.293     79.20218     157.5275     315.3061      1.561     5.79     851.2874     55.60547     157.0654        13     1.332     0.709  78.78   0
       468    941.4372    303.1245 307.5431321  +6.5757933     2196.322     3276.033      3268.52     78.95193     157.8412     315.4943      1.628     4.58     848.5497     55.60547      293.918        15     1.303     0.730  77.79   0
       469    474.2201    302.5703 307.7372104  +6.5603424      1160.78     1997.983     2343.131     78.57507     157.5903     315.3374      2.046     6.01     851.8631     55.60547     166.6696        14     1.312     0.867  77.06   2
       470    423.6458    301.9699 307.7582360  +6.5588885     1759.944     2776.298     2687.131      78.7009     157.8412     315.3374      1.704     4.14      853.701     55.60547     241.6143        17     1.332     0.904  78.24   0
       471    303.7990    301.8165 307.8080175  +6.5549157     704.6344     1029.106     991.2172      78.7009     157.3389     315.1805      1.542     5.07     857.2966     55.60547     105.8666         6     1.156     0.629  78.25   0
       472    845.1022    296.2835 307.5833755  +6.5753898     1112.205     1587.592      1735.57     79.07716     158.1543     315.5256      1.584     4.95     850.6235     55.60547     157.5443        10     1.116     0.621  67.07   0
       473    200.2973    293.3639 307.8512899  +6.5549144     2139.842     3505.077      3635.22     79.07716      157.653     315.6197      1.715     4.67     860.9614     55.60547     297.4415        20     1.550     0.793  75.07   0
       474    764.0466    291.4927 307.6172036  +6.5746495     5866.148     8992.112      9570.43     78.95193     157.7158     315.5883      1.708     4.27     850.8171     55.60547     812.8556        32     1.516     0.991  78.93   0
       475    454.1895    293.2675 307.7458433  +6.5635078     1134.255     1701.995     2047.039     78.57507     157.5903     315.3061      1.728     4.63     852.1648     55.60547     161.0253        12     1.170     0.685  80.16   0
       476    235.3809    291.7757 307.8367724  +6.5567531      769.408     1232.767     940.6884     78.82652     157.5903     315.4002      1.738     5.82     859.7195     55.60547     112.1732        10     1.241     0.770  89.65   0
       477     96.5718    290.8746 307.8944533  +6.5524409     1027.672     1584.958     1754.782     78.95193     157.7158     315.4002      1.869     5.27     864.4941     55.60547     142.6308        16     1.350     1.011  78.38   0
       478    354.6069    291.3157 307.7872696  +6.5609610     556.2699     934.8127      491.867      78.7009     157.4646     315.3061      1.730     5.59     855.6135     55.60547      86.7406         8     1.391     0.632  79.01   0
       479    780.3795    289.3431 307.6104918  +6.5760844     2613.972     3942.287     4030.493      78.7009     157.7785     315.2747      1.607     4.15     850.7086     55.60547     347.1316        21     1.411     0.864  73.72   0
       480     83.7731    284.8908 307.8999712  +6.5544782     1213.533     1809.027     1570.579     79.20218     157.5275     315.3374      1.615     5.14     864.3972     55.60547     172.6514        13     1.393     0.630  67.43   0
       481    369.8296    283.8861 307.7811975  +6.5645399      1485.35     3247.597     3389.783     79.20218     157.4646     315.3688      2.201     6.81     854.8944     55.60547     181.5135        26     1.458     1.336   7.98   0
       482   1018.6210    280.3798 307.5118347  +6.5877634     5888.036     8714.534     8791.159     78.82652     157.7158     302.7553      1.618     3.80     847.2844     55.60547     765.2566        28     1.506     0.875  76.64  16
       483    496.7455    280.0435 307.7286132  +6.5703970     1986.539     3068.337     3174.158     79.07716     157.7785     315.4629      1.698     4.07     850.5335     55.60547     251.2543        17     1.242     0.887  68.91   0
       484    259.1999    275.7482 307.8274207  +6.5641708       5452.9     9010.815     9544.849     78.32283      157.276     314.9921      1.734     4.21     858.4824     55.60547     698.8252        31     1.565     1.023  80.21   0
       485    824.1619    274.8995 307.5927911  +6.5835134     548.9759     935.5161     1442.208     79.07716      157.653     315.6824      1.663     4.14     849.8229     55.60547     101.3013         5     1.417     0.345  84.57   0
       486    267.4283    276.2269 307.8239870  +6.5642506     585.4145     744.1149     1696.946     78.57507     157.5903     315.3061      1.269     3.48     858.1374     55.60547     90.07819         5     0.772     0.454  71.67   0
       487    927.0069    274.6610 307.5500804  +6.5870574      594.951     913.3876     899.8144     78.44905     157.5903     315.2119      1.518     4.75      847.403     55.60547     92.24554         7     0.909     0.705  72.53   0
       488    778.6331    268.5731 307.6119146  +6.5845979     789.6403     1302.949     1201.802     78.57508     157.5275     315.2433      1.722     5.73     849.8821     55.60547     105.5873        10     1.303     0.711  79.33   0
       489    236.3254    269.0295 307.8371480  +6.5661722     539.1982     863.3176     769.1967     78.95193     157.7785     315.4629      1.386     3.97     859.3969     55.60547     92.04938         6     1.399     0.322  75.51   0
       490    130.9919    269.1601 307.8808919  +6.5625645     469.3979     465.6398    -22.25669     78.44905     157.5903     315.1805      1.298     3.94     862.7689     55.60547     70.70691         5     1.298     0.342  64.48   0
       491    393.4405    266.5694 307.7719747  +6.5724815     1532.151     2603.273     2156.421     78.57508     157.5275     315.3374      1.789     5.47     853.3589     55.60547     190.7727        19     1.539     0.812  69.27   0
       492    980.5114    265.8023 307.5281529  +6.5925046     1034.582     1629.262     1867.367     78.44905     157.4018     315.2119      1.656     5.38     846.7137     55.60547     139.5295        11     1.230     0.663  82.07   0
       493    315.6240    262.9936 307.8044159  +6.5713363     1090.127     1525.831      1295.08     78.57507     157.5903     315.3374      1.652     3.92     856.1765     55.60547     179.9312        11     1.113     0.760  82.45   0
       494    163.1891    262.3542 307.8677494  +6.5664599     1698.341     2802.664      2912.27     78.57507     157.5903     315.1491      1.741     4.43     861.4271     55.60547     248.5319        17     1.487     0.718  77.67   0
       495    572.8290    257.8559 307.6977585  +6.5821118     1922.961      3346.07     3341.533     78.82652     157.8412     315.3688      1.734     4.80     849.5965     55.60547     268.6843        20     1.649     0.748  73.08   0
       496    916.5530    257.2169 307.5550076  +6.5939067     1701.308     2960.542     3342.258     78.57507     157.7158     315.2119      1.872     4.73     846.8999     55.60547     209.4738        19     1.518     0.858  64.01   0
       497    736.4690    255.6394 307.6298627  +6.5885214     4936.796     7538.245     8369.307     78.95193     157.7785      315.557      1.694     4.09     849.5277     55.60547     608.3667        29     1.495     0.957  76.03   0
       498    677.2804    255.3740 307.6544567  +6.5866445     1997.842      2931.36     3142.738     78.95193     157.5903     315.4629      1.644     4.23     849.9226     55.60547     276.2999        19     1.450     0.788  85.21   0
       499    974.5229    255.4608 307.5309870  +6.5965723     643.9684     827.1693     717.6424     79.32701     157.8412     315.4315      1.364     3.74     846.2039     55.60547     102.0041         6     0.945     0.425  71.93   0
       500    392.0273    249.6271 307.7731328  +6.5794260     631.1142     984.7515     747.9431     78.57507     157.5903     315.3061      1.550     4.31     852.6548     55.60547     96.23627         6     0.929     0.570  88.92   0
       501    932.6339    247.6446 307.5486490  +6.5983959     1064.146     1522.995     1316.987      78.7009      157.653     315.3688      1.512     4.99     846.1088     55.60547     176.7625        11     1.323     0.617  69.52   0
       502    878.5920    239.8089 307.5713598  +6.5998197     1620.051     2621.443     2430.031     78.44905     157.5903     315.3374      1.741     5.22     847.2524     55.60547     215.2032        17     1.435     0.806  68.38   0
       503    235.8949    240.6298 307.8382857  +6.5778781     2280.438     3458.629     3292.746     79.20218     157.5275     315.3688      1.655     4.16     859.0875     55.60547     329.2993        20     1.450     0.816  73.41   0
       504    769.2101    239.2358 307.6168140  +6.5963897     1556.869     2447.318     2441.598     78.57507     157.5903     315.2433      1.661     5.66     848.7057     55.60547      189.464        13     1.195     0.755  77.90   0
       505    469.8768    230.7070 307.7414350  +6.5898544     21767.02     34906.59     37030.35     78.82652     158.0291     315.4629      1.730     4.10     849.5275     55.60547     2771.287        54     1.639     1.131  77.01   0
       506    795.8939    229.8682 307.6060447  +6.6011506     12881.73     20369.72     22592.34     78.95193     157.9665     315.4943      1.696     4.08      848.143     55.60547     1675.422        52     1.558     1.332  73.65   0
       507    475.4135    225.2911 307.7393177  +6.5922759     1384.503     2328.966     2485.725     78.82652     157.5275     315.2433      1.809     4.28     849.2529     55.60547     187.0375        14     1.419     0.694  89.47   0
       508    734.4990    225.4122 307.6316966  +6.6009303     731.3753     1167.915      968.833     78.82652     157.5275     315.2433      1.674     4.85     848.4522     55.60547     106.2424         8     1.332     0.500 -89.52   0
       509    158.0426    223.7374 307.8711918  +6.5822231     2169.123     3677.094     4051.067     79.07716     157.7158      315.557      1.800     4.49     860.8286     55.60547     326.2557        25     1.581     0.971  77.83   0
       510    132.7729    222.6270 307.8817249  +6.5818284     995.0469     1452.993     1514.548     78.57507     157.5903     315.3061      1.739     5.49     861.7552     55.60547     147.1546        12     1.426     0.597  74.55   0
       511    331.4405    232.8570 307.7988632  +6.5843065     597.2414     889.7685     980.9893     79.07716     157.8412     315.4943      1.776     4.21      854.968     55.60547      83.4848         5     0.902     0.561  43.73   0
       512    932.2985    220.3142 307.5497048  +6.6096642     1341.156     1955.962     2176.432     79.07716     158.2169     315.5256      1.586     4.82     844.8841     55.60547     175.0878        14     1.232     0.776  71.40   0
       513    184.6879    220.8245 307.8602232  +6.5843244     516.3326     903.9953     1012.634     79.07716     157.5903     315.3374      1.558     4.21     860.1278     55.60547     114.0416         6     1.104     0.457 -85.76   0
       514    593.9726    216.5271 307.6903668  +6.5998789     4455.471      7105.44     7121.599     78.82652     157.7158     315.4002      1.692     4.35     848.0969     55.60547     583.4569        30     1.550     0.990  74.80   0
       515    556.6240    216.4219 307.7058841  +6.5986671     1956.808     3025.774     2931.893      78.7009     157.5903     315.4315      1.613     4.28     848.1909     55.60547     265.6998        18     1.472     0.764  78.14   0
       516    314.2431    217.0662 307.8065390  +6.5902438     1063.757     1806.622     1865.793     79.07716     157.7158     315.4943      1.818     5.26     855.7848     55.60547     148.7026        13     1.498     0.621  80.89   0
       517    398.3423    215.4879 307.7716607  +6.5937279     1585.659     2610.228     2850.134     79.07716     157.7158     315.5883      1.809     5.67     851.1315     55.60547     182.8211        18     1.444     0.822  69.52   0
       518    954.8324    213.8265 307.5405619  +6.6130963     2546.503     3875.366     4087.425     78.57507     157.5275     315.2747      1.618     4.32     844.4001     55.60547     346.8763        24     1.500     0.892  77.48   0
       519    901.0057    213.1170 307.5629449  +6.6115866     11175.87     17175.17     17839.29      78.7009     157.4018     315.2433      1.609     4.36      845.364     55.60547     1552.067        39     1.520     1.035  73.07   0
       520    699.0667    211.2165 307.6468916  +6.6056000     2508.047     3950.256      4465.68     78.57507     157.7158     315.3688      1.742     4.88     848.4847     55.60547     377.0484        23     1.848     0.747  72.45   0
       521    576.1555    212.8978 307.6978898  +6.6007780     715.5652     1310.755      1557.99     79.07716     157.7158     315.6824      2.117     4.81      847.971     55.60547     109.1439         9     1.394     0.470  63.33   0
       522    328.8170    212.8437 307.8006280  +6.5924775     862.8319     1747.978     2412.696     78.57507      157.653     315.2433      2.392     4.84     854.9261     55.60547     136.5579         9     1.335     0.497  77.05   0
       523    987.5909    210.9364 307.5270510  +6.6153855     9396.776     14356.67     14768.66     78.57507     157.5903     315.2747      1.610     4.08     843.8786     55.60547     1238.016        33     1.496     0.950  73.44   0
       524     27.1337    209.6024 307.9260416  +6.5836353        24142      39322.7     42132.58     78.44905     157.4646     315.2433      1.751     4.19     863.9709     55.60547     3234.183        61     1.694     1.167  78.70   0
       525    273.1682    210.3814 307.8238253  +6.5916183     1104.653     1862.621     1771.794      78.7009     157.5903     315.3374      1.833     5.81     857.7531     55.60547     142.6077        13     1.221     0.777  89.68   0
       526    507.6673    205.7930 307.7265772  +6.6014077     1938.312     3258.908     2919.777     78.57507     157.5275     315.3061      1.694     4.25     848.0321     55.60547     268.5873        20     1.508     0.828  75.75   0
       527    839.6170    202.4169 307.5888043  +6.6139458     2161.142     3438.209     3338.542     78.82652     157.4646     315.4002      1.730     4.29     846.3313     55.60547     270.9357        18     1.329     0.818  80.19   0
       528    891.8157    201.6451 307.5671471  +6.6160134     1896.002     3017.603     3202.242     78.57507     157.5903     315.2433      1.751     4.33     845.0698     55.60547     273.8896        20     1.510     0.827  76.34   0
       529    519.5654    201.7094 307.7217725  +6.6034931     2405.874     3576.646     3517.928     79.20218      157.653     315.4629      1.655     4.33     847.7294     55.60547     302.0798        20     1.389     0.869  71.90   0
       530    751.1566    199.0266 307.6256638  +6.6123788     38615.41      60176.3      63104.3      78.7009     157.8412     315.3688      1.644     4.21     847.5048     55.60547     5466.152        63     1.637     1.115  76.76   0
       531    354.2075    198.3913 307.7905693  +6.5992973     5770.232     11595.94     13289.76     78.44905     157.5903     315.3374      2.148     6.04     853.4803     55.60547     672.2004        49     2.148     1.118 -85.13   0
       532    984.8704    197.7539 307.5286229  +6.6207350      2796.27     4220.178     4430.002     79.07716     157.7158     315.4629      1.574     4.31     843.2158     55.60547     391.0544        19     1.417     0.785  80.09   0
       533   1023.1036    196.4427 307.5127848  +6.6225554     1582.711     2511.855     2714.474      75.2299     133.6754     246.5976      1.701     4.95     842.5078     55.60547     240.3766        16     1.469     0.818  69.94  24
       534    919.0721    196.1191 307.5560103  +6.6192070     7324.857     11085.04      12079.7     79.32701     158.0917     315.4943      1.662     4.25      844.207     55.60547     982.1958        30     1.495     0.919  79.51   0
       535    462.5897    195.1723 307.7456590  +6.6042745     4747.411     7658.953     7833.114      78.7009     157.5903     315.3374      1.734     4.25     848.3166     55.60547     580.4664        29     1.535     0.972  78.50   0
       536    237.1168    191.8540 307.8394251  +6.5980488     660.1954      1071.94     966.2308     79.07716     157.7785      315.557      1.478     5.00     858.8965     55.60547      107.675         9     1.336     0.529  67.12   0
       537    119.9404    186.5057 307.8882758  +6.5963020     4632.354     7197.535     7824.208     78.95193     157.7785      315.557      1.698     4.22     861.2383     55.60547      617.839        28     1.531     0.925  77.08   0
       538    939.3074    185.8043 307.5479505  +6.6241416     974.3474     1385.026     1456.887      78.7009     157.4646     315.2119      1.536     5.00     843.4255     55.60547     151.9044        11     1.101     0.719  74.72   0
       539    265.6201    184.2589 307.8278423  +6.6021444      6124.23     9914.208     11006.38      78.7009      157.653     315.2747      1.759     4.17     858.0309     55.60547     769.9877        36     1.594     1.063  76.01   0
       540    616.0859    184.5974 307.6822556  +6.6137994     699.5074     1444.988     1790.909     78.44905     157.4018     315.1805      2.085     5.61     846.7043     55.60547     103.6302        10     1.358     0.653 -84.68   0
       541    290.2426    183.1775 307.8176514  +6.6034207     32170.93     52844.79     55576.26      78.7009      157.653     315.3061      1.752     4.12     857.2849     55.60547     4052.775        62     1.674     1.186  77.50   0
       542    719.4380    182.5377 307.6393935  +6.6181196     822.6092     1050.808     1264.202     79.07716     157.8412     315.4629      1.563     5.25     847.2405     55.60547     139.7235        10     1.357     0.693  75.89   0
       543    414.3172    178.6884 307.7662657  +6.6094528     47294.99     76852.83     80534.59     78.82652     157.9665     315.4943      1.748     4.18     849.6592     55.60547     6078.249        70     1.687     1.174  75.59   0
       544    170.2500    179.9405 307.8676013  +6.6007097      3802.76     6203.063     6233.668     79.07716     157.7785     315.4943      1.703     4.34     859.6356     55.60547     490.7243        27     1.617     0.912  76.05   0
       545    431.6978    179.2045 307.7590288  +6.6098249     1470.702     2232.427     2351.794     78.82652     157.4646     315.1491      1.611     4.45     848.8925     55.60547     192.3473        16     1.285     0.842  85.65   0
       546    318.3329    176.3405 307.8062143  +6.6071890     17587.17      28234.7     30269.13     79.20218     157.7158     315.4629      1.758     4.13     855.6334     55.60547     2188.547        51     1.644     1.128  76.48   0
       547    753.6240    174.9215 307.6254487  +6.6224099     31786.17     49774.03     52259.63      78.7009     157.5903     315.4629      1.658     4.19     846.7737     55.60547     4008.656        58     1.645     1.079  75.19   0
       548    326.0008    175.5991 307.8030543  +6.6077533     1896.511     3766.476      4559.71     78.44905     157.3389     315.1491      2.339     7.70     855.1545     55.60547     218.6674        29     2.158     0.953 -84.95   0
       549    701.6953    176.9277 307.6469522  +6.6198394      773.278     1267.432     747.4446     78.95193     157.9039     315.4629      1.567     4.38     847.1898     55.60547     160.3664         6     0.965     0.565  66.80   0
       550     41.1539    175.4328 307.9213745  +6.5982104     659.2473     1071.764     1125.698     78.82652     157.7785     315.4002      1.651     5.67     863.9658     55.60547      100.771         9     1.249     0.726 -89.16   0
       551    801.9288    175.4920 307.6053637  +6.6237945     1220.718     1526.311     1710.286     78.95193     157.9665     315.4629      1.432     5.16     846.6514     55.60547     156.8037        11     1.091     0.690  74.22   0
       552     70.3703    172.1089 307.9093518  +6.6005693     8745.766      13997.8     13860.14     79.20218     157.5275     315.4002      1.714     4.08     862.7245     55.60547     1042.198        34     1.586     1.005  73.44   0
       553    104.2710    170.0309 307.8953412  +6.6025719     1355.662     2266.229         2080     78.95193     157.7785     315.4315      1.743     4.89     861.2665     55.60547     181.4363        15     1.330     0.767  74.98   0
       554   1012.1898    169.1963 307.5182314  +6.6334353     1127.663     1575.238     2013.033     78.57507     157.4646     315.3374      1.492     4.50     841.0315     55.60547     163.8672        15     1.299     0.892  78.26   0
       555    634.5901    162.1859 307.6753230  +6.6236703     383.5068      565.071     582.7343     78.82652     157.5275     315.4002      1.219     4.18     846.0563     55.60547     79.43921         5     1.157     0.432  77.31   0
       556    587.5378    159.2533 307.6949669  +6.6232998     798.6525     1135.219     1316.342     79.07716     157.7158     315.4315      1.576     5.80     845.3851     55.60547     106.2729        11     1.248     0.758  80.15   0
       557   1013.0822    155.6027 307.5183162  +6.6390754     2162.623     3559.423      4121.81     78.44905     157.4018     315.1491      1.815     5.91     840.2303     55.60547     283.3947        23     1.744     0.926  68.52  16
       558      3.9251    157.1981 307.9374546  +6.6044773     719.4352     871.6099      726.509     78.57507     154.6112     275.6596      1.355     4.88     865.9559     55.60547     117.4393         8     0.996     0.678  64.16  16
       559    595.9845    152.9525 307.6916703  +6.6261840     1038.667     1657.713     2089.862     78.57507      157.653     315.2119      1.605     4.27     845.2407     55.60547     148.7034        13     1.272     0.713  79.51   0
       560    282.0839    152.9803 307.8220595  +6.6156079     671.4703     1208.411      1870.39      78.7009     157.4646     315.4315      2.139     6.38     857.6003     55.60547     96.75415        10     1.241     0.921  79.15   0
       561    604.2589    151.3109 307.6882884  +6.6271395     1944.318     3104.789     3393.246     78.95193     157.8412     315.5883      1.729     4.37     845.1995     55.60547     261.5377        19     1.446     0.825  76.14   0
       562    348.6661    151.5806 307.7944499  +6.6184293     1017.985     1514.141     1204.273      78.7009     157.7785     315.3688      1.685     5.09     853.6528     55.60547     146.1596        12     1.248     0.791 -85.23   0
       563    289.1875    149.4384 307.8192284  +6.6173091     29274.78     47170.92     50247.71      78.7009     157.5903     315.1805      1.754     4.14     857.4219     55.60547     3718.103        64     1.683     1.188  77.52   0
       564     34.3888    148.0761 307.9251100  +6.6092715     4316.958     6862.106     7424.039      78.7009     157.4018     315.3061      1.756     4.31     864.2529     55.60547     546.8641        31     1.804     1.033 -83.85   0
       565    720.7799    146.0359 307.6400627  +6.6332292     7686.061     12112.69      12635.9     78.57507     157.5903     315.2747      1.680     4.05     845.6137     55.60547     1017.188        34     1.516     1.026  76.80   0
       566    198.1659    147.2214 307.8571114  +6.6151545     916.9188     1159.673     680.4307     78.57507     157.5903     315.2119      1.604     5.92     858.8762     55.60547      110.041        13     1.213     0.813  70.86   0
       567    131.6679    143.2687 307.8848663  +6.6145414     4690.333     7518.764     8055.874     79.07716     157.9039     315.4629      1.745     4.14     859.4969     55.60547     575.5571        30     1.596     0.967  74.13   0
       568    274.8592    144.4008 307.8253501  +6.6189050     770.0836     1287.188     1529.422     78.32283     157.5275     315.1491      1.760     4.61     857.7283     55.60547     107.9026         8     1.122     0.636  65.17   0
       569    470.6643    140.7007 307.7441401  +6.6270266     1296.273      2136.44     2026.948     79.07716     157.8412     315.4943      1.773     6.18     846.3602     55.60547     197.1775        15     1.421     0.756  69.19   0
       570    659.3876    140.5099 307.6657512  +6.6334489     848.3842     1274.917     1152.222     78.82652     157.5275     315.3061      1.553     4.42     845.6556     55.60547     143.6397         7     1.197     0.464  82.33   0
       571    593.3481    141.0238 307.6931668  +6.6310184     716.2617     1040.317      1591.68     78.57507     157.7785     315.3688      1.470     2.84     844.9228     55.60547     129.0366         5     0.856     0.471 -84.03   0
       572    402.3362    139.3116 307.7725699  +6.6253001     3729.441     6158.594     6478.551     78.95193     158.0291     315.4943      1.831     4.15     850.0014     55.60547     484.4727        28     1.531     0.973  74.37   0
       573    366.7370    138.0255 307.7874007  +6.6246321     2929.083     4710.095     4330.016      78.7009     157.7785     315.3688      1.675     4.65     852.2756     55.60547     347.4711        23     1.540     0.871  79.05   0
       574    578.7900    138.1883 307.6993097  +6.6316994     708.7683     1397.027     1431.251     78.82652     157.5903     315.4315      2.067     6.95     844.8295     55.60547     95.64081        11     1.336     1.012  57.45   0
       575    682.5042    135.4730 307.6563178  +6.6363038     772.2972     1294.764     1387.898     78.95194     157.9039     315.4629      1.583     3.45       845.45     55.60547      111.691         8     1.015     0.499  87.52   0
       576   1013.5055    132.2802 307.5189219  +6.6487150     1565.104     2358.465     2222.497     78.82652     158.0291     315.5256      1.580     4.28     838.8199     55.60547     206.7303        17     1.314     0.886  77.89   0
       577    739.7371    131.9832 307.6326600  +6.6396649     447.9047     765.7157      1065.49     78.57507     157.7158     315.3061      1.622     4.38     844.6121     55.60547     93.28973         5     1.387     0.394  81.50   0
       578    218.6075    127.0057 307.8493033  +6.6241869     5196.756     8322.053     8346.063     78.44905     157.5903     315.3061      1.709     4.16      858.375     55.60547     666.8171        30     1.536     0.988  76.88   0
       579    101.3443    127.0068 307.8980116  +6.6202285     1971.666     3170.168     3735.496     78.57507      157.653     315.1805      1.789     4.25     859.6389     55.60547      253.118        19     1.338     0.937  69.76   0
       580    680.3749    125.8994 307.6575242  +6.6401834     5917.153     9237.941       9665.9     79.20218     157.5275     315.3374      1.672     4.23      845.048     55.60547     842.5694        31     1.534     0.973  78.46   0
       581    828.3511    125.8810 307.5960535  +6.6451552     1059.677     1477.994     1403.959     79.07716     157.7785     315.4943      1.493     5.14     843.5432     55.60547      154.796        10     1.280     0.584  77.72   0
       582    632.5624    123.1333 307.6774790  +6.6397193     9001.064     14486.02      15781.9     78.95193     157.7158      315.557      1.747     4.12     844.6659     55.60547     1128.705        37     1.613     1.020  77.26   3
       583    636.0803    114.6094 307.6763043  +6.6433554     51860.87     81768.65     86651.97      78.7009     157.4018     315.3374      1.707     4.15     844.4087     55.60547     7243.895        77     1.696     1.165  76.48   2
       584    267.4632    123.6054 307.8291243  +6.6272378     821.1363     1259.336     1139.602     78.44905     157.5903     315.2119      1.760     7.31     857.7274     55.60547     119.6517        15     1.475     1.015  76.40   0
       585    120.8620    137.7161 307.8895424  +6.6164680     1578.806     2483.552     2232.487     79.20218     157.7785     315.4943      1.638     4.26      859.598     55.60547      221.891        17     1.352     0.862  89.19   0
       586     31.3494    122.0744 307.9272522  +6.6198993     915.0983     1678.944     1556.718     79.07716     157.8412     315.4943      1.929     5.57     864.1276     55.60547     142.8353        14     1.312     0.891  76.79   0
       587    359.7385    118.8207 307.7909556  +6.6323221     3346.964     5993.099     6679.703      78.7009     157.7785     315.3688      1.974     4.78     852.4626     55.60547     418.5924        31     1.720     1.084 -86.52   0
       588    541.3524    118.0351 307.7155398  +6.6387582     1648.244     2475.174     2594.365      78.7009     157.7785     315.4002      1.578     5.03     844.3713     55.60547     217.4615        16     1.405     0.745  78.62   0
       589   1005.6488    117.3325 307.5226867  +6.6546212     727.0296     1206.412      1721.49     78.95193     157.7158     315.4943      1.854     6.95     838.2604     55.60547     97.71057        10     1.784     0.759  72.36   0
       590    315.1793    108.2964 307.8098202  +6.6351642      3547.71     5704.491     6331.692     78.95193     157.5903     315.2747      1.745     4.14     855.5165     55.60547     447.4957        28     1.541     0.998  75.83   0
       591     12.6538     91.4118 307.9360555  +6.6319213     734509.4      1642641      1810755     78.44905     157.7158     315.1805      2.235     6.72     864.7216     55.60547     61695.96       474     2.353     1.856  82.78  28
       592    510.4032    105.2039 307.7288283  +6.6430129     647.3677       875.67     1087.894     78.44905     157.3389     315.2747      1.413     4.72     844.7015     55.60547     98.65375         8     0.940     0.672  73.70   0
       593    715.0579    102.6004 307.6438996  +6.6509632      951.123     1529.026      1618.36     78.32283     157.4018     315.1491      1.707     4.71     843.2779     55.60547     142.3329        12     1.246     0.795  71.62   0
       594    686.4225    101.6018 307.6558289  +6.6504141      1275.61     2072.585      1710.85      78.7009     157.4646     315.2119      1.761     5.19     843.7659     55.60547     151.1965        15     1.332     0.772  73.33   0
       595    700.4448     98.4549 307.6501095  +6.6521836       3068.5     4801.457     4691.028     79.07716     157.7785     315.4943      1.710     4.20     843.2925     55.60547     380.7198        24     1.455     1.035  75.26   0
       596    442.2554     89.6714 307.7576608  +6.6471303     3866.435      6390.84     6387.606     78.95193     157.7158     315.4315      1.747     4.24     847.2968     55.60547     508.4703        29     1.566     1.044  69.43   0
       597    914.6548     84.9223 307.5615752  +6.6649511     3647.559      5692.96      5845.03     79.20218     157.7785     315.4629      1.676     4.27     840.4832     55.60547     481.5862        26     1.499     0.934  66.79   0
       598    896.8873     85.8955 307.5689238  +6.6639543     2120.358     3073.493     2621.601     79.07716     158.1543     315.5256      1.528     3.99     840.8511     55.60547      264.616        18     1.357     0.819  76.40   0
       599    594.8900     85.1027 307.6944082  +6.6541490     701.3443     1020.171     847.8609     79.07716     158.2169     315.4629      1.364     5.02     843.5441     55.60547     114.1176         8     1.259     0.565 -81.71   0
       600    606.8237     83.3693 307.6895090  +6.6552654     1812.555     2698.941     2946.644     78.57507      157.653     315.2433      1.635     3.86     843.4966     55.60547      248.557        18     1.261     0.930  73.35   0
       601    405.8205     81.4507 307.7730733  +6.6492965     1836.408     3028.023     2667.054     78.57507     157.8412     315.3374      1.735     4.52     849.4326     55.60547     236.4084        20     1.516     0.820  75.61   0
       602    253.0393     82.6843 307.8364975  +6.6436393     793.2785     1172.418      1716.21     79.07716     157.7158     315.4002      1.907     5.99     857.2297     55.60547      108.336        11     1.203     0.839  82.15   0
       603    153.6252     78.3071 307.8779415  +6.6420915     3073.945     5076.955     4801.138     79.20218     157.5275     315.3061      1.768     4.36     857.1141     55.60547     383.3655        25     1.512     0.965  76.25   0
       604     35.4181     76.1346 307.9271167  +6.6389953     11910.32     19068.38     19966.38      78.7009     157.7785     315.3688      1.711     4.06     861.8274     55.60547     1485.064        43     1.620     1.065  74.59   0
       605    301.9593     76.5899 307.8163818  +6.6478037     1226.365     1965.952     2346.564     78.44905     157.5903     315.1805      1.697     5.26     856.1058     55.60547      162.565        12     1.253     0.751  78.84   0
       606    770.2867     74.3822 307.6219044  +6.6644621     663.6152     1504.813     2270.771     78.82652     157.5275     315.3374      2.608     5.80     841.6862     55.60547     117.2426        10     1.978     0.478  69.21   0
       607    575.1597     76.0606 307.7029089  +6.6572176     584.8389     995.3535     937.8786     79.07716     157.7785     315.5256      1.533     3.92     843.3958     55.60547     91.04657         6     0.905     0.486  57.21   0
       608    562.3422     75.2216 307.7082617  +6.6571330     733.8556     1194.581     896.0242      78.7009     157.7158     315.2747      1.630     5.09     843.3938     55.60547     113.5545         9     1.272     0.576  75.57   0
       609    904.0175     72.0261 307.5664270  +6.6699172     531.8572     1029.666     942.2801      78.7009     157.5275     315.3688      2.012     6.25     840.2783     55.60547     78.71075         9     1.419     0.773  54.04   0
       610    837.1538     70.7319 307.5942481  +6.6682107     6071.083      9302.91     9976.129     79.07716     157.7158     315.4629      1.637     4.28     841.1083     55.60547     878.4961        30     1.490     0.923  75.30   0
       611    782.2834     71.1785 307.6170282  +6.6661867      3213.63     5039.407     5423.131     78.82652     157.4646     315.3374      1.723     4.22     841.5244     55.60547     436.5345        25     1.494     0.892  74.03   0
       612    427.4955     71.9096 307.7643909  +6.6539637     978.7427     1491.599     1496.722     79.07716     158.2169     315.4629      1.577     5.72     848.1068     55.60547     156.8296        12     1.323     0.696  86.56   0
       613    544.8088     69.0428 307.7157535  +6.6590935     954.3356     1685.562     1772.576     78.57507     157.5903     315.2119      1.814     6.26      843.317     55.60547     140.2445        12     1.763     0.625  69.44   0
       614     75.7156     67.7930 307.9106599  +6.6437995     2937.808     4861.876     5166.478      78.7009     157.4646     315.3061      1.762     4.29     858.8618     55.60547      391.514        27     1.539     1.039  82.25   0
       615     60.3735     69.0340 307.9169908  +6.6427690      897.363     1574.064      1610.29     78.57507     157.5275     315.2433      1.726     5.74     859.8268     55.60547     127.6254        12     1.512     0.615  66.68   0
       616    664.7321     68.6769 307.6659467  +6.6632741     636.9325     826.8872     1054.815     79.20218     157.9039     315.4315      1.544     4.95     843.0958     55.60547     94.36285         6     0.924     0.750  65.96   0
       617    436.9904     67.5197 307.7605946  +6.6560950     982.8336     1372.322     1167.871      78.7009     157.4018     315.3374      1.721     5.59     847.3923     55.60547     131.4534        11     1.300     0.679  73.34   0
       618     18.0857     63.6010 307.9347405  +6.6435819     2475.962     4072.173     4535.621     78.32283     157.3389     315.1491      1.737     4.66     861.7675     55.60547     352.5555        25     1.597     0.938  70.98   0
       619    599.4940     64.6581 307.6931836  +6.6627412     1229.152     1962.866     1813.716     78.95193     157.7785     315.6511      1.590     3.57     843.1555     55.60547     180.5019        10     1.079     0.673  86.31   0
       620    776.9525     58.5253 307.6196679  +6.6712299      1956.33     3046.976     2857.675     78.95193     157.8412     315.4629      1.630     4.11     841.1134     55.60547     246.8834        19     1.408     0.847  79.87   0
       621    417.6602     58.9148 307.7689147  +6.6589955     1090.368     1576.935     1726.735     79.20218     157.8412      315.557      1.579     4.74     848.7108     55.60547     142.0068        12     1.232     0.721  74.21   0
       622     90.8465     59.0363 307.9046708  +6.6479244     789.8356     1211.915     638.7197     78.82652     157.8412     315.3688      1.470     3.69     857.7305     55.60547     131.4655         7     1.135     0.655  82.56   0
       623    114.4097     57.1822 307.8949455  +6.6494854     774.7488     1055.975     1268.433     78.82652     157.5275     315.3374      1.754     4.66     857.1829     55.60547     99.36456         8     1.104     0.559  66.58   0
       624    103.4594     52.2802 307.8996600  +6.6511385     9170.713     14650.26     15708.41     79.20218     157.7785     315.4315      1.759     4.16     857.1875     55.60547     1077.484        37     1.632     1.003  74.86   0
       625    432.6239     52.0840 307.7629288  +6.6623183     2392.951      3747.16     3257.027     78.95193     157.5275     315.4002      1.684     4.36     847.5532     55.60547     327.8165        20     1.500     0.823  75.86   0
       626    253.4053     52.4318 307.8373670  +6.6561365     526.3504     1032.541     1233.725     78.44905      157.653     315.2433      1.762     5.09     856.5574     55.60547     94.82782         7     1.560     0.469  84.40   0
       627    646.2627     44.3461 307.6744378  +6.6726952     18070.93     28040.79     29237.17     79.07716     157.7158     315.4315      1.692     4.15     842.5691     55.60547     2369.295        46     1.617     1.044  79.52   0
       628    270.3111     46.3519 307.8305494  +6.6592157      1516.26     2520.548     3392.168     79.07716      157.653     315.5883      2.106     5.13     856.4027     55.60547     185.9566        17     1.582     0.710  71.05   0
       629    676.5601     45.6446 307.6618076  +6.6731767     598.3849     750.2019      485.427     78.82652     157.7785     315.3688      1.495     4.17     842.4134     55.60547     87.79138         5     1.006     0.493  86.26   0
       630    545.9762     40.3258 307.7162355  +6.6709842     5019.005     7909.554     8352.612      78.7009     157.5903     315.4002      1.674     4.28     842.8415     55.60547     661.7753        29     1.545     0.944  79.81   0
       631    264.3430     40.6495 307.8332212  +6.6613678     1802.147     2983.214     4320.769     79.07716     157.7785     315.5256      2.218     4.21     856.3047     55.60547     239.8083        21     1.463     0.936  69.72   1
       632    632.6403     34.9237 307.6804140  +6.6761263     3038.815      5485.16       6426.1     78.95193     157.7785     315.5256      2.055     6.70      842.427     55.60547     395.2323        30     2.112     0.863  74.57   0
       633    451.5733     36.0200 307.7555982  +6.6695857     21671.66     34619.29     35730.39     78.57507     157.5275     315.3374      1.703     4.01     845.8337     55.60547     2688.615        54     1.636     1.114  75.57   0
       634    272.2296     36.3388 307.8300906  +6.6634127     8909.556     14537.34     15853.67     78.82652     157.7785     315.4315      1.764     4.33     856.1891     55.60547     1094.946        40     1.620     1.068  77.56   0
       635     13.2771     38.6057 307.9375840  +6.6537344     1167.081      1924.74     2120.648      78.7009      157.276     315.3061      1.768     5.91     859.5441     55.60547     152.7299        16     1.202     1.131  27.79   0
       636    332.2570     36.4092 307.8051518  +6.6654070       1083.2     1691.371     1879.876     78.44905     157.7158     315.1805      1.673     6.47     853.7245     55.60547     118.9487        16     1.421     0.891  83.27   0
       637     37.4757     36.0350 307.9276190  +6.6556133     2107.586     3256.247     3605.245     78.95193     157.8412     315.4629      1.661     4.29      858.558     55.60547     295.7736        20     1.431     0.822  76.25   0
       638    929.4378     36.0638 307.5570727  +6.6856105     2003.009     3102.219     3116.186     79.07716     157.7158     315.4943      1.680     4.74     838.9441     55.60547     286.7505        16     1.355     0.737  69.17   0
       639    536.4788     36.1413 307.7203219  +6.6723918     699.4418     937.7244     1234.763     79.20218     157.7785     315.4002      1.511     4.32     842.8652     55.60547     99.30341         6     1.107     0.481  82.26   0
       640    564.5020     34.9800 307.7087193  +6.6738133     592.2846     1102.723     889.3303     78.95193     157.5903     315.2119      1.941     4.42     842.6941     55.60547     118.5203         7     1.101     0.534 -62.51   0
       641    260.0696     32.8945 307.8352583  +6.6644241     2837.248     4903.999     6049.159     78.95193     157.8412     315.4943      1.889     4.45     856.1382     55.60547     370.9144        27     1.566     0.975  71.97   0
       642    313.0921     31.5183 307.8132783  +6.6667795      1061.41     1518.642     1738.743     78.82652     158.0291     315.5256      1.606     4.59     854.7529     55.60547     150.9738        17     1.321     0.929  83.26   0
       643    949.9044     26.3975 307.5488940  +6.6902852     1000.369     1540.884      1639.99      78.7009     157.4646     315.1491      1.634     3.87     836.7952     55.60547     160.1094        12     1.034     0.838  82.26   0
       644    701.4642     25.6277 307.6521344  +6.6822738     1643.746      2383.78     2462.271      78.7009     157.7785     315.4002      1.726     4.72     841.3064     55.60547     222.8527        16     1.464     0.725  73.32   0
       645    106.0995     26.1397 307.8994473  +6.6620154     705.8665     990.6234     813.7606     78.82652     157.7158     315.5883      1.480     4.78      856.504     55.60547     107.1939         8     1.248     0.520  81.14   0
       646    212.4752     21.0315 307.8554304  +6.6677144     772.9775     1334.671     846.1539     78.95193     157.8412     315.4315      1.671     5.37     855.9129     55.60547     108.0797         9     1.041     0.781 -83.01   0
       647    267.1620     20.5952 307.8327273  +6.6697391     785.3069     1367.446     1746.273      78.1964     157.5275     315.2119      1.865     4.20     855.8763     55.60547     128.9908         9     1.017     0.714  86.55   0
       648    760.1199   1020.7521 307.5943553  +6.2735415     1311.192     1984.481     2144.522     79.07716     157.0872     279.9336      1.676     6.37     874.6903     55.60547     154.3792        15     1.299     0.877  85.78  16
       649    967.4890   1014.8285 307.5084705  +6.2829313      6203.55     10460.05     10512.06     79.20218     157.5275     315.3688      1.829     3.93     868.1738     55.60547     686.8101        41     1.630     1.216  73.57  16
       650    721.9795   1015.7562 307.6103557  +6.2743245      859.958     1472.789     2421.819     78.57507      157.653     315.3061      2.151     6.54     875.6381     55.60547     128.1518        11     1.363     0.882  84.53  16
       651    251.9430   1014.7481 307.8055034  +6.2589406     1292.952     1858.519     1937.751     79.07716     157.7785     315.4629      1.657     4.28     876.8815     55.60547      203.514        12     1.225     0.720  82.55   0
       652    727.2681   1012.9358 307.6082549  +6.2756659     2503.118     4107.022     4862.199     79.07716     157.7785     315.4943      1.788     4.55     875.4988     55.60547     344.4643        20     1.467     0.845  79.76   0
       653    450.3532   1013.7209 307.7231787  +6.2660427     958.0053     1097.374      598.558     79.07716     157.8412     315.4315      1.414     5.05     877.7062     55.60547     136.2034        11     1.241     0.716  71.53   0
       654    742.8245   1011.9099 307.6018316  +6.2766109     925.4327     1678.195     1104.274     79.20218     157.5903     315.3061      1.745     6.54     875.1452     55.60547      119.506        15     1.475     0.815  66.62   0
       655    373.9169   1010.1464 307.7550278  +6.2649467     1712.384     2710.118     3038.862     79.07716     157.7785     315.5883      1.652     3.91     877.1155     55.60547     242.3206        16     1.304     0.836  82.75   0
       656    526.3257   1001.7572 307.6920444  +6.2735340     1122.165     1798.464     1240.926     78.95193     157.8412     315.4943      1.750     5.95     877.7652     55.60547     136.7497        13     1.414     0.758  71.40   0
       657    306.5064    999.0386 307.7833840  +6.2672618     14250.87     23330.88      26113.8     79.20218     157.7158      315.557      1.841     4.14     876.8098     55.60547     1770.334        63     1.787     1.449 -72.61   0
       658    760.7820    999.9888 307.5947770  +6.2821330      7468.21     12218.94     12745.71      78.7009     157.4646     315.3688      1.731     4.08      873.913     55.60547     946.3353        38     1.570     1.091  69.28   0
       659    556.2048   1000.4539 307.6796851  +6.2750757     4155.387     6509.118     7329.158     78.44905     157.5275     315.1491      1.711     3.88      877.483     55.60547     545.9445        27     1.491     0.950  73.65   3
       660    553.3695    992.6769 307.6811235  +6.2781901     8193.979     12939.71     14069.22     78.95193     157.8412     315.4629      1.738     3.92     877.3179     55.60547     1015.155        37     1.572     1.034  70.32   2
       661    821.9338    999.5109 307.5694075  +6.2843798     1076.017     1612.155     1073.443     79.07716     157.9665     315.4315      1.681     6.58      871.743     55.60547     126.5753        17     1.495     0.926  89.15   0
       662    430.9395    999.4911 307.7317163  +6.2712626     993.6485     1559.026     1605.564     78.95193     157.8412     315.5256      1.771     4.22     877.2042     55.60547     147.6141        13     1.149     0.825 -89.25   0
       663    277.9907    996.9872 307.7952899  +6.2671480     949.8599     1323.495      1423.24     78.82652     157.5903     315.3688      1.454     4.09     876.7291     55.60547     146.9779         9     1.097     0.585  75.98   0
       664    922.0908    993.3903 307.5280345  +6.2902600     7852.232     13352.51     14519.19     78.82652     157.4646     315.2119      1.834     3.85     869.1918     55.60547     956.5386        42     1.660     1.196  71.46   0
