#   1 NUMBER                 Running object number                                     
#   2 X_IMAGE                Object position along x                                    [pixel]
#   3 Y_IMAGE                Object position along y                                    [pixel]
#   4 ALPHA_J2000            Right ascension of barycenter (J2000)                      [deg]
#   5 DELTA_J2000            Declination of barycenter (J2000)                          [deg]
#   6 FLUX_APER              Flux vector within fixed circular aperture(s)              [count]
#   9 FLUXERR_APER           RMS error vector for aperture flux(es)                     [count]
#  12 FLUX_RADIUS            Fraction-of-light radii                                    [pixel]
#  13 FWHM_IMAGE             FWHM assuming a gaussian core                              [pixel]
#  14 BACKGROUND             Background at centroid position                            [count]
#  15 THRESHOLD              Detection threshold above background                       [count]
#  16 FLUX_MAX               Peak flux above background                                 [count]
#  17 ISOAREA_IMAGE          Isophotal area above Analysis threshold                    [pixel**2]
#  18 A_IMAGE                Profile RMS along major axis                               [pixel]
#  19 B_IMAGE                Profile RMS along minor axis                               [pixel]
#  20 THETA_IMAGE            Position angle (CCW/x)                                     [deg]
#  21 FLAGS                  Extraction flags                                          
         1    177.9014     29.1576 307.8580196  +6.7025319     3210.346     12260.79     15000.17       93.115     185.6397     371.7226      2.877     8.54     1236.799     65.47659     435.0895        60     2.155     1.901 -77.21   0
         2    797.7281     19.7799 307.6003180  +6.7271155     895.1221     1628.452     1435.472     92.67194     185.6397     371.4272      2.023     5.23     1202.448     65.47659     135.0018         9     1.222     0.633  71.10   8
         3    469.4889     18.1269 307.7370159  +6.7168456     755.1897     1723.906     2903.455       93.115     186.0826     371.5011      3.318     4.59     1209.914     65.47659     128.4542         7     0.980     0.610  -7.84   2
         4    383.4000     11.8771 307.7730650  +6.7165463     1251.298     2627.086     4632.854     92.22676     185.0476     371.1316      3.175     7.88     1221.114     65.47659     167.1764        18     1.764     0.985 -80.60   2
         5    380.3234     11.3408 307.7743640  +6.7166648     1215.846     3203.823       4274.2     93.26221     185.8613     371.4272      2.832     4.88      1221.47     65.47659     171.1332        12     1.260     0.947 -73.92   3
         6    868.8336      8.5920 307.5710953  +6.7341008     2039.409     4855.714     5213.936     92.52379     185.5658     371.2425      2.387     7.67     1198.606     65.47659     257.9186        37     1.855     1.735 -19.49  18
         7    869.4354      3.1925 307.5710274  +6.7363494     1542.687     3621.732     4202.685     92.52379     175.3795     312.8439      2.372     7.38     1198.245     65.47659     198.0996        25     1.806     1.390  16.90  19
         8    501.3533      6.1893 307.7241565  +6.7228376     8125.153     15841.32     18625.56     92.52379     185.5658     354.1842      2.104     8.40     1207.026     65.47659     920.6785        39     2.160     1.076  53.35  19
         9    504.6226      3.8346 307.7228754  +6.7239187     7697.092     16559.64     20091.37     92.52378     181.8317     323.1122      2.361    10.03     1206.779     65.47659     882.9451        37     2.291     1.223  37.82  19
        10    645.1600      2.0727 307.6644308  +6.7293381     689.1851     1001.208     808.3199     90.27226     160.2559     293.6624      1.530     4.24     1205.544     65.47659     121.6404         6     1.308     0.391 -33.71  27
        11    642.2981      1.3179 307.6656478  +6.7295541     635.6617      1133.59     1113.304     80.46965     147.6929     279.1485      1.454     4.03     1205.538     65.47659     107.5909         5     1.179     0.395 -61.28  26
        12    767.3992     17.3067 307.6130274  +6.7271259     2579.555     7470.739     8089.718     92.52379     185.2699     371.1316      2.498     6.72     1202.685     65.47659     345.6418        43     1.791     1.693 -75.34   0
        13    916.5834    989.9926 307.5180745  +6.3306062     767.9312     1161.723     1260.175     92.67194     185.4919     371.2794      1.578     5.10     1266.134     65.47659     100.9293         6     0.951     0.773 -26.15   0
        14    867.8301   1022.4686 307.5372582  +6.3155798     6097.443     9233.854     9534.281     92.81986      166.964     301.6816      1.680     3.91     1268.216     65.47659     756.4274        30     1.400     1.139  14.93  24
        15    799.2599    989.5389 307.5668930  +6.3268901     714.0655     1076.044     831.4922       93.115     185.7875     371.5011      1.495     4.39     1266.513     65.47659     107.4106         6     1.150     0.477   8.02   0
        16    633.2055    983.8292 307.6361593  +6.3237145     4625.772      9575.75     10244.99     92.52378     185.5658     371.2425      2.135     4.82     1270.078     65.47659     527.6908        44     1.658     1.537  32.81   0
        17    870.5950    980.0197 307.5375410  +6.3331932     2333.607     4483.372      4777.05     92.67194     185.4179     371.2425      2.067     4.94     1265.483     65.47659     274.5339        28     1.582     1.198 -45.84   0
        18      7.3430    980.3583 307.8966034  +6.3042135     684.2584     1137.085     853.6738     92.96754     185.7875     365.3946      1.412     3.97     1271.511     65.47659     125.8165         5     1.197     0.377  52.95  16
        19    316.2650    977.1743 307.7682187  +6.3158766      10041.7     23064.15     25892.62     92.67194     185.7136     371.3533      2.300     5.28     1272.108     65.47659     1220.715        63     1.819     1.708  81.60   0
        20     51.6784    978.4552 307.8782278  +6.3064862     894.0867     1488.822     1216.692     93.26221     185.7875     371.5011      1.652     5.68     1270.901     65.47659      123.134        10     1.286     0.707  59.65   0
        21    187.6826    976.1621 307.8217365  +6.3119907     990.3901     1843.073     2124.914       93.115     185.7136     371.4272      2.084     6.45     1270.817     65.47659     127.7778        11     1.221     0.957  20.25   0
        22     80.5662    968.1347 307.8665635  +6.3117146     1143.508     2252.644      2374.98     92.96754     185.7875     371.4272      2.231     6.41     1270.328     65.47659      202.235        11     1.637     0.704  82.14   0
        23    861.3286    961.7812 307.5420115  +6.3404130     1616.022     3029.496     3399.202     92.67194     185.6397     371.3903      1.909     4.83     1264.402     65.47659     211.5898        19     1.378     1.062 -58.70   0
        24     63.1463    961.5751 307.8740323  +6.3138379     1537.256      3509.38     3439.977     92.52379     185.8613     371.2794      2.146     6.48      1270.33     65.47659     208.5428        22     1.538     1.281 -77.35   0
        25    831.9261    960.7866 307.5542759  +6.3398452     1662.844     2966.177     2704.801     92.52378     185.4919     371.2794      1.770     5.78     1265.008     65.47659     191.6268        20     1.400     1.051  43.78   0
        26    795.5324    960.6880 307.5694183  +6.3386746     2315.716     4438.553     4995.868     93.26221     186.0089     371.5011      2.040     5.32      1265.81     65.47659     293.9447        28     1.472     1.334   2.96   0
        27    531.2796    952.2548 307.6796262  +6.3333467     209047.9       472312       521119     93.26221     185.7875     371.5011      2.277     5.32     1269.977     65.47659     22840.95       164     1.926     1.831 -72.94   0
        28    375.6420    955.0016 307.7442730  +6.3270139     4642.021     10847.19     11511.12     92.37539     185.4179     371.1316      2.282     5.53     1271.762     65.47659     564.4539        44     1.691     1.580 -68.60   0
        29    318.8278    953.4229 307.7679590  +6.3257657     7701.687     18119.45     19917.16     92.52379     185.5658     371.2794      2.315     5.43     1271.966     65.47659     893.2068        53     1.769     1.647 -84.13   0
        30    618.6275    954.5219 307.6432151  +6.3353252     653.4673     1405.787     1200.021     92.96755     185.7136     371.4641      2.119     7.55     1269.122     65.47659     118.9055         8     1.623     0.983  80.34   0
        31    637.1880    949.2728 307.6356720  +6.3381107     2254.258     4782.256     4917.517     92.52379     185.3439     371.2425      2.072     5.25     1268.214     65.47659       255.76        31     1.504     1.413 -69.40   0
        32    869.5143    948.1942 307.5390651  +6.3462936     4063.463     7915.898     9316.956     92.52379     185.4179     371.1316      2.142     4.56     1263.401     65.47659     457.1898        37     1.536     1.403 -62.95   0
        33    707.8008    945.4009 307.6064296  +6.3420626     601.4285     1213.403     773.2828     92.37539     185.2699     371.0946      1.764     4.44     1266.427     65.47659     80.81006         5     1.203     0.466 -57.28   0
        34   1002.8979    942.3698 307.4837754  +6.3531320     4113.772     6863.021     6801.064     93.26221     185.4919     371.5011      1.783     3.91     1263.355     65.47659     540.0511        29     1.423     1.179 -82.93   0
        35    612.0119    943.4155 307.6463430  +6.3396888     2245.982     4762.419      5852.83     92.96754     185.4179     371.3903      2.253     5.90     1268.754     65.47659     219.7428        28     1.537     1.287  46.32   0
        36    800.2454    942.4515 307.5680739  +6.3463589     1286.708     2360.334     2385.387     93.26221     185.7136     371.4641      1.928     5.25     1265.252     65.47659     150.7698        18     1.235     1.102  43.87   0
        37    604.6329    938.5515 307.6495771  +6.3414504     1349.101      3354.04     4706.932     92.81986     185.7875     371.3903      2.621     8.86     1268.662     65.47659     166.5286        24     2.019     1.086 -58.03   0
        38    888.4291    936.0544 307.5316066  +6.3519336     2472.907     4694.326     5039.504     92.81986     185.8613     371.3903      2.014     5.13      1262.62     65.47659     277.3486        27     1.409     1.315  89.89   0
        39    346.8791    932.0622 307.7570157  +6.3355205     1491.729     3895.444     4169.372     93.26221     185.8613     371.4641      2.384     7.87     1271.626     65.47659     164.7054        32     1.667     1.465  77.03   0
        40    483.0684    921.8614 307.7007106  +6.3442821     1877.053     4012.028     4161.915       93.115     185.7136     371.4641      2.165     5.64     1270.259     65.47659     243.1453        26     1.489     1.317  38.82   0
        41    829.4642    920.8076 307.5566503  +6.3562652      538.114     1435.901     2079.037     92.52379     185.4179     371.2794      2.431     6.29     1263.443     65.47659     115.3323         8     1.854     0.601   9.04   2
        42    529.7881    918.1982 307.6814003  +6.3473540      3436.92     8257.449      10396.8     92.67194     185.4179     371.2055      2.620     5.61      1268.48     65.47659     401.0059        45     1.767     1.613 -49.77   0
        43     90.0534    916.5297 307.8643732  +6.3333322     788.1606     1667.322     1482.766     92.96754     185.7136     371.3533      2.180     7.13      1269.14     65.47659     107.4617        12     1.465     0.973 -47.05   0
        44    865.2700    916.2108 307.5419106  +6.3593540     965.0419     1879.326     1915.898     92.52379     185.5658     371.2794      1.829     5.66     1262.008     65.47659     130.9961         9     1.346     0.671 -60.97   0
        45    447.2815    916.6978 307.7157722  +6.3452180     966.3166     2099.203     2051.308     92.96754       186.23     371.5749      2.044     7.27     1270.346     65.47659     132.8635        13     1.558     0.951 -19.72   0
        46    500.3658    911.9508 307.6938511  +6.3489503     11079.89     27284.89     30310.61     92.96754     185.7875     371.3903      2.386     5.73     1269.261     65.47659     1197.877        64     1.840     1.748 -74.35   0
        47    913.8801    909.9158 307.5219013  +6.3635691     2996.238     5310.987     5252.166     92.96754     186.1563     371.5749      1.889     4.72     1261.936     65.47659     368.0566        28     1.495     1.212 -48.53   0
        48     11.3348    902.2717 307.8976019  +6.3365770     875.3434     1789.572     1280.333       93.115     185.8613      371.538      1.740     5.05     1268.195     65.47659     141.8849         9     1.517     0.476  39.35   0
        49    293.1655    900.6640 307.7804249  +6.3466834     1767.784     4508.504     5033.115     92.96754     185.7875     371.4641      2.371     6.89     1271.701     65.47659     234.3026        30     1.583     1.479  36.27   0
        50    758.4232    896.3297 307.5870302  +6.3640036     36749.35     77862.16     84334.57     92.67194     185.6397     371.4272      2.164     4.97     1263.429     65.47659     4063.441        80     1.765     1.653 -69.99   0
        51    215.8248    894.6093 307.8128022  +6.3465938     3008.811     7966.167      10815.3     92.67194     185.5658     371.3164      3.008     6.46      1270.68     65.47659     349.1746        48     2.038     1.608  86.00   1
        52    686.6095    890.7387 307.6170937  +6.3639188     13184.74     32562.82     37414.68     92.37539     185.6397     371.1686      2.426     5.46     1264.737     65.47659     1502.793        55     1.832     1.597 -57.66   3
        53    680.4607    887.4891 307.6197615  +6.3650552      54700.9     124522.9       139261     92.96755     185.9351     371.5011      2.317     5.32      1264.84     65.47659     5804.906       100     1.877     1.829 -73.73   3
        54    883.6765    891.5457 307.5350862  +6.3701471     6308.521     12240.19     12999.59     93.26221     185.7875     371.4641      2.042     4.53      1261.72     65.47659     726.9913        42     1.605     1.400 -47.64   0
        55    374.0410    888.5674 307.7471930  +6.3543812     860.1492     2137.971     3170.012     92.81986     185.7136     371.3164      3.000     9.02     1270.583     65.47659     130.4952        13     1.972     1.152  74.24   2
        56    325.4158    888.5915 307.7674193  +6.3527453     11208.42     28430.38     31897.47     92.81986     185.4919     371.2794      2.420     6.01     1271.452     65.47659     1364.023        68     1.880     1.817 -73.78   0
        57    387.2834    886.4491 307.7417562  +6.3556983     11917.01     30507.81     34288.13       93.115     185.7875     371.5749      2.439     6.09     1270.002     65.47659     1436.714        67     1.847     1.810 -60.84   0
        58    215.2719    873.2427 307.8137583  +6.3553943     786614.1      2484578      2915453     92.96754     185.7875     371.5011      2.733     5.18     1270.464     65.47659     63782.81       472     2.394     2.198  79.35   4
        59    924.1340    885.1489 307.5184715  +6.3741329     1559.566     2872.395     2191.883     92.96754     185.7136     371.4641      1.890     5.58     1261.635     65.47659     181.1527        19     1.316     1.068 -20.86   0
        60    880.5969    882.9401 307.5366579  +6.3735968     4783.925     9452.688      9977.22     92.37539     185.4919     371.1316      2.007     4.58     1261.611     65.47659     548.5674        36     1.549     1.334 -72.27   0
        61    621.3282    882.0463 307.6445447  +6.3653302     3833.136     9081.588      9888.15       93.115     185.8613     371.4641      2.297     6.28     1265.892     65.47659      387.484        39     1.658     1.581 -21.38   0
        62    410.4090    880.4816 307.7323387  +6.3589344     1087.516     2581.225     3399.733     92.67194     185.3439     371.2794      2.482     7.96     1268.783     65.47659      135.674        17     1.610     1.101  16.91   0
        63   1003.6270    874.9804 307.4857444  +6.3809722     604.3489     933.1841     937.5818     92.67194     185.5658     371.3533      1.611     4.22     1257.113     65.47659       77.823         5     1.097     0.462 -25.18   0
        64    656.3582    871.2570 307.6303374  +6.3709517     1318.844     3237.177     3533.887     92.96754     185.7875     371.5011      2.581     6.48      1264.94     65.47659     185.9255        17     1.423     0.926 -21.51   2
        65    390.2180    869.0817 307.7411247  +6.3629649     28096.85     73831.43      83854.8     92.67194     185.4179     371.3903      2.465     5.96     1269.292     65.47659     3160.736        96     1.957     1.904 -68.52   0
        66    507.9342    868.1272 307.6921878  +6.3672915     3804.912     9922.389     10974.01     93.26221     185.8613     371.4641      2.402     6.00     1267.491     65.47659      452.547        52     1.856     1.710 -81.80   0
        67    424.5908    866.3429 307.7269188  +6.3652441     2339.189     6145.042      8569.28     92.37539     185.7136     371.1316      3.105    10.69     1267.667     65.47659     294.1079        53     2.672     1.584  49.94   2
        68    422.3547    859.4599 307.7280824  +6.3680104     1111.821     2381.955     3020.225     92.96754     185.7136     371.5749      2.490     8.37      1267.27     65.47659     147.6145        15     1.750     1.119  12.84   3
        69    753.0047    864.5202 307.5903596  +6.3769529     7242.657      16486.6     17784.79     92.67194     185.1958     371.1686      2.237     5.22     1261.747     65.47659     729.3529        49     1.712     1.577 -54.22   0
        70    773.8320    858.9877 307.5818823  +6.3799301     685.9979     1093.914     1485.441     92.52379     185.4919     371.3533      1.607     3.73     1261.297     65.47659     131.4901         5     1.414     0.283  79.82   0
        71    119.1250    857.4177 307.8542914  +6.3587048     1720.303     4268.271     4765.705     92.52379     185.4919     371.3533      2.393     6.98     1268.155     65.47659     220.2349        31     1.613     1.437 -33.87   3
        72    104.7245    847.2358 307.8606281  +6.3624246     1134.647     1906.865     2791.007     92.96754     185.8613     371.5011      2.238     4.63      1267.51     65.47659     178.7074        10     1.091     0.719  78.20   3
        73    111.0720    856.9539 307.8576570  +6.3586264     6442.528     16176.59     18896.18       93.115     185.8613     371.4641      2.436     5.70     1268.004     65.47659     826.2786        59     1.837     1.773  25.24   3
        74    103.5459    854.1915 307.8608817  +6.3595142     1829.602     4655.524     5992.027     92.37539     185.7136     371.1316      2.930     8.32     1267.757     65.47659     225.6472        39     2.100     1.555  86.32   3
        75    898.4780    852.9137 307.5302327  +6.3865853     4654.469     9209.806     10119.63       93.115     186.1563     371.5749      2.072     4.63     1260.065     65.47659     548.2515        39     1.573     1.416 -71.19   0
        76    947.5524    852.8470 307.5098190  +6.3882446      1231.59     2023.734     2278.803       93.115     185.6397     371.5011      1.872     7.14     1258.865     65.47659      166.381        15     1.294     1.103  82.60   0
        77    653.8637    850.8322 307.6320663  +6.3792990     817.8254     2407.167     2770.971     92.81986     185.8613     371.4272      2.465     8.89     1263.401     65.47659     141.5775        18     1.626     1.357 -66.71   0
        78    540.9009    849.9637 307.6790890  +6.3758891     1084.523      3165.82     3311.189       93.115     185.6397     371.6857      2.434     8.96     1265.475     65.47659     187.8912        23     1.636     1.370 -42.52   0
        79    922.0565    844.5025 307.5207075  +6.3908413      2140.51      4104.08     4362.589     92.96754     185.7875     371.7226      2.001     5.31     1259.061     65.47659     262.4171        26     1.491     1.253  43.97   0
        80    892.6253    844.7794 307.5329422  +6.3897483     2050.423     4256.219     4194.202     92.67194     185.5658     371.3533      2.036     5.48     1259.203     65.47659     259.9133        27     1.529     1.308 -71.89   0
        81    644.8495    843.9689 307.6360485  +6.3818314      878.354     2131.714      2099.32     92.81986     185.7875     371.3903      2.378     8.36     1262.844     65.47659     111.2334        15     1.555     1.256  69.83   0
        82    953.0543    843.9691 307.5078297  +6.3920920     1440.072     2557.803     1979.585     92.96754     185.8613     371.3903      1.887     5.57      1257.75     65.47659     179.6788        15     1.223     0.921 -65.38   0
        83    219.0084    838.7853 307.8133750  +6.3697416     1049.448     2368.414     3345.437     92.67194     185.4919     371.2794      2.831     8.93     1269.398     65.47659     149.5754        14     1.859     1.326  38.51   2
        84    910.2690    834.2285 307.5259581  +6.3946901     799.9575     1636.332     743.8991     92.81986     185.7875     371.3903      1.926     7.30     1257.869     65.47659     126.2942        10     1.992     0.749 -58.51   0
        85    937.1643    832.1158 307.5148403  +6.3964564      1836.93     3379.628     3847.501       93.115     185.7875     371.4272      2.026     5.25      1257.21     65.47659     246.8788        22     1.398     1.148 -53.92   0
        86    883.8732    832.8530 307.5369859  +6.3943799     769.9777     1520.757     1704.891     92.96754     185.8613     371.4641      2.259     6.31     1257.958     65.47659     116.2531         8     1.415     0.792 -51.58   0
        87    656.4294    832.0068 307.6316359  +6.3871549     755.6959     1805.922     2481.545     92.52378     185.5658     371.2055      2.802     8.24     1261.478     65.47659     125.9698        12     1.640     1.157  86.38   0
        88   1010.9374    826.2211 307.4843473  +6.4013413     5930.475      10709.1     11068.48     92.67194     185.7875     371.3164      1.894     4.32     1254.477     65.47659     655.0229        39     1.494     1.413 -57.11   0
        89    979.0040    825.5781 307.4976544  +6.4005456     1287.486     2193.606     2297.686     92.67194     185.4179     371.2055      1.863     6.40     1255.375     65.47659     179.8903        14     1.265     0.908 -24.49   0
        90    865.6677    821.4385 307.5449453  +6.3984858     980.6491     1972.555     1381.557     92.96754     185.7875      371.538      1.990     7.71     1256.861     65.47659     124.6993        15     1.338     1.242  33.25   0
        91     23.7658    812.1205 307.8955007  +6.3742031     1497.649     3122.107     3775.459     92.96754     185.8613     371.5011      2.397     7.27     1265.698     65.47659     212.1244        19     1.917     1.113  48.59   2
        92     21.0755    813.7056 307.8965659  +6.3734586      893.519      1370.41     1994.341     92.96754     186.0089     371.5011      1.506     4.21     1265.727     65.47659     144.3394         5     0.809     0.624  81.33   3
        93    822.9632    812.6522 307.5630084  +6.4006914     1009.009     2255.549     1740.731     92.96754     185.7875     371.5011      2.165     6.77     1257.277     65.47659     114.0844        14     1.293     0.996  -8.20   0
        94     88.0433    810.9777 307.8688010  +6.3768307     567.1232     1439.678     1619.463     92.52379     185.6397     371.2425      2.366     5.45     1265.858     65.47659     93.74963         7     1.349     0.620  69.50   0
        95    635.1572    800.4737 307.6415528  +6.3994612     3129.943       8077.3     8608.125     92.96754     185.8613     371.5011      2.427     6.17     1258.755     65.47659     389.8627        42     1.717     1.637 -79.74   0
        96    580.5321    799.4421 307.6643132  +6.3980649     736.0708     1799.497     2647.617       93.115     185.7136      371.538      2.194     5.41     1259.377     65.47659     116.6376         8     1.666     0.497 -88.29   0
        97     98.5600    796.7843 307.8649091  +6.3830415     1832.156     5077.084     5453.683     92.52379     185.5658     371.2055      2.493     6.70     1265.441     65.47659      277.974        36     1.762     1.583 -16.59   0
        98    971.9574    795.5869 307.5015977  +6.4126908     1858.109     3631.115     3876.125     92.37539     185.5658     371.1686      2.010     5.42     1253.438     65.47659     232.0568        25     1.506     1.206 -84.22   0
        99    607.4394    797.5221 307.6531841  +6.3997550     894.7423     1855.442     2660.123     92.96755     185.7875     371.4641      2.877     7.28     1259.149     65.47659     111.2491         9     1.578     0.940  57.52   2
       100    610.5844    795.9260 307.6519297  +6.4005187     1131.588     1895.747     2776.785     92.52378     185.4919     371.3164      2.149     4.64     1258.947     65.47659     157.5051         8     0.896     0.682  32.98   3
       101    752.0097    792.4616 307.5932097  +6.4066628     11580.22     27533.79     30102.78     92.37539     185.6397     371.2425      2.329     5.35     1256.239     65.47659     1214.823        60     1.804     1.685 -62.19   0
       102    882.0676    792.0096 307.5391162  +6.4111785     2364.211     5141.646     5453.202     92.52379     185.5658     371.3164      2.189     5.43     1254.012     65.47659     268.5195        32     1.556     1.383 -70.65   0
       103    450.1691    791.7875 307.7188064  +6.3968718     618.4725     1076.964     780.1932     92.52378     185.5658     371.3903      1.603     3.43     1263.203     65.47659     88.40784         5     0.993     0.342  43.31   0
       104    225.7945    786.6169 307.8123250  +6.3915012     2874.613     8284.854      9689.54     92.67194     185.4179     371.2794      2.578     6.60     1266.941     65.47659     371.1376        47     1.854     1.715 -78.73   0
       105    632.4780    785.3401 307.6431797  +6.4056184     3578.848     9497.474     10886.67     93.26221     185.7875     371.4272      2.453     6.97     1257.785     65.47659     404.3934        44     1.777     1.624 -44.61   0
       106    892.2302    777.7506 307.5353696  +6.4174022     868.2308     1802.962     1966.975     92.67194     185.8613     371.3533      2.260     6.51     1252.945     65.47659     135.4155         9     1.525     0.780 -40.99   0
       107    704.2001    773.7874 307.6137317  +6.4127779     1979.214      5274.22     5864.409     92.67194     185.4179     371.2425      2.452     6.92     1255.596     65.47659     224.6135        40     1.841     1.567 -78.51   0
       108    970.4248    770.1141 307.5030947  +6.4231542     6758.139     13037.39     13414.83       93.115     185.4919     371.2794      2.016     4.47     1251.457     65.47659     771.8405        41     1.578     1.401 -65.83   0
       109    909.1168    770.3105 307.5285951  +6.4210348     1513.898     3411.867     3209.003     92.81986     186.0826      371.538      2.130     7.33     1252.008     65.47659      200.996        25     1.482     1.390 -55.75   0
       110     48.1344    765.6658 307.8869453  +6.3941944     12811.32     34721.46     39546.67       93.115     185.7875     371.5011      2.498     6.15     1264.834     65.47659     1753.621        76     2.001     1.836  80.93   0
       111    479.1765    763.3623 307.7077024  +6.4095735     677.2518     1582.658      2055.79     92.67194     185.4919     371.2055      2.559     4.64     1260.986     65.47659     107.9125         6     1.012     0.603 -70.78   0
       112    899.2675    762.3284 307.5329624  +6.4240020     717.5988     1484.977     1689.296       93.115     185.9351     371.4641      2.304     6.62      1251.74     65.47659     118.2306         7     1.306     0.942 -22.01   0
       113    692.2997    758.3011 307.6192067  +6.4187734     1486.478     2216.007     3022.536       93.115       186.23     371.2794      1.723     5.10     1254.884     65.47659     217.0739        13     1.401     0.823  58.13   3
       114    694.6003    756.1333 307.6183229  +6.4197449     1764.422     3447.318     4131.794     92.22676     185.1958     371.1686      2.214     6.57     1254.636     65.47659     247.4595        21     1.704     1.150  49.68   3
       115    715.8831    755.5426 307.6094883  +6.4206979     2123.058     5384.324     5770.919       93.115     185.7875      371.538      2.382     7.44     1253.831     65.47659     230.6603        36     1.683     1.592 -50.93   0
       116    547.2723    753.6716 307.6797007  +6.4158470     1540.938     4258.914     4844.413      93.4092     185.9351     371.4272      2.547     8.02     1257.337     65.47659     204.6823        33     1.741     1.667  24.96   0
       117    988.7796    751.5059 307.4960859  +6.4314450     3827.196     7352.831     7990.427     92.96754     185.5658     371.2794      2.061     4.65     1250.054     65.47659     415.2408        35     1.549     1.359 -59.22   0
       118    384.7269    753.6173 307.7473268  +6.4104395     671.4504     1349.751     1658.895     92.52379     185.7136     371.3533      2.189     5.37     1262.181     65.47659     101.7892         5     1.085     0.750  80.78   0
       119    290.3595    752.4808 307.7866247  +6.4077521     556.8445     1448.488     1514.347       93.115     185.7875     371.3903      1.789     5.11     1264.041     65.47659     102.3446         6     1.737     0.424 -69.09   0
       120    208.5683    752.6110 307.8206472  +6.4049602     1032.967     2477.878      2935.87     92.52379     185.4919     371.3164      2.568     8.20     1264.812     65.47659     126.8301        19     1.690     1.111  16.68   0
       121    954.1106    750.5077 307.5105438  +6.4307047     5601.096     11483.12     13010.28       93.115     186.3773      371.538      2.165     4.77     1250.036     65.47659     618.3558        43     1.633     1.529 -78.06   0
       122    112.8489    744.5922 307.8607407  +6.4050625     10903.58     32557.74      37615.7     92.52379     185.6397     371.0577      2.586     6.59     1264.095     65.47659     1503.703        72     2.019     1.872  80.08   0
       123    510.5306    765.0391 307.6946013  +6.4099284     869.6653     1797.976     2215.588     92.96754     185.7875     371.5749      2.485     6.10     1259.605     65.47659     146.4404        11     1.295     0.808  43.94   0
       124    400.4924    744.4453 307.7410791  +6.4147523     1485.855     3813.724     5028.894       93.115     185.7136     371.6118      2.801     9.08     1261.409     65.47659     202.8281        27     1.793     1.565  -2.08   2
       125    780.3713    743.2448 307.5830739  +6.4279222     698.5223     1290.833     1875.449     92.67194     185.8613     371.3533      1.688     4.68     1251.865     65.47659     104.4092         7     1.071     0.581 -65.80   0
       126    948.9363    733.4620 307.5132718  +6.4375686     4757.976     10356.42     12225.44       93.115     185.7875     371.5011      2.341     5.24     1248.725     65.47659     525.9198        45     1.693     1.577  36.60   0
       127    542.7000    729.0575 307.6824369  +6.4258541     21156.69     63631.41      73765.3     92.81986     185.7875     371.7226      2.622     6.84     1256.003     65.47659     2414.264        89     2.065     1.933 -73.96   0
       128   1004.3486    728.5309 307.4903832  +6.4414455     67924.58     132283.2     141510.4     92.96754     185.6397     371.3903      2.041     4.48     1248.311     65.47659     8106.904        89     1.737     1.585 -71.12   0
       129    151.5941    724.9683 307.8452896  +6.4144608       1265.8     2984.686     3275.298     92.37539     185.5658     371.2055      2.394     5.50     1263.243     65.47659      223.165        13     1.561     0.738  35.91   2
       130     43.6360    719.5543 307.8903867  +6.4130756     653.6932     1464.055      1433.36     92.81986     185.7136     371.3533      2.138     6.68     1263.289     65.47659     93.21216         8     1.755     0.714  52.17   0
       131    439.9968    712.9152 307.7257133  +6.4290868     25568.91     82743.12     98360.14     92.37539     185.3439     371.1316      2.716     7.31     1258.447     65.47659     3335.503       107     2.135     2.035 -82.63   0
       132   1018.3021    711.7148 307.4851447  +6.4488502     2471.913       4720.3     4454.271       93.115       186.23     359.8712      1.964     4.54     1247.065     65.47659     304.5358        27     1.421     1.257 -16.97  16
       133    115.8349    708.0029 307.8607435  +6.4202646     836.9399      1835.05     2551.643     92.07789     185.5658     371.1686      2.698     7.67      1262.32     65.47659     123.9362        13     1.639     1.004  78.91   0
       134    286.7906    701.2877 307.7898484  +6.4287626     991.8237     2413.137      3246.99     92.67194     185.4179     371.2055      2.648     6.79     1260.937     65.47659     158.5549        12     1.529     0.846  43.00   2
       135    711.9151    696.2387 307.6131452  +6.4450440     2584.211      6952.96     7741.231       93.115     185.7136     371.4641      2.498     7.18     1250.331     65.47659     292.3926        37     1.771     1.523 -54.68   0
       136    765.5017    691.4966 307.5910100  +6.4487866     7054.126     18889.07     20776.76       93.115     186.3773     371.2794      2.486     6.37     1249.542     65.47659     750.9087        61     1.894     1.765 -36.80   0
       137    587.6489    691.3155 307.6650144  +6.4429324     921.8989     1530.899     1916.974       93.115     185.7875     371.5011      1.732     6.93     1252.506     65.47659     134.4608        13     1.714     0.785  39.62   3
       138    590.4160    688.5302 307.6639574  +6.4441744     1247.217     2557.597     2936.055     92.52379     185.6397     371.3533      2.204     6.75     1252.373     65.47659     169.2062        21     1.680     1.123   9.53   2
       139    981.8137    691.2714 307.5010162  +6.4560762     663.4749     1311.023     848.8948     92.52379     185.6397     371.3164      1.802     4.32     1245.779     65.47659     119.8071         5     1.151     0.461 -60.63   0
       140   1005.0604    690.1621 307.4913812  +6.4573065     1609.927     2922.131     2889.865       93.115     185.8613     371.4641      1.852     5.98     1245.578     65.47659     199.4545        18     1.296     1.093   2.75   0
       141    906.0546    685.6685 307.5327268  +6.4558702     746.2141     1552.817     1988.999       93.115     185.7136     371.4272      1.929     6.21     1246.207     65.47659      105.745         7     1.284     0.845 -42.72   0
       142    841.4688    674.6843 307.5599704  +6.4582553     1362.819     3663.397     4561.233      93.4092     186.0826     371.5011      2.643     9.08     1247.027     65.47659     220.2184        28     1.796     1.318 -47.52   0
       143    800.1360    672.2399 307.5772506  +6.4578884     1452.465     3659.173     3898.042       93.115     185.7136      371.538      2.428     7.60     1248.464     65.47659     233.4703        26     1.618     1.459 -48.86   0
       144    227.7798    669.7592 307.8154709  +6.4398004     2150.805     3480.559     4389.069     92.67194     185.5658     371.2055      1.775     5.18     1260.557     65.47659     285.3484        16     1.418     0.767  17.26   3
       145    229.1015    666.5878 307.8150288  +6.4411537     3554.757     7995.457     9794.667     92.81986     185.4919     371.2055      2.436     6.83      1260.35     65.47659     449.8557        40     1.999     1.433  18.72   3
       146    780.7506    663.3995 307.5856153  +6.4608919     76997.25     212353.8     240777.2     92.22676     185.3439     370.9467      2.508     6.34     1247.896     65.47659      8934.68       149     2.255     1.933 -36.93   0
       147    162.6613    662.1453 307.8428221  +6.4407616     23262.02      75427.7     90018.45     93.26221     185.7136     371.4272      2.736     7.10     1260.383     65.47659     3137.085       106     2.168     2.056 -82.06   0
       148     86.7853    658.3436 307.8745192  +6.4397872     2487.656     8087.065     9475.414     92.37539     185.6397     371.1316      2.665     7.32     1259.792     65.47659     364.3759        48     2.032     1.685  76.45   0
       149    951.6995    655.2267 307.5147624  +6.4699532      1022.68      1887.92     1643.095       93.115     185.4919     371.3533      1.858     7.07     1243.681     65.47659     128.3839        16     1.386     1.010 -39.10   0
       150    817.5126    650.6333 307.5707508  +6.4673853     2405.631     6072.015     6804.027       93.115     185.6397     371.4641      2.359     6.23     1246.298     65.47659     260.9615        39     1.746     1.545 -67.57   0
       151    334.7255    651.0008 307.7716131  +6.4511225     5091.854     9325.353     10591.69     92.22675     185.1217     371.2425      1.947     6.17     1256.477     65.47659     619.3875        28     1.823     0.934  42.81   3
       152    337.4458    648.2501 307.7705746  +6.4523488     7428.226     15786.68      19446.8       93.115     185.6397     371.5011      2.394     8.09     1256.247     65.47659     844.6392        45     2.236     1.294  32.17   3
       153    140.2137    647.7789 307.8526501  +6.4459390     687.3622     1320.609     1440.498     92.81986     185.4919     371.3533      1.664     4.68     1259.707     65.47659     108.1919         6     1.360     0.456  88.67   2
       154    136.9738    646.2968 307.8540484  +6.4464421     601.7135     880.6982     1202.145     93.26221     185.4919     371.3533      1.708     4.54     1259.607     65.47659     114.3368         5     1.176     0.498  26.71   3
       155    504.5005    643.0419 307.7012454  +6.4600821      2202.85     3546.121     4340.626       93.115     185.6397     371.7226      1.867     6.76     1251.796     65.47659     285.7786        20     1.929     0.947  80.85   3
       156    501.4956    642.4770 307.7025148  +6.4602149     2522.873     5867.183     7862.503     92.81986     185.9351      371.538      2.701    10.96     1251.921     65.47659     275.5402        33     2.657     1.261 -89.58   3
       157    771.3498    643.9521 307.5901843  +6.4686059     2795.278     7552.794     8569.559       93.115     185.6397     371.4641      2.482     6.53     1246.437     65.47659     290.6721        43     1.799     1.576 -35.48   0
       158    362.0795    639.6977 307.7606158  +6.4567028     759.9656     1910.049     2562.994     92.81986     186.1563     371.5011      2.586     6.40     1255.268     65.47659     115.9802         9     1.385     0.994  28.91   0
       159    149.3970    637.5306 307.8491780  +6.4504767     2369.026     8272.837     8726.893     92.37539     185.3439     371.2425      2.682     7.94     1259.388     65.47659     397.4742        52     1.997     1.824 -52.78   0
       160    546.1163    636.8765 307.6841391  +6.4640164     1098.431     3220.431     4720.444     93.26221     186.1563     371.5749      3.311    10.02     1249.729     65.47659     129.6876        24     1.807     1.550 -53.87   2
       161    243.6258    635.8107 307.8100320  +6.4543432     25922.65     48069.25     51427.77     92.67194     185.5658     371.3164      1.963     5.69     1258.005     65.47659     2779.207        43     1.883     1.080  29.79   3
       162    245.5468    632.5922 307.8093422  +6.4557359     37773.76     80913.14     91532.16     92.52379     185.5658     371.1316      2.228     6.33     1257.752     65.47659      4532.15        77     2.208     1.357  35.19   3
       163     21.3231    636.1411 307.9025103  +6.4467550     2308.377     6380.143      7380.14     93.26221     185.7875     371.4272      2.540     6.60     1258.919     65.47659     286.1721        40     1.797     1.562  89.07   0
       164    767.5732    625.7513 307.5923711  +6.4759927     7733.458     21549.39     24343.35     92.67194     185.7875     371.3903      2.514     6.47     1244.998     65.47659     867.5016        65     1.909     1.853 -69.62   0
       165    470.1269    626.1341 307.7161207  +6.4659127        14263     28208.18     31961.56     93.26221     185.8613     371.4641      2.126     5.63     1252.281     65.47659     1652.227        48     2.011     1.175  27.92   3
       166    472.1960    623.1705 307.7153603  +6.4672051     16900.06     37132.45     43706.43     92.52378     185.5658     371.2794      2.300     6.78      1252.07     65.47659     1729.916        59     2.299     1.224  29.74   3
       167    942.9160    627.1891 307.5193635  +6.4812341     833.3167     1774.136     1960.609     92.67194     185.4919     371.2794      1.844     3.80     1242.415     65.47659     118.5969         5     0.851     0.488 -61.13   0
       168    180.8853    621.5395 307.8366210  +6.4581321     625.2473     1607.655     2933.691     93.26221     185.8613     371.5749      3.897     8.89     1258.511     65.47659     131.0255        10     2.966     0.744  -2.28   2
       169    630.4268    621.2152 307.6495896  +6.4732939     1009.102     2130.545     2922.031     92.67194     185.5658     371.3533      2.974     6.80     1245.925     65.47659     134.0361        14     1.685     0.769  12.70   3
       170    631.6458    618.1965 307.6491846  +6.4745806     1343.213     2571.283     3599.963     92.37539     185.4919     371.0577      3.190     7.15     1245.634     65.47659     146.4094        19     1.736     0.825  22.14   2
       171    115.7078    612.2169 307.8640559  +6.4597955     9704.852     33190.83     39904.34     92.81986     185.5658     371.3533      2.772     7.47     1258.121     65.47659     1432.648        84     2.188     1.997 -88.75   0
       172    301.0048    612.1893 307.7869613  +6.4660136     1741.898     4614.305     6052.729     92.67194     185.4919     371.3533      2.933     9.52     1254.736     65.47659      216.001        31     1.862     1.792 -79.39   2
       173    479.5324    615.0173 307.7125842  +6.4708154     640.3276     1412.458     2721.557     92.52378     185.7136     371.3533      2.246     4.51     1251.435     65.47659     107.1188         5     1.038     0.557 -11.90   0
       174    370.6324    614.8235 307.7579016  +6.4672557     817.9408     1868.996     2537.144     92.52379     185.6397     371.2425      2.351     5.25     1253.806     65.47659     108.8619         7     1.154     0.674  52.06   0
       175     81.4327    609.2133 307.8784186  +6.4598858     1119.358     2959.795     3894.059     92.52379     185.4919     371.3903      2.913     9.56     1257.846     65.47659     165.4518        20     1.918     1.331 -12.59   2
       176   1018.3257    612.0196 307.4884974  +6.4900018     959.1052     2103.191     2512.964     92.67194     185.7136     359.4898      2.243     7.51     1237.187     65.47659      119.457        16     1.491     1.059 -18.02  16
       177    843.0026    610.0000 307.5615178  +6.4850056     547.2144     1576.266      1898.79     92.22676     185.1958     371.1686      2.764     6.30     1243.491     65.47659      113.806         6     1.904     0.586  25.52   2
       178    482.5805    611.2700 307.7114430  +6.4724640     699.1588     1246.094     1876.503     92.67194     185.6397     371.3903      2.053     3.52     1251.118     65.47659     106.2883         5     0.796     0.450 -72.07   1
       179    479.6512    610.6431 307.7126831  +6.4726249     752.1541     1499.816     2011.582     93.26221     185.7875     371.5011      2.132     4.12     1251.229     65.47659     119.5171         6     1.071     0.454 -81.34   1
       180    941.0537    606.1683 307.5208480  +6.4898489       2952.6     7106.895     7275.606     92.96754     185.8613     371.3903      2.315     6.21     1241.375     65.47659     361.9198        40     1.780     1.512 -56.27   0
       181    412.6767    593.1280 307.7411443  +6.4776162     15151.18     53380.15     65432.23      93.4092     186.0826     371.4641      2.854     7.99     1251.487     65.47659     1906.062        96     2.197     2.100 -66.42   0
       182    620.5361    592.6882 307.6546710  +6.4847388     4677.917     15430.09     18239.37       93.115     186.0826     371.4641      2.756     7.31     1244.422     65.47659     502.5089        68     2.091     1.945 -49.07   0
       183    515.3765    597.8223 307.6982531  +6.4791099     648.2701     1408.253     1738.033     92.67194     185.5658     371.4272      2.103     3.61     1248.759     65.47659     91.89966         5     0.999     0.375   4.49   0
       184    176.2992    592.6636 307.8395113  +6.4698968     6207.726     12281.46     15015.75     92.96754     185.8613     371.5011      2.146     5.84     1256.223     65.47659     758.5538        31     1.859     0.994  44.85   3
       185    178.8801    589.5806 307.8385423  +6.4712558     8202.397     18486.29     23143.87     92.67194     185.4179     371.3903      2.459     6.94      1255.82     65.47659     931.6709        54     2.289     1.371  38.59   3
       186    540.6297    589.5132 307.6880271  +6.4833827     1094.022     3044.019     4310.635     93.26221     185.4179     371.3533      3.390     8.85     1247.322     65.47659     176.5931        20     1.887     1.492 -70.66   2
       187    916.1324    586.3312 307.5318876  +6.4972082      2796.85     6511.651     7107.793       93.115     185.9351     371.4641      2.321     6.05     1240.693     65.47659     321.0057        35     1.674     1.489 -55.92   0
       188    591.6041    584.8185 307.6669760  +6.4870218     2248.228     4808.881     6779.614     92.67194     185.3439     371.2425      2.717    10.59     1245.007     65.47659      274.407        30     2.515     1.243 -51.19   2
       189    588.6815    583.3091 307.6682432  +6.4875473     2371.439     4407.423     5251.714     92.81986     186.0826      371.538      2.042     7.89     1245.053     65.47659     287.2418        18     1.838     0.947 -59.77   3
       190    938.6397    578.5200 307.5227858  +6.5011808     1912.772     4095.818     4445.007     92.96755     185.8613     371.4272      2.248     6.81     1239.478     65.47659     199.0701        27     1.542     1.318 -46.96   0
       191    501.7439    576.2983 307.7046552  +6.4875387     2682.043     9189.102     11545.32     92.96754     185.7875     371.7226      2.873     7.65     1247.189     65.47659     356.5673        60     2.075     1.941 -35.98   0
       192    348.3260    575.2764 307.7685256  +6.4828327     1093.028     2605.836     3340.909      93.4092     186.0826     371.5011      2.572     7.45     1250.327     65.47659     125.1074        17     1.709     0.908  34.37   0
       193    857.0757    571.8579 307.5569506  +6.5012176      1580.89     3889.979      4678.82     93.26221     185.7875     371.4272      2.520     7.11     1240.578     65.47659     167.2623        23     1.568     1.167  88.46   2
       194    865.0670    567.9266 307.5537581  +6.5031062      1012.29     2658.281     4091.676     93.26221     185.9351     371.4272      3.076     7.42     1240.228     65.47659     144.7753        13     1.687     1.052   3.04   2
       195    905.0914    565.7056 307.5371784  +6.5053545     667.7313     1456.756     1534.142       93.115     186.3773     371.4641      2.225     6.02     1239.276     65.47659     88.26904         7     1.444     0.706   5.07   0
       196    687.4716    563.6990 307.6278005  +6.4989364     924.2797     1595.589      2475.27     92.81986     186.0089     371.4641      2.424     5.77     1242.412     65.47659     126.8843         8     1.136     0.826 -21.67   3
       197    691.6620    561.3555 307.6261361  +6.5000434     1031.657     1600.812     2279.675       93.115     185.7136     371.5749      1.717     4.37     1242.142     65.47659     146.2018         8     0.975     0.660 -88.09   3
       198    688.5192    560.4985 307.6274728  +6.5002923     986.9595     1667.628     2627.256     92.96755       186.23      371.538      2.755     5.35     1242.174     65.47659     123.8108         9     1.148     0.786  40.57   3
       199    358.2170    562.7243 307.7648362  +6.4883444     986.3502     1807.505     2281.163     92.52379     185.4919     371.3533      1.927     4.20     1249.033     65.47659     153.8051         7     1.079     0.466 -77.32   3
       200    361.4413    559.8708 307.7635915  +6.4896300     1407.271     3778.165     4752.865     92.96754     185.7875      371.538      2.809     9.31     1248.721     65.47659     195.6982        29     1.895     1.276  35.92   2
       201     53.2769    562.4882 307.8917242  +6.4782267     850.1001     1768.897     2115.134       93.115     186.1563      371.538      1.895     5.52     1255.241     65.47659     147.1523         9     1.388     0.618 -70.58   0
       202    586.5771    559.1957 307.6699358  +6.4974300     3360.896     5794.783     7329.233     92.67194     185.4919     371.2794      1.897     6.49      1244.22     65.47659     432.4296        23     1.788     0.945  51.21   3
       203    590.2341    556.9382 307.6684905  +6.4984838     3460.509     5957.312     7111.666     92.96754     185.8613     371.3903      1.827     5.01     1244.077     65.47659     449.7734        20     1.500     0.824 -83.62   3
       204    587.3071    555.3257 307.6697631  +6.4990518     3475.195     4891.812     6035.215       93.115     185.9351     371.4272      1.594     3.90     1244.069     65.47659     431.2075        14     1.081     0.873 -48.28   3
       205    750.8292    553.5394 307.6017804  +6.5052412     6940.429     21172.21     25462.44     92.81986     185.7875     371.4272      2.700     7.38     1240.324     65.47659     806.1176        72     2.191     1.825 -47.28   0
       206    269.5010    556.1970 307.8019718  +6.4880699     877.1916     1944.512     2324.275     92.81986     185.4919     371.0946      2.302     8.97     1249.541     65.47659     105.9282        11     2.065     1.087  57.40   3
       207    272.2159    553.5305 307.8009328  +6.4892614     971.5108     2176.218     3008.795     92.52379     185.6397     371.3533      2.363     6.52     1249.249     65.47659     131.8708        14     1.713     0.697  38.61   2
       208    778.5106    551.9243 307.5903164  +6.5068299     575.6112     1288.994     1023.692       93.115     186.1563     371.5749      1.725     3.78     1239.769     65.47659     98.13647         6     1.327     0.309  72.29   0
       209    934.9203    548.5597 307.5253450  +6.5134237     1106.807     2258.804     1684.271     92.96754     185.7875     371.4272      2.031     6.36     1237.303     65.47659     142.7185        14     1.397     0.985  81.49   0
       210     87.0344    548.0344 307.8781707  +6.4853248     1336.889      2741.99     3690.939     92.81986     185.4919     371.1686      2.263     6.87     1253.436     65.47659     171.0919        16     1.760     0.802  42.00   3
       211     89.4724    544.9715 307.8772606  +6.4866707     1888.055     4281.444     5713.437     92.96754     185.7875     371.4272      2.620     8.41     1253.156     65.47659     260.1997        33     2.095     1.362  42.79   3
       212    725.2424    546.0237 307.6126817  +6.5074909     846.9988     1831.731     2603.239     92.67194     185.6397     371.2055      2.655     4.35     1240.414     65.47659     117.8322         7     1.277     0.421  64.93   2
       213    989.6547    543.0692 307.5027540  +6.5175094     2526.743     5781.088     5978.967       93.115     185.6397     371.3903      2.292     5.86     1236.076     65.47659     244.9333        36     1.684     1.444 -16.05   0
       214    728.1760    544.3100 307.6115190  +6.5082960     767.6556     1739.991     2292.031       93.115     185.5658     371.2794      2.103     3.77     1240.197     65.47659     135.2346         5     1.081     0.377 -86.95   0
       215    324.3687    540.7208 307.7796676  +6.4962940     1231.885     4525.517     5776.603     92.96754     185.7875     371.4272      3.006    11.51     1247.169     65.47659     197.5742        38     1.959     1.882 -76.72   0
       216    790.7297    527.9658 307.5860419  +6.5171260     896.5861     2082.143     2461.001     92.96754     185.7875     371.5749      2.479     6.17     1238.117     65.47659     136.4181        10     1.794     0.597  83.48   0
       217    691.3519    524.6573 307.6275072  +6.5151805      4845.05     7106.223     8219.486       93.115     185.7875     371.6118      1.595     4.95     1239.857     65.47659     586.6398        21     1.396     0.985  59.85   3
       218    687.8632    525.9946 307.6289136  +6.5145122     5837.294     14270.09     16725.31     92.37539     185.5658     371.1686      2.470     7.47     1240.012     65.47659      658.495        48     2.260     1.371  77.08   3
       219    609.3770    523.8361 307.6616463  +6.5127857     903.9152     2441.266     4621.959     92.67194     185.4919     371.2055      3.889     8.80     1241.764     65.47659     129.5135        16     2.059     1.051 -13.35   2
       220    580.5806    517.7835 307.6738340  +6.5143230     5095.126     10312.56     12947.47     92.81986     185.4919     371.3533      2.281     8.50      1241.74     65.47659     597.6346        34     2.445     0.950  47.34   3
       221    583.0421    515.3868 307.6728910  +6.5153944     6406.271     15269.65        21440     92.37539     185.5658     371.1686      2.746     8.10     1241.482     65.47659     768.2388        64     2.940     1.298  42.75   3
       222    913.2889    516.6157 307.5354250  +6.5258896      1771.37     2931.644     3184.439     92.81986     185.4919     371.2794      1.781     3.20     1235.687     65.47659     274.1465        10     1.009     0.650  35.62   3
       223    914.7527    513.9954 307.5349044  +6.5270199     1896.118     3617.386     4139.961     92.37539     185.5658     371.0946      2.026     5.83     1235.478     65.47659     210.6427        26     1.666     1.164  20.69   3
       224    352.4835    513.7176 307.7688860  +6.5083801     9174.247     17689.77     19162.38     92.81986     186.0826     371.5749      2.003     5.98     1245.136     65.47659     957.3759        35     1.900     0.998  35.76   3
       225    354.7944    510.5096 307.7680334  +6.5097815     10940.87     25485.64     29317.38     92.67194     185.4179     371.1686      2.377     8.15     1244.882     65.47659      1288.27        54     2.304     1.304  34.23   3
       226    100.9402    510.3653 307.8736671  +6.5013387     1025.616     2827.511     3757.813     92.96754     185.7875     371.4272      3.076    11.17     1250.733     65.47659     130.1591        25     2.150     1.617  60.63   2
       227    870.2909    509.3552 307.5535632  +6.5274561     855.5771     2181.791     3077.382       93.115     185.7136     371.6118      2.764     6.89     1235.693     65.47659     122.1307        13     1.734     0.768  40.27   0
       228    883.0510    505.6148 307.5483797  +6.5294245     2651.152     6685.551     6823.185     92.37539     185.7875     371.1686      2.324     6.30     1235.337     65.47659     336.8922        37     1.700     1.551 -74.31   0
       229     34.3226    506.0836 307.9015319  +6.5008711     752.9843     1360.338     2319.467     93.26221     186.1563     371.5749      2.207     5.07     1251.855     65.47659     102.3152         7     1.593     0.456  53.97   0
       230    210.2293    504.4151 307.8283948  +6.5074577      4115.32     7773.543     9024.154     92.67194     185.4919     371.3903      1.965     6.92     1247.271     65.47659     454.7919        28     1.743     1.017  31.63   3
       231    212.6178    501.2350 307.8275091  +6.5088503     5527.129     11639.31     14077.81     92.52379     185.5658     371.2055      2.273     7.72     1246.967     65.47659     648.1919        41     2.245     1.213  32.51   3
       232   1015.7894    492.2099 307.4935945  +6.5393707     5386.825     12194.26     13693.73     92.67194     185.5658     371.4272      2.268     5.41     1230.762     65.47659     654.8776        46     1.711     1.514 -89.67  16
       233    110.3215    492.4298 307.8703741  +6.5090560     1686.385     3244.692     4041.784     92.96754     185.8613     371.4272      2.108     6.45     1249.427     65.47659     181.5333        19     1.384     1.030  42.82   3
       234    112.8393    490.0733 307.8694067  +6.5101131     2197.435     4744.087     5854.348     92.96754     185.7875      371.538      2.461     8.68     1249.227     65.47659     260.4591        32     2.196     1.206  34.24   3
       235    134.3079    485.4110 307.8606323  +6.5127573      1030.36     2983.574     3783.164     92.81986     185.4179     371.2425      3.047     9.93     1248.355     65.47659     159.4635        20     1.895     1.451  46.73   2
       236    357.9217    482.3734 307.7676876  +6.5214994     694.4391     2267.794     2771.079     92.96754     185.7136     371.3903      2.753     8.42     1242.778     65.47659     137.3865        15     2.078     0.953 -32.27   0
       237    412.9032    474.2733 307.7450836  +6.5266813     2857.031     5332.965     6232.837     92.67194     186.0089     371.4272      1.953     5.69     1240.037     65.47659      343.963        26     1.616     1.078  72.06   3
       238    409.5830    477.1758 307.7463667  +6.5253723     2210.357     4075.266     5212.581     92.81986     185.6397     371.3903      2.015     5.88      1240.44     65.47659     237.7615        21     1.619     0.943  35.59   3
       239    409.2656    472.9945 307.7466407  +6.5270875     2103.527     3971.358     4774.614     92.52378     185.4179     371.2425      1.969     4.89     1240.074     65.47659      243.233        15     1.247     0.840 -80.60   3
       240      8.2994    475.6158 307.9133980  +6.5125729     1550.114     3554.201      5426.08       93.115     185.4919     370.7618      3.047     6.83     1250.209     65.47659     247.8669        25     1.752     1.487  74.10  18
       241      4.6791    477.9669 307.9148243  +6.5114810     673.9062     1401.134     2590.461     92.96754     185.7875     335.7309      1.901     4.06     1250.253     65.47659     108.5505         5     1.087     0.433  76.44  19
       242    750.6776    472.1559 307.6045963  +6.5388280     5309.219     15638.16     19956.87     92.96754     185.7875     371.4641      2.949     9.21      1235.09     65.47659     563.6534        84     2.918     1.973 -13.50   0
       243    995.0228    467.0622 307.5030850  +6.5490607     2148.887     5049.639      5852.97     92.67194     185.7875     371.3533      2.330     5.82     1228.946     65.47659      235.054        38     1.764     1.490 -66.80   0
       244    459.8844    457.4677 307.7261037  +6.5351880     1148.885     3203.434     4265.503      93.4092     186.0826     371.5011      2.831     9.06     1237.778     65.47659     139.4706        22     1.831     1.251  30.41   2
       245    432.9019    459.5785 307.7372603  +6.5334151     783.6456     1736.293      2824.71     92.96754     185.5658     371.2055      2.331     5.10     1238.362     65.47659     107.5931         7     1.374     0.534 -60.18   0
       246    815.4321    454.8878 307.5782330  +6.5481122     14976.47     32241.34     38278.21     93.26221     185.5658     371.4641      2.333     6.53     1232.412     65.47659     1583.713        62     2.300     1.386  87.60   3
       247    818.6675    454.3234 307.5769057  +6.5484529     11490.11     18663.56     20452.05     93.26221     185.8613     371.4272      1.733     4.49     1232.251     65.47659     1320.957        23     1.424     0.907  83.31   3
       248    587.7287    449.8014 307.6731629  +6.5426216     983.4822     2226.237     3165.756     92.52379     185.2699     371.2794      2.762     8.03     1235.674     65.47659     148.1351        13     1.768     1.019  27.60   2
       249    590.1473    446.3766 307.6722725  +6.5441159     1058.232     2212.715     3460.211     92.52378     185.7875     371.2425      2.444     5.05     1235.245     65.47659     151.6146        10     1.316     0.549  42.55   3
       250    587.0000    446.0299 307.6735940  +6.5441540     739.4579     1571.932      2580.86     92.22676     185.4919     371.2055      1.707     3.86     1235.278     65.47659     111.1222         5     1.122     0.381 -81.36   3
       251    673.0864    440.9754 307.6379407  +6.5491119     28348.56     97829.26     118289.6       93.115     185.5658     371.2794      2.814     7.89     1233.753     65.47659      3251.66       112     2.200     2.092 -61.31   0
       252    537.8071    437.5662 307.6943521  +6.5460053     970.3278     2511.528     4455.521     92.52379     185.5658     371.2055      3.605     8.59     1234.952     65.47659     117.7185        14     1.899     1.086 -85.49   2
       253     73.0961    437.0380 307.8877499  +6.5306699     2151.958     7982.333     9819.593       93.115     185.6397     371.6118      2.888     8.70     1247.741     65.47659     325.2196        57     2.179     1.943  63.46   0
       254     53.6198    439.2277 307.8957797  +6.5291127     602.9727     1557.969     2142.804     92.67194     185.5658     371.3903      2.528     4.95     1248.506     65.47659     105.6388         7     1.488     0.466  55.46   0
       255    517.6877    435.9779 307.7027784  +6.5459890     2452.721     4586.473     5704.553       93.115     185.5658     371.3533      2.081     6.02     1234.963     65.47659     288.0781        23     1.738     0.902  47.61   3
       256    520.3723    433.4747 307.7017461  +6.5471119     2549.808      6181.02     8106.969     92.96755     185.7136     371.4272      2.576     9.34     1234.622     65.47659      278.328        37     2.195     1.286  40.69   3
       257    248.3656    434.1071 307.8149163  +6.5377544     830.1788     1716.067     2123.839     93.26221     185.6397      371.538      1.748     3.43     1240.515     65.47659     122.3354         5     0.754     0.450  73.58   1
       258    380.1899    431.1536 307.7601604  +6.5433850     7739.323      14350.7     15923.38     92.52378     185.6397     371.0577      1.960     6.45      1236.55     65.47659     910.3706        32     1.916     0.965  39.05   3
       259    383.1909    428.2987 307.7590085  +6.5446638     9266.922     23443.23     28399.27     92.81986     185.3439     371.2425      2.532     9.18      1236.16     65.47659     1046.278        54     2.383     1.343  34.81   3
       260    246.0066    430.9485 307.8160054  +6.5389791     785.3121     2095.184     2944.747     92.52379     185.5658     371.0577      2.724     6.15     1240.279     65.47659     141.2001        11     1.936     0.549 -82.49   0
       261    250.7882    431.3735 307.8140012  +6.5389638     648.3218     1062.569      1830.19     92.67194     185.5658     371.3903      1.909     3.45     1240.193     65.47659     92.19385         5     0.758     0.453 -16.22   1
       262    469.3420    421.2003 307.7233984  +6.5504735     2688.544     5597.163     6821.844     92.22676     185.3439     371.0946      2.125     6.22     1233.993     65.47659     321.3956        26     1.823     0.955  40.87   3
       263    471.8186    418.4314 307.7224617  +6.5516991     3010.736     7524.203     8896.502     92.67194     185.5658     371.3164      2.426     8.51     1233.644     65.47659     327.1086        40     2.219     1.273  31.85   3
       264    739.8898    417.0171 307.6109511  +6.5612275     1284.219     3590.213      4246.51     92.81986     185.4919     371.3533      2.678     8.90     1231.827     65.47659     165.9132        24     1.865     1.187  28.88   2
       265    359.7393    406.0161 307.7695243  +6.5530765     2140.361     4006.495     5104.288     92.52379     185.7136     371.1686      2.129     6.62     1234.496     65.47659     251.4257        19     1.668     0.894  32.60   3
       266    361.8326    402.8402 307.7687611  +6.5544574     2575.012     6589.578     8272.411     92.81986     185.5658     371.2794      2.560     8.15     1234.189     65.47659     325.8517        41     2.154     1.393  27.29   3
       267    216.8357    404.3332 307.8290493  +6.5489873     914.1629     2770.362     2927.403     92.96754     185.9351      371.538      2.575     8.78     1239.387     65.47659     145.5923        18     2.038     1.056 -54.28   0
       268    727.4822    400.0268 307.6166896  +6.5678269     21399.11     51664.52     59110.41     92.96754     185.5658     371.3903      2.410     7.75     1230.338     65.47659     2442.915        63     2.248     1.351  78.23   3
       269    730.7472    398.7322 307.6153746  +6.5684701     17411.24     29458.73     32253.29     92.96754     185.7136     371.3533      1.790     5.07     1230.241     65.47659     2039.356        34     1.700     0.934  77.27   3
       270    402.2565    397.9105 307.7521062  +6.5578440     930.2748     2063.128     3223.972     92.96754     185.7136     371.6118      3.057     7.13     1232.754     65.47659     108.3059        14     1.258     1.131 -72.91   0
       271    962.6329    396.6599 307.5189408  +6.5770436     1030.177      2107.55      2169.87     92.81986     185.8613     371.3903      2.268     7.12     1223.556     65.47659     160.2413        12     1.435     0.989 -61.08   0
       272    903.6553    396.4152 307.5434940  +6.5751833     1001.788     2375.427     2769.513     92.37539     185.7875     371.1316      2.394     8.59     1225.932     65.47659     128.6364        18     1.522     1.354  12.46   0
       273    388.3867    394.4503 307.7579956  +6.5588084     803.6515     2145.618     2837.019     92.37539     185.7136     371.1316      2.696     7.66     1232.728     65.47659      135.577        11     1.642     0.998  64.24   0
       274    164.2533    388.3731 307.8514737  +6.5538127     642.8033     1682.116     2806.422     92.81986     185.9351     371.3903      2.439     3.95     1240.907     65.47659     105.7167         6     1.122     0.398 -15.19   0
       275    725.9438    385.9545 307.6178060  +6.5735841     2201.987     3881.369     4899.643       93.115     185.7875     371.5011      1.819     4.62     1228.987     65.47659     268.7932        18     1.491     0.782  21.85   3
       276    726.3252    382.3233 307.6177702  +6.5750956     2015.175     3236.554     3937.029      93.4092     186.0826      371.538      1.799     5.56     1228.601     65.47659     234.1678        14     1.121     0.956 -55.79   3
       277    729.0000    383.0769 307.6166315  +6.5748737     1945.958     3516.211     4409.637     92.22676     185.0476     371.1316      2.045     6.23     1228.697     65.47659     260.1775        18     1.452     1.132 -88.55   3
       278    742.9448    383.9819 307.6107974  +6.5749648     816.4134     1947.262     3316.845     92.52379     185.7136     371.1686      3.017     6.71     1228.603     65.47659     116.9037        11     1.551     0.816  54.58   2
       279    333.8367    377.7534 307.7812636  +6.5638753     747.3897     2107.231     2675.288     92.81986     185.8613     371.3533      2.408     8.64     1233.453     65.47659     120.2291        13     2.135     0.975 -59.90   0
       280    980.6428    373.1826 307.5122380  +6.5873328     3141.834     6157.585     6738.527     92.52379     185.6397     371.2055      2.084     5.46     1220.866     65.47659      353.287        29     1.770     1.117  84.26   2
       281    983.3439    372.6629 307.5111314  +6.5876371     2049.044     2629.964     3423.396     93.26221     185.7875     371.4641      1.490     4.17     1220.787     65.47659     248.9858        11     1.118     0.824  84.19   3
       282    462.3828    372.4043 307.7279500  +6.5703815     618.7745     1085.323      1517.43     92.67194     185.3439     371.2794      1.509     3.89     1228.476     65.47659     85.65906         5     1.077     0.403  74.21   0
       283    221.7353    371.4149 307.8281300  +6.5627383      1764.99     3102.533     4176.651     92.52379     185.6397     371.3533      2.019     5.61     1238.265     65.47659     197.3777        18     1.516     0.868  11.51   3
       284    223.1018    367.7665 307.8276854  +6.5642899     2106.955     5621.958     7377.034       93.115     185.6397     371.6118      2.744     8.89     1238.151     65.47659     279.8156        36     2.194     1.285  19.72   3
       285     48.8738    376.8969 307.8998779  +6.5546797      695.726     1378.554      1711.06     92.81986     186.0089     371.4641      2.791     4.19     1247.515     65.47659       124.08         7     0.962     0.589 -73.66   0
       286    127.2943    356.5495 307.8679370  +6.5657085     760.9012     1970.182     2490.632     92.96754     185.6397     371.7226      2.897     8.74     1242.294     65.47659     165.2882        15     2.058     1.036 -54.47   0
       287    942.1761    357.6794 307.5287707  +6.5924531     519.3098     1235.878     1821.453     92.67194     185.4919     371.4641      2.299     3.61      1220.98     65.47659     95.26733         5     1.176     0.318  79.35   0
       288    534.4257    351.9963 307.6986604  +6.5812116     838.3955      2103.86     3493.167     92.52378     185.4179     371.2794      3.346     6.13      1224.09     65.47659     125.5107         9     1.251     0.845  50.92   0
       289    698.0682    348.8925 307.6306615  +6.5879525     1821.352     4406.702     5385.808     92.96754     185.9351     371.5011      2.462     8.72     1225.357     65.47659     215.1414        30     2.079     1.255 -86.39   3
       290    701.7816    347.8302 307.6291521  +6.5885148     1583.379      2650.73      3191.76     92.67194     185.5658     371.3533      1.786     6.28     1225.251     65.47659       205.83        16     1.636     0.676  87.83   3
       291    879.2165    350.0226 307.5552323  +6.5935192     915.1628     2363.644     2839.767     92.81986     185.5658     371.3903      2.569     9.16     1222.762     65.47659     124.9752        15     2.021     1.159 -29.49   0
       292    639.0019    349.9644 307.6552074  +6.5855404     831.5483     1492.806      2754.19     92.07788     185.5658     371.2425      2.454     5.38     1224.474     65.47659     108.7334         8     1.047     0.781  57.66   2
       293    641.4910    346.8702 307.6542762  +6.5869006      802.465     2247.221     2628.967     92.96754     185.9351     371.4641      2.525     6.10     1224.222     65.47659      121.339         9     1.962     0.533  11.94   2
       294    201.0061    333.5687 307.8380438  +6.5776644     817.9971     1955.326     2458.837     92.37539     185.5658     371.2055      2.836     7.30     1237.687     65.47659     136.2742         9     1.891     0.789  88.46   2
       295    840.3447    332.2551 307.5720108  +6.5995593     716.3268     1547.387      2515.97      93.4092     185.7875     371.4641      2.067     3.97     1222.317     65.47659     107.1611         6     1.165     0.387 -75.48   0
       296    730.7554    331.5101 307.6176460  +6.5962167     713.9069     1839.659     2373.725       93.115     185.6397     371.5749      2.680     7.05     1223.632     65.47659     120.4026         9     1.775     0.785  72.31   0
       297    431.7033    325.8296 307.7422984  +6.5885798      7260.39     12960.76     14152.93     93.26221     185.4919     371.4641      1.911     5.78     1225.578     65.47659     810.1992        34     1.878     1.017  38.33   3
       298    435.2641    323.1556 307.7409072  +6.5898025     7692.508     14317.41     17531.68       93.115     185.7136     371.4641      2.101     5.20     1225.232     65.47659     824.2676        41     1.875     1.224  88.00   3
       299    431.6716    321.3360 307.7424641  +6.5904335      6095.61      8651.02     10348.69       93.115     185.7875     371.5011      1.563     4.02     1225.259     65.47659     696.8999        18     1.145     0.952  47.29   3
       300    757.6671    323.4875 307.6067171  +6.6004248     5631.482      13272.1     16520.65     93.26221     186.0089     371.5011      2.546     8.89     1222.582     65.47659       655.23        53     2.243     1.845 -69.43   2
       301    760.7017    322.0440 307.6055030  +6.6011217     4545.689     7131.451      8701.74       93.115     185.7136     371.7226      1.722     4.73     1222.462     65.47659     536.5383        14     1.661     0.649  67.26   3
       302    119.3680    319.7437 307.8724885  +6.5806339      598.484     1338.187     2110.039     92.96754     185.7875     371.4272      2.133     4.07     1242.606     65.47659     125.9695         5     1.457     0.325  49.37   2
       303    123.1482    317.1430 307.8710040  +6.5818341     924.1263     2187.306     2684.835       93.115     185.7875     371.4641      2.550     6.79      1242.22     65.47659     118.2982        12     1.863     0.694 -76.50   2
       304    894.4913    313.5025 307.5501090  +6.6091015     760.6812     1579.851     1399.917       93.115     186.3773     371.4272      1.889     5.16     1218.845     65.47659     128.2695         6     1.518     0.495  67.21   0
       305    555.4744    310.7903 307.6912975  +6.5989222     1744.044      3160.74     4430.739     92.67194     185.3439     371.3164      2.295     8.49     1220.127     65.47659     205.6237        21     1.951     1.032  70.97   3
       306    559.5167    309.2888 307.6896660  +6.5996769     1547.724     3057.392     4313.436     92.81986     186.0089     371.5011      2.661     9.44     1219.948     65.47659     188.5699        24     2.200     1.130  44.65   3
       307    521.2526    309.9609 307.7055682  +6.5981218     903.9525     2319.364     3311.366     92.96754     185.7875     371.4272      3.176     9.39     1220.643     65.47659     121.7504        14     1.751     1.404 -45.40   2
       308    862.7728    306.2379 307.5635558  +6.6110446     5120.346     11223.19     13097.94     92.67194     185.5658     371.2794      2.309     6.42     1219.689     65.47659     590.2701        45     2.073     1.453  81.40   3
       309    865.6987    305.0277 307.5623789  +6.6116415     4148.374     6277.243     7362.337     93.26221     185.4919     371.4272      1.626     4.86     1219.517     65.47659     480.4913        17     1.567     0.738  62.48   3
       310    917.8331    306.0719 307.5406452  +6.6129450     1389.195     3648.359     3942.903     92.96754     185.7875     371.4641      2.436     7.24     1216.852     65.47659     161.2756        27     1.695     1.442  70.87   0
       311    950.4690    303.3640 307.5271534  +6.6151480     5069.605     12953.17      14573.4     92.96755     185.8613     371.5749      2.464     6.07     1215.417     65.47659     630.2273        50     1.841     1.672  83.75   0
       312    662.9740    304.3586 307.6467751  +6.6051640     1076.995     3206.543     4427.535     92.67194     185.6397     371.2794      2.996    10.93     1219.989     65.47659     153.4829        27     1.945     1.711  -6.23   2
       313    661.0000    301.0125 307.6477100  +6.6064793      793.316     1225.935     2462.164     92.52379     185.3439     371.2055      1.444     3.60     1219.636     65.47659     123.5447         5     0.675     0.554 -89.94   3
       314    471.5120    301.3585 307.7265613  +6.6000107     691.5357     1482.528     2267.519       93.115     185.7136     371.5011      2.666     4.40     1221.401     65.47659     120.4526         5     1.026     0.540 -55.39   3
       315    468.7454    298.3559 307.7278146  +6.6011576     617.3659     1456.484     2711.948       93.115     185.7875     371.4641      3.716     5.74     1221.338     65.47659     116.1917         6     1.105     0.839  84.65   2
       316    473.2271    297.7150 307.7259711  +6.6015719     606.3389     1223.425     2264.307     93.26221     185.4919     371.3164      1.747     4.64     1221.073     65.47659     89.47339         5     1.369     0.447  30.62   2
       317    801.1821    296.8182 307.5895084  +6.6128822     745.8907     1387.772     1981.374     92.81986     185.4179     371.3903      1.712     3.54     1219.978     65.47659     105.1816         5     1.064     0.340  45.56   0
       318    854.3358    295.7733 307.5674210  +6.6150831     902.0911      2127.96     3300.245     92.67194     185.7136     371.3533      2.946     6.31     1218.994     65.47659     127.5658        10     1.584     0.705  12.93   2
       319    712.7523    292.6461 307.6264542  +6.6116580     15724.62        35724     42405.97       93.115     185.6397     371.4641      2.390     8.27     1219.352     65.47659     1719.604        60     2.417     1.287  81.01   3
       320    716.2463    290.9906 307.6250560  +6.6124578     13002.21     24009.12     26488.49     92.52378     185.6397     371.0577      1.921     5.72      1219.18     65.47659     1456.336        35     1.711     1.008  77.33   3
       321    480.7010    296.4263 307.7229043  +6.6023536     790.0768     1690.639      2866.17     93.26221     185.4919     371.3903      1.927     3.49     1220.357     65.47659     117.2632         5     1.093     0.322  21.07   0
       322    318.9973    292.0362 307.7903517  +6.5987581     2588.106     6208.358     9510.579     92.07788     185.5658     371.2425      3.041    10.56     1229.125     65.47659     299.9316        54     2.987     1.688 -53.57   3
       323    315.8039    290.3829 307.7917369  +6.5993336     2224.287     5764.565     7242.576     92.67194     185.2699     371.2794      2.537     7.53     1229.131     65.47659     245.6436        27     1.861     1.311 -77.16   3
       324    484.8184    294.0108 307.7212726  +6.6034881     862.3106     1995.348      3136.11     92.67194     185.4179     371.3164      2.438     5.05     1220.075     65.47659     123.6901         7     1.182     0.611  79.56   0
       325    801.9811    293.0363 307.5893038  +6.6144698     859.7167     1789.296     2446.206     92.52379     185.5658     371.2055      2.488     6.01     1219.611     65.47659     122.3278         7     1.229     0.826   8.69   0
       326    880.8091    288.9659 307.5566327  +6.6187739     3578.504     7621.978     8673.901     92.52379     185.5658     371.2794      2.274     6.02     1217.315     65.47659     413.7307        33     2.059     1.093  89.83   3
       327    884.0098    288.6227 307.5553122  +6.6190221     2296.514     3482.742     4193.839     92.67194     185.4919     371.2794      1.672     4.77     1217.146     65.47659     297.6537        15     1.280     0.880 -81.07   3
       328    946.5778    290.5097 307.5292071  +6.6203244     1410.594     3359.935     4627.517       93.115     185.5658     371.3164      2.709     8.36     1214.328     65.47659      158.995        22     1.886     1.125 -79.31   2
       329    985.4238    288.8970 307.5130935  +6.6222814     1063.707     2656.144     2641.044     93.26221     185.4919     371.2425      2.434     8.46     1213.125     65.47659     174.1918        19     1.907     1.048 -84.63   0
       330    424.7358    290.5344 307.7463962  +6.6029149     1648.824     3225.517     4790.503       93.115     185.7875     371.4641      2.303     8.33     1223.839     65.47659     212.3578        21     1.827     1.062  33.98   3
       331    427.9032    287.5473 307.7451794  +6.6042537      1725.05     3370.057     4915.075     92.96754     185.7875     371.7595      2.529     9.77      1223.43     65.47659     217.1653        27     2.598     1.025  25.32   3
       332     82.9591    282.6987 307.8889021  +6.5947025     1431.859     2517.817     2920.994       93.115     185.6397     371.7226      1.769     5.85     1245.257     65.47659     205.6863        11     1.472     0.655 -15.70   3
       333     85.3363    279.3443 307.8880270  +6.5961667     1812.445     3572.463     5808.194     93.26221     185.7875     371.4641      2.732    12.51     1245.161     65.47659     216.7296        34     2.967     1.468   5.52   2
       334    227.2652    279.4352 307.8289570  +6.6008874     2048.979     4207.923     5069.641     92.96754     185.7875     371.5011      2.123     7.46     1234.687     65.47659     236.7026        23     1.894     0.892  38.93   3
       335    230.1786    276.6155 307.8278404  +6.6021488     2410.152     5212.346     6761.566     92.81986     185.4919     371.3903      2.458     8.91     1234.451     65.47659     289.7867        34     2.271     1.173  36.35   3
       336    253.3529    276.3208 307.8182058  +6.6030467     9549.978     40290.45     51277.87       93.115     185.8613     371.4272      3.022     9.54     1232.775     65.47659     1492.638        94     2.293     2.197 -84.49   0
       337    376.1763    273.7918 307.7671745  +6.6082015     15444.56     31370.95     34099.48     92.67194     185.5658     371.2794      2.115     7.17     1225.514     65.47659     1702.158        41     2.003     1.119  39.75   3
       338    379.6007    271.2668 307.7658351  +6.6093582     17309.56     37347.35     49624.18     92.22676     185.2699     371.1686      2.585    12.24      1225.11     65.47659     2032.334        67     2.798     1.491  38.23   3
       339    131.4520    271.1604 307.8691137  +6.6010913     1063.684     2134.574     3082.917     92.96754     185.7875     371.4641      2.648     6.00     1241.193     65.47659     183.3668        11     1.366     0.747 -86.04   3
       340    134.9160    273.5146 307.8675919  +6.6002358      1538.57     3853.885     4860.263     92.81986     185.9351      371.538      2.614     8.60     1240.798     65.47659      201.842        25     1.977     1.044 -75.11   2
       341    290.9034    268.9994 307.8028268  +6.6073259     914.0703     1745.219     2754.602     92.52379     185.3439     370.9837      2.565     7.80      1230.05     65.47659     114.8195        12     2.546     0.669  26.90   3
       342    280.2636    271.6157 307.8071660  +6.6058898     5806.813     11576.23      13151.2     92.52379     185.6397     371.2794      2.041     6.55     1230.811     65.47659     664.9636        33     1.970     1.001  35.09   3
       343    282.8875    268.4922 307.8061802  +6.6072669     6739.214     15714.71      20252.3       93.115     186.3036     371.5749      2.595     9.59     1230.591     65.47659     829.0604        52     2.424     1.289  32.64   3
       344    715.2526    268.1519 307.6262427  +6.6218514     12891.33     30660.76      36274.8     93.26221     185.7136     371.4641      2.427     7.76     1217.435     65.47659     1582.874        60     2.370     1.327  80.84   3
       345    718.6302    266.8211 307.6248819  +6.6225133     10985.74     19491.93     20833.99     92.52379     185.5658     371.3164      1.870     5.41     1217.412     65.47659     1284.178        28     1.616     0.977  79.83   3
       346     33.7531    265.5073 307.9099657  +6.6001467     3297.757     11789.56     14438.65     92.96754     185.7136     371.6118      2.831     8.19     1247.611     65.47659     491.5424        61     2.125     1.888 -63.98   0
       347    975.4443    246.5627 307.5186764  +6.6394236     1149.203     2743.306      3841.43     92.81986     185.7875     371.3164      2.851     6.58     1211.369     65.47659     162.1615        15     1.432     0.848  15.11   2
       348    252.2254    242.6179 307.8198211  +6.6169195     8802.306     36969.98     47355.65     92.67194     185.5658     371.3903      3.012     9.54     1232.671     65.47659     1317.572        99     2.332     2.204 -62.28   0
       349    569.3180    243.4185 307.6878198  +6.6271921     540.5581     1435.287     2387.277     92.67194     185.4179     371.3903      2.715     6.19      1214.68     65.47659     91.89758         8     2.338     0.460  56.76   0
       350    564.7537    244.9168 307.6896687  +6.6264213     816.6609     1633.919     3287.831       93.115     185.7875     371.4641      3.738     4.58     1214.798     65.47659     133.0027         7     1.197     0.655  45.87   0
       351    682.8069    239.1454 307.6407291  +6.6327423     3014.069     8532.094      10781.3     92.52378     185.4919     371.1316      2.775     7.60     1215.038     65.47659     341.1049        45     2.335     1.323  80.89   3
       352    685.8537    238.0175 307.6394991  +6.6333094     2527.271     4188.913     4685.151     92.52379     185.8613     371.1686      1.790     4.74     1214.997     65.47659      315.171        21     1.525     0.900  81.77   3
       353     93.9627    234.0000 307.8859814  +6.6151714     1210.162     1905.829     2597.153     91.92877     185.4919     371.2055      1.820     5.47     1244.728     65.47659     152.6816        10     1.275     0.663  -5.01   3
       354     93.5743    238.2273 307.8859990  +6.6134136     1703.573     3606.699     3456.255     92.52379     185.5658     371.2794      2.029     8.56     1244.728     65.47659     205.8995        21     1.936     1.058  58.35   3
       355     97.0021    236.2330 307.8846404  +6.6143517     1730.061     2679.172     2956.721     92.22676     185.5658     371.2055      1.645     4.39     1244.584     65.47659       250.97        16     1.311     0.828 -85.02   3
       356    363.5384    234.1105 307.7737822  +6.6241570     1379.035     2639.609     3249.159       93.115     185.9351      371.538      2.154     6.64     1223.997     65.47659     179.0736        16     1.586     0.780  69.77   3
       357    366.9475    231.8488 307.7724402  +6.6252046     1474.945     3505.657     5214.766     93.26221     185.6397     371.4641      2.767     9.09      1223.68     65.47659     186.9038        31     2.177     1.439  50.28   3
       358    329.1354    233.1812 307.7881323  +6.6233894     1076.504     2482.913     2725.532     92.67194     185.7875     371.2794      2.292     6.68     1226.747     65.47659     129.5696        14     1.623     0.772   8.77   3
       359    330.6068    229.7264 307.7876373  +6.6248646     1111.651     2515.197     3266.233     92.67194     185.2699     371.3533      2.253     8.52     1226.476     65.47659     127.5695        19     1.949     1.041  14.49   3
       360     85.8392    231.3333 307.8894531  +6.6159995     727.0399       1723.2      2262.61     92.96754     185.7136     371.5749      2.225     5.85     1245.112     65.47659     103.4812         9     1.651     0.583 -84.20   0
       361    975.6588    224.8006 307.5193219  +6.6484132     915.8226     2116.372     1779.456     92.22676     185.4179     371.0946      2.106     5.44     1210.277     65.47659     132.9714        11     1.573     0.531 -77.94   0
       362    181.7352    220.4444 307.8499130  +6.6237095     1823.185     6892.984     8750.129       93.115     185.7136     371.4641      2.985     9.21     1236.955     65.47659     242.0503        52     2.071     1.908 -58.63   0
       363     65.3054    220.2787 307.8983755  +6.6198731     957.1182       2767.5      3862.24     92.81986     186.0089     371.5011      3.108     9.76     1246.005     65.47659     137.6279        19     1.990     1.336 -28.49   0
       364    642.0776    219.2510 307.6583552  +6.6395953     2224.712     4895.854     6692.753       93.115     185.8613     371.4641      2.667     7.91     1213.668     65.47659     295.9084        33     2.127     1.097  79.04   2
       365    645.5249    218.0000 307.6569627  +6.6402267     2135.315         3779     4665.946     92.22675     185.0476     371.2055      1.946     6.04     1213.639     65.47659     264.2106        20     1.632     0.854  84.15   3
       366    595.5063    216.0973 307.6778459  +6.6393431     3042.116     11924.53     18623.98       93.115     186.4509     371.3533      3.450    16.65     1213.306     65.47659     856.1416        83     3.418     2.253 -57.96   3
       367    597.5833    207.8724 307.6772603  +6.6428073     18209.61      43641.7     54842.39     92.52379     185.7136     371.3533      2.513     9.01     1213.029     65.47659     2108.257        54     2.417     1.170  84.34   3
       368    601.3361    207.4632 307.6757121  +6.6431014     17581.21     31262.21     33655.95       93.115     185.7875     371.5011      1.894     6.56     1213.028     65.47659     1990.219        36     1.839     1.026  89.49   3
       369    324.0637    212.7337 307.7909381  +6.6316592     1293.715     3718.233     5722.074       93.115     185.7875     371.4641      3.236    10.04     1226.898     65.47659     153.5884        25     2.208     1.272 -72.44   2
       370    279.5831    203.1930 307.8097755  +6.6341080      1187.14     2379.014     3163.863     92.67194     185.4919     371.2794      2.392     9.45     1231.115     65.47659     152.7701        21     2.283     1.091   4.32   2
       371    279.6931    198.9967 307.8098723  +6.6358436     979.9423     2140.586     3050.091     92.67194     185.4179     371.1316      2.377     9.05     1231.182     65.47659     152.4319        16     1.999     1.143  -0.31   2
       372    663.3958    191.1212 307.6504349  +6.6519170     1180.955     3989.036     4966.027     92.67194     185.1958     371.1686      2.875    10.74     1212.598     65.47659     163.0548        36     1.881     1.710 -66.91   0
       373    403.5569    180.8142 307.7589363  +6.6474933      1134.47     2124.651     2996.017     92.22676     185.5658     371.1686      2.020     4.86     1216.965     65.47659     164.8602        11     1.231     0.674 -76.98   3
       374    404.3404    184.8104 307.7584745  +6.6458701     1370.547     2546.923     3092.072     92.37539     185.6397     371.1316      2.085     5.38     1217.299     65.47659     166.5059        15     1.277     0.862   3.94   3
       375    407.4061    181.8977 307.7572974  +6.6471748     1348.666     2196.125     3525.124     92.81986     185.3439     371.2055      1.961     5.55     1216.666     65.47659     187.2057        13     1.433     0.722  79.53   3
       376    877.8027    177.4705 307.5616524  +6.6646943      1864.36     5128.583     6259.918     92.52379     185.3439     371.2794      2.561     7.19     1208.632     65.47659     236.0212        40     1.808     1.604 -84.97   0
       377    858.7718    180.1463 307.5694834  +6.6629565     869.4129     1756.122     2334.209     92.81986     185.8613     371.3533      2.394     8.00     1209.291     65.47659     130.6057         9     1.637     1.092  39.56   2
       378    860.5032    177.0165 307.5688686  +6.6643060     892.4082     1772.656     2001.084     92.96754     185.5658     371.2794      2.300     6.19     1209.038     65.47659     110.0388         9     1.143     0.943  83.10   2
       379    115.5804    173.4820 307.8790453  +6.6408744     1006.211     2129.074     3458.948     92.67194     185.4179     371.3903      3.096     8.27      1241.41     65.47659     137.4543        15     1.975     0.968  28.87   2
       380    118.5676    170.3894 307.8779074  +6.6422511     1223.039     2498.923      3283.44     92.52379     185.4919     371.2794      2.480     7.60      1241.13     65.47659     164.9347        17     1.540     1.050  35.31   2
       381      1.3400    169.2472 307.9267367  +6.6387881     2810.456     3797.353     3833.909     80.97949     147.6929     279.5904      1.420     4.57       1249.2     65.47659     610.2859        15     1.605     0.558 -87.51  24
       382    798.9879    165.0161 307.5948798  +6.6672111     2863.248      4840.46     5739.146     92.81986     185.3439     371.3533      1.876     5.43      1209.07     65.47659     331.2133        24     1.545     1.066  15.83   3
       383    798.7900    161.7819 307.5950716  +6.6685394     2027.296     4500.156     6127.901     92.81986     185.4179     371.3164      2.687    10.05     1208.823     65.47659     305.7124        25     2.629     1.070   8.44   3
       384    745.8140    164.4314 307.6170330  +6.6656810     1190.739     4209.066     4631.627     92.67194     185.4919     371.3903      2.853    11.09     1210.931     65.47659     195.2211        31     2.029     1.689 -43.12   2
       385     39.8358    160.6117 307.9110091  +6.6436447      1267.71     3632.067     5082.565     92.52379     185.5658     371.1686      3.000    10.80     1246.412     65.47659     208.5334        32     2.072     1.737  62.82   2
       386    738.8685    152.4980 307.6203280  +6.6703750     863.6651     2056.354     3090.177       93.115     185.9351     371.4272      3.119     5.32     1210.509     65.47659     120.7799         8     1.040     0.770 -27.01   0
       387     66.6536    145.5617 307.9003602  +6.6507565     3262.979     11931.21      14435.7       93.115     185.8613     371.4641      2.832     7.95     1243.703     65.47659     508.3433        61     2.133     1.920 -71.93   0
       388    395.6208    145.2809 307.7634463  +6.6618940     706.5767     2753.315     3270.351     92.81986     185.4179     371.4272      2.844    10.93     1216.534     65.47659     115.6899        23     1.849     1.800  19.59   0
       389    607.9000    138.1979 307.6753276  +6.6719097     6791.415     16104.91     20748.25     92.52378     185.4919     371.1316      2.471     9.47     1209.772     65.47659     766.5424        48     2.410     1.223  77.12   3
       390    611.2688    136.5500 307.6739812  +6.6727022     6231.462     10864.13     12581.89     92.96754     185.7136     371.4641      1.904     6.12     1209.705     65.47659      635.986        30     1.818     0.979  77.81   3
       391    508.2170    135.4945 307.7169118  +6.6696970     1914.894     3407.043     3492.126     92.96754     185.5658     371.2794      1.871     6.38     1210.422     65.47659     236.9717        18     1.563     0.870  36.32   3
       392    509.8667    132.4249 307.7163292  +6.6710191     1688.609     4300.167      5367.15     92.67194     185.6397     371.3533      2.515     9.35     1210.318     65.47659     221.5469        29     2.267     1.076  31.89   3
       393    234.6776    130.0288 307.8309542  +6.6628016     2643.518      10568.7      14702.7     92.96754     185.8613     371.5011      3.402    13.90     1236.648     65.47659     382.7993        84     3.135     2.064 -41.49   0
       394    413.5527    131.1417 307.7564626  +6.6683296     7745.644     16642.47     21681.08       93.115     185.7875     371.6118      2.507    11.71     1213.746     65.47659     861.1484        53     2.822     1.352  70.54   3
       395    417.0000    128.9888 307.7551008  +6.6693334     7156.786     13699.57     15680.96     92.52379     185.3439     371.2055      2.082     7.99     1213.281     65.47659     900.1321        34     2.208     1.045  63.50   3
       396    891.4811    129.3435 307.5575854  +6.6850141     909.3005     2400.896     3069.283     93.26221     185.7875     371.5011      2.886     7.66     1205.342     65.47659     116.7959        13     1.819     0.903  65.91   2
       397      1.9233    129.7400 307.9278409  +6.6551135     963.2774     1901.272     1866.384     88.89397     157.9276     290.7515      2.047     6.45     1247.809     65.47659     134.6399        11     1.512     0.819 -78.82  24
       398    594.5414    129.0422 307.6811984  +6.6752428      1433.54     3296.114     4101.812       93.115     185.7875      371.538      2.625    10.51      1209.24     65.47659     164.6711        26     2.067     1.489  67.37   2
       399    597.6878    126.0688 307.6799895  +6.6765751     1192.264     1929.837     3251.527     93.26221     186.0826     371.5011      2.709     6.25     1209.026     65.47659     200.4121        10     1.339     0.821  60.82   3
       400    223.8125    126.8913 307.8355833  +6.6637326     1117.298     3316.728     4853.743     92.81986     185.4919     371.2055      3.334    10.15     1237.446     65.47659     139.5192        26     1.997     1.438 -43.24   2
       401    221.9413    123.4761 307.8364783  +6.6650795     806.1715     1348.216     1852.026     93.26221     185.8613     371.4272      1.536     3.49     1237.441     65.47659     111.6577         5     0.797     0.442  21.21   3
       402    664.1545    119.1802 307.6525560  +6.6816360     812.2937     2369.558     2615.732     92.67194     185.6397     371.2794      2.488     8.65     1208.709     65.47659     122.6344        12     1.857     1.125  18.91   0
       403    151.6160    113.7759 307.8660799  +6.6667257     3550.481     6443.969     7428.912     92.81986     185.6397     371.3903      1.932     6.03     1238.038     65.47659     463.4248        24     1.797     0.894  32.94   3
       404    154.6192    111.2928 307.8649144  +6.6678513     4294.192     9422.224     12605.42     92.96754     185.4919     371.3164      2.654     9.72     1237.904     65.47659     549.8147        44     2.543     1.396  37.38   3
       405    499.0070    109.7579 307.7216186  +6.6800120       888.25      1894.83     2743.525     92.52378     185.4919     371.1316      1.949     4.97     1210.057     65.47659     138.7664         8     1.391     0.502 -76.82   2
       406    494.8227    110.9461 307.7233200  +6.6793818     867.9615     2148.585     3078.157     92.52379     185.7875     371.2425      2.551     5.73     1210.166     65.47659      165.017         8     1.673     0.553  39.51   2
       407    897.0303    109.1999 307.5559563  +6.6935131     2060.098     4210.779     4760.038     92.22676     185.4919     371.2055      2.115     6.59     1204.233     65.47659     264.6292        27     1.778     1.105  62.88   3
       408    900.0382    108.0382 307.5547435  +6.6940926     1247.673     1817.364     2705.333     92.81986     185.6397     371.3164      1.853     5.70     1204.145     65.47659     163.8361        12     1.437     0.637  56.30   3
       409    697.9925    109.0650 307.6388133  +6.6869395     940.4637     2055.635     2902.974     92.52379     185.4919     371.2794      2.293     4.09     1208.105     65.47659     125.2323         7     0.927     0.516  46.34   0
       410    962.2438    105.0038 307.5289516  +6.6974140     1213.289     2615.393      3368.71     92.37539     185.3439     371.0946      2.378     7.09     1202.183     65.47659     149.8213        15     1.249     1.129  15.90   0
       411    681.5901    102.6435 307.6458585  +6.6890430     2849.854     7721.775     9908.271     92.52379     185.5658     371.1686      2.709     9.72     1207.746     65.47659     320.8013        44     2.159     1.659  68.41   2
       412    684.6550    100.3533 307.6446602  +6.6900905     2106.621     3527.848      4348.05       93.115     185.7875     371.5011      1.766     4.46     1207.559     65.47659     281.7627        10     1.119     0.618  42.63   3
       413    601.4165    102.4925 307.6792367  +6.6864306     1558.776     3138.609     3619.968     92.81986     185.5658     371.3164      2.180     5.77     1207.426     65.47659     166.3953        21     1.499     1.160  50.95   3
       414    604.7914    100.4722 307.6779003  +6.6873771     1205.296     2111.458     3268.042     92.52379     185.2699     371.2794      2.355     6.14     1207.193     65.47659     203.8871        14     1.509     0.702  70.20   3
       415      4.0342     97.3496 307.9280667  +6.6685528      3276.12     11099.07        12545     92.96754     183.7082     326.2391      2.715     7.61     1246.243     65.47659     491.8757        57     2.137     1.802 -83.65  24
       416    401.7729     95.4969 307.7625765  +6.6826477     1771.027     3404.784     5464.199     93.26221     185.4919     371.3903      2.998     6.25     1215.685     65.47659     200.6239        20     1.372     1.109   5.96   3
       417    404.7222     97.8878 307.7612676  +6.6817595     2067.764     4378.954     5259.548       93.115     186.1563     371.6118      2.236     7.48      1215.14     65.47659     258.1947        22     1.884     0.832 -68.78   3
       418    400.7180     99.3344 307.7628852  +6.6810286     1775.717     2313.195     3278.531      93.4092     186.0826      371.538      1.480     3.76      1215.76     65.47659     258.3013        11     1.020     0.784  63.76   3
       419    298.2715     94.3014 307.8056992  +6.6796776     4558.205     9776.186     13591.73     92.81986     186.0089     371.4641      2.819    10.15     1232.337     65.47659     526.4336        45     2.391     1.312  57.11   3
       420    301.6183     91.8715 307.8043887  +6.6807926       4466.4     9001.518     11729.47     92.52378     185.6397     371.3903      2.531     9.60     1231.681     65.47659       543.96        34     2.223     1.158  48.10   3
       421     74.3814     93.8167 307.8989069  +6.6723727     1094.817     2554.263     3155.069     92.81986     185.4919     371.3903      2.493     7.91     1240.473     65.47659     166.4663        19     1.929     0.908 -74.32   2
       422     70.4640     94.4926 307.9005144  +6.6719622     842.9464     1509.097     2696.225       93.115     186.0089      371.538      1.612     3.36     1240.784     65.47659     117.2727         5     0.741     0.464  18.60   3
       423    366.8347     90.6431 307.7772844  +6.6834823     939.3471     2594.016     3966.795     92.81986     185.7875     371.2794      3.147     9.77     1221.155     65.47659     119.4727        19     2.124     1.253 -55.36   2
       424     66.1092     90.4800 307.9024637  +6.6734722     711.1838     1620.037     2664.127     92.81986     186.0089      371.538      1.740     3.37     1240.901     65.47659     120.0886         5     1.199     0.274  55.08   0
       425    627.7318     75.9835 307.6691810  +6.6982502     1110.657      4101.94     5785.519     92.52379     185.7136     371.3533      3.341    11.36     1206.713     65.47659     168.4684        34     1.996     1.801 -36.52   3
       426    616.8387     82.7504 307.6734861  +6.6950937       3621.9     6610.121     7784.235     92.96754     185.7875     371.4272      2.015     8.30     1206.751     65.47659     410.7362        28     1.949     0.997  62.95   3
       427    619.7310     80.1623 307.6723699  +6.6962585     3250.607     6912.238     11017.02     92.96754     185.7875     371.5749      2.920    10.71     1206.727     65.47659     394.7964        43     2.811     1.138  38.13   3
       428    625.2409     87.2848 307.6698349  +6.6935026     4163.344      7831.79     8908.108       93.115     185.7136     371.4272      2.016     7.29     1206.858     65.47659     436.2081        30     1.738     1.145  51.75   3
       429    628.4993     85.4984 307.6685391  +6.6943486     3736.336     7144.444     9054.937       93.115       186.23     371.2794      2.352     9.38     1206.847     65.47659     397.8109        34     2.651     1.075  62.64   3
       430    790.4815     86.9163 307.6010630  +6.6991636     771.9495     1638.271     2116.561     92.81986     186.0826      371.538      2.754     5.77     1206.288     65.47659     113.7786         7     1.204     0.778  56.02   0
       431    226.7357     82.8083 307.8358664  +6.6820251     2117.377     8203.778      11162.8     92.52379     185.4919     371.3164      3.094     8.50     1236.826     65.47659     315.6825        64     2.336     1.988 -34.94   0
       432    386.6038     83.2327 307.7693072  +6.6872023     2731.022     5747.286      6217.94     92.22676     185.6397     371.1686      2.113     7.54     1218.381     65.47659     303.3318        29     1.856     1.133  39.86   3
       433    389.7677     80.2153 307.7680927  +6.6885535     2973.389     5837.447     7071.354     92.67194     185.4919     371.3533      2.301     9.58     1218.041     65.47659     316.0392        35     2.265     1.172  35.22   3
       434    649.7262     78.6964 307.6599336  +6.6978643     7386.696     20143.86     31765.34     92.81986     185.9351     371.4641      3.377     8.66     1206.879     65.47659     848.8629       103     2.935     2.020 -40.42   0
       435    702.2211     81.2265 307.6379959  +6.6985707     747.8787     1436.288     1752.542     92.67194     185.5658     371.3903      2.220     4.26     1206.806     65.47659      132.726         6     0.813     0.636  81.35   0
       436     34.7078     74.7492 307.9160701  +6.6789106      1211.55     4233.903     4851.531     92.96754     185.6397     371.6857      2.797    10.71     1242.009     65.47659       159.51        37     1.992     1.692 -75.69   0
       437    126.2889     72.5944 307.8780242  +6.6828733     2064.833     6196.246      9063.49     92.52379     185.4179     371.1686      3.227    10.30     1237.931     65.47659     225.8705        50     2.339     2.043 -15.65   2
       438    915.2112     73.6667 307.5495889  +6.7087844     522.1575     925.6748     1384.107     92.52379     185.5658     371.3164      2.837     5.06     1201.822     65.47659      80.5293         5     1.093     0.662  64.09   0
       439    751.5056     71.3210 307.6178154  +6.7043020     683.5648     1443.055     1778.055     92.81986     186.0826     371.5011      1.958     3.99     1205.813     65.47659     119.9906         6     1.019     0.446  34.87   0
       440    857.8281     68.7273 307.5736434  +6.7089136     874.3734     1912.579     2426.091     92.96754     185.7875     371.3903      2.718     3.87     1202.596     65.47659     149.1139         7     0.947     0.776 -25.84   2
       441    709.9792     67.0235 307.6352473  +6.7046916     611.5039     746.6196     1023.458     92.81986     185.5658     371.4272      1.367     3.76     1206.184     65.47659     89.08813         5     1.032     0.393  31.67   0
       442    712.3702     64.6997 307.6343307  +6.7057305     488.3986     1171.143     760.8675       93.115     185.4919      371.538      2.366     4.62     1206.072     65.47659     100.6895         6     1.640     0.369  25.00   0
       443    766.9774     59.5742 307.6117724  +6.7096660     1402.701       2653.5     3738.406     92.52378     185.5658     371.3903      2.404     6.05     1205.045     65.47659     198.3389        16     1.450     1.018  60.45   2
       444    769.9609     57.4625 307.6106019  +6.7106370     918.1531     1724.822     2525.516       93.115     185.7875      371.538      2.776     4.02     1204.845     65.47659     139.9532         8     0.942     0.652  10.84   3
       445    591.8894     55.5866 307.6847926  +6.7054728     4604.317     9199.733      11969.4     92.81986     185.4919     371.3164      2.362    10.25     1206.528     65.47659     525.6057        38     2.608     1.124  76.39   3
       446    595.5064     53.7588 307.6833489  +6.7063479     3946.544     7813.854     8988.672     93.26221     185.7136     371.5749      2.120     8.23     1206.453     65.47659     442.6987        28     1.901     1.065  67.74   3
       447    731.1415     49.1502 307.6270431  +6.7127742     2232.394      4884.67     6323.132       93.115     185.7875     371.5011      2.579     7.10     1204.946     65.47659     326.5543        32     2.085     1.203  83.75   2
       448    735.0000     48.0912 307.6254727  +6.7133400     1578.253     2678.774      4153.58     92.22676     185.1958     371.2055      2.819     5.62     1204.793     65.47659     225.4557        16     1.470     0.814  85.09   3
       449    221.6447     44.1896 307.8392996  +6.6977939     4123.775     8799.749     11195.91     92.52379     185.6397     371.1316      2.545     9.68     1235.939     65.47659     571.4669        39     2.427     1.310  54.52   3
       450    219.3451     46.6645 307.8401726  +6.6966953     3628.724       7636.3     9770.071     93.26221     185.7136     371.4641      2.447    10.48     1236.083     65.47659     409.2518        28     2.706     1.132  50.03   3
       451    471.1575     34.4122 307.7357684  +6.7101797     2973.519     9063.714     11664.55     92.37539     185.5658     371.1316      2.806     8.18     1209.856     65.47659     362.5587        52     2.314     1.699 -43.55   2
       452    468.8233     31.5784 307.7368363  +6.7112713     2051.361     3023.476     3621.755     92.81986     185.5658     371.4272      1.473     3.02     1210.073     65.47659      281.295        11     0.921     0.792  38.65   3
       453    404.5076   1019.4631 307.7300798  +6.3013721     1286.173     2663.603     3082.151       93.115     185.9351     346.9444      2.263     4.89      1272.67     65.47659     179.7141        15     1.242     1.073  51.73  18
       454    780.8069     30.6397 307.6069947  +6.7220694     926.1001     2231.488     2610.901     92.37539     185.4179     371.1316      2.615     6.88     1203.278     65.47659     116.1903        12     1.348     0.985 -17.82   0
       455    141.6948     30.4567 307.8730466  +6.7007816     4107.955     4169.141      3477.58     92.96754     185.7875     371.6857      0.911     2.05     1237.354     65.47659     1359.142         8     0.904     0.367  48.79   0
       456    326.4247     28.0332 307.7962332  +6.7079715     834.6579     1815.495      3601.57     92.37539     185.4919     371.2425      4.107     8.22      1228.24     65.47659     113.3308        15     1.683     1.121 -54.62   0
       457    317.6732     27.6588 307.7998889  +6.7078330     1200.294     3121.546     5716.308     93.26221     185.7875     371.4641      3.810    11.83     1229.448     65.47659     125.7224        22     2.368     1.646  64.39   2
       458    561.7411     25.1882 307.6983734  +6.7170130      642.014     1433.716      2087.25     92.37539     185.7136     371.1316      3.211     4.44     1205.808     65.47659     94.04602         5     0.766     0.732 -78.53   0
       459    821.3060     22.3330 307.5904162  +6.7268469     1579.566     4021.059     4690.639     92.96754     186.0089     371.4641      2.454     7.33     1201.577     65.47659     191.9088        29     1.605     1.416 -14.24   0
       460    285.4390     21.0542 307.8135315  +6.7094797     1118.773     2412.053     2850.681       93.115     185.8613     371.4641      2.305     7.99     1233.916     65.47659     132.1284        17     1.748     1.022  44.95   3
       461    287.6877     18.5602 307.8126803  +6.7105844     1071.469     2047.806     2293.455       93.115     185.7136     371.5011      2.072     7.36     1233.848     65.47659     166.5804        14     2.062     0.736  38.11   2
       462    305.6536   1018.8782 307.7712168  +6.2983084     6443.941     13715.69      14518.3     93.26221     185.7875     353.8354      2.169     4.85     1272.295     65.47659     740.3945        48     1.655     1.576  61.03  16
       463    225.8972   1017.9510 307.8044216  +6.2960220     4809.686     10215.03     11515.43       93.115     185.7136     363.1349      2.234     4.90     1271.059     65.47659     554.9592        44     1.630     1.580  72.86  16
       464    883.3936   1007.6759 307.5312837  +6.3222034     1030.915     1772.746     1102.845     92.67194     185.1958     371.2794      1.817     6.29     1267.305     65.47659     127.8241        12     1.112     1.000  32.51   0
       465    720.2595   1001.1467 307.5993623  +6.3194680         1140     2386.806     2783.782       93.115     185.7136     371.4641      2.289     6.91     1268.881     65.47659     140.9769        15     1.269     1.055 -65.49   0
       466    951.0311    997.1517 307.5035036  +6.3287963     1096.188     1772.367     2973.554     92.67194     185.7875     371.3533      3.316     6.33     1265.973     65.47659     158.5507        13     1.286     0.956 -60.17   0
       467    504.4487    996.9720 307.6892718  +6.3139937     753.6302     1467.638     1517.705     92.67194     185.8613     371.3903      1.821     6.54     1271.917     65.47659     111.9106         6     1.450     0.829 -64.28   0
       468    638.6072    994.7108 307.6335442  +6.3194031     1773.061     3525.909     3177.664     92.52379     185.4179     371.1686      2.020     6.28     1270.405     65.47659     214.1858        23     1.413     1.192 -76.50   0
       469     35.5185    991.4626 307.8845064  +6.3005755     1977.678     3976.932     3904.427     93.26221     185.7875     371.4641      2.070     6.34     1271.532     65.47659     251.2474        28     1.555     1.299  80.81   0
       470     53.1573    990.4295 307.8772051  +6.3015935     1378.315     2411.446     2534.571     92.67194     185.7136     371.3164      1.851     5.63      1271.25     65.47659     195.5759        18     1.389     1.141  13.77   0
       471    178.9211    989.8986 307.8249139  +6.3060276      1624.61     3290.502     3242.532     92.96754     186.1563     371.5011      1.994     6.00     1270.771     65.47659     194.6592        23     1.509     1.165  17.47   0
