#   1 NUMBER                 Running object number                                     
#   2 X_IMAGE                Object position along x                                    [pixel]
#   3 Y_IMAGE                Object position along y                                    [pixel]
#   4 ALPHA_J2000            Right ascension of barycenter (J2000)                      [deg]
#   5 DELTA_J2000            Declination of barycenter (J2000)                          [deg]
#   6 FLUX_APER              Flux vector within fixed circular aperture(s)              [count]
#   9 FLUXERR_APER           RMS error vector for aperture flux(es)                     [count]
#  12 FLUX_RADIUS            Fraction-of-light radii                                    [pixel]
#  13 FWHM_IMAGE             FWHM assuming a gaussian core                              [pixel]
#  14 BACKGROUND             Background at centroid position                            [count]
#  15 THRESHOLD              Detection threshold above background                       [count]
#  16 FLUX_MAX               Peak flux above background                                 [count]
#  17 ISOAREA_IMAGE          Isophotal area above Analysis threshold                    [pixel**2]
#  18 A_IMAGE                Profile RMS along major axis                               [pixel]
#  19 B_IMAGE                Profile RMS along minor axis                               [pixel]
#  20 THETA_IMAGE            Position angle (CCW/x)                                     [deg]
#  21 FLAGS                  Extraction flags                                          
         1    931.9038      7.4848 307.5495622  +6.9833283     4603.315     12208.31      15734.8     96.87039     193.7408     381.2623      2.760     8.21     1290.483     68.11731     541.4786        52     2.386     1.490  78.20  19
         2    935.3322      6.4823 307.5481566  +6.9838591     3086.982     5606.571     6200.225     97.02355     193.5874     372.0777      1.976     5.28     1290.207     68.11731     346.5458        18     1.653     0.823  83.02  19
         3    613.6996      7.1701 307.6830713  +6.9728083      2670.95      10548.6     15172.11     96.87039     192.9729     378.6833      3.272    11.60      1299.02     68.11731     365.9631        69     2.604     2.036 -44.44  18
         4    611.0549      3.9633 307.6842859  +6.9740511     2427.597     3884.303      4881.44       96.717     190.4168     338.3449      1.781     4.15     1299.249     68.11731      284.027        15     1.119     0.951 -51.94  19
         5    767.7302      6.6824 307.6184663  +6.9781711     1062.082     2594.232     3921.981     97.17646     193.5874      374.147      3.059     4.89     1293.263     68.11731     147.7883        12     1.317     0.771  24.61  18
         6    855.1238      2.3084 307.5819440  +6.9829112     645.2261      1184.26     1088.743     95.79145     170.8537     309.8013      1.679     4.62     1291.964     68.11731     99.58728         5     1.340     0.452 -60.90  24
         7   1013.9722      1.3347 307.5153311  +6.9886228     2799.139     4071.988     4788.995     83.71504     153.4561     290.7133      1.394     4.48     1283.602     68.11731     612.7875        15     1.559     0.513   1.75  24
         8    770.7045      2.2456 307.6173635  +6.9801129     767.5312     2006.125      3377.59     95.63633     169.3698     308.8412      3.375     4.82     1292.889     68.11731     139.5078         6     1.132     0.581  20.39  24
         9    930.7072    987.0675 307.5181127  +6.5765349      910.944     2069.144     2617.151       96.717     193.5107      386.484      2.553     6.76      1357.33     68.11731     128.5505        10     1.328     0.966 -14.54   0
        10    486.4264   1023.2874 307.7031606  +6.5466273     2584.062     3957.492     4300.115     89.87357     160.1786     298.1765      1.693     5.79     1365.314     68.11731     357.1528        18     1.603     0.720   6.51  24
        11    349.5923   1020.3581 307.7606107  +6.5432505     10022.66     31849.53        37749     96.10096     193.0498     348.4199      2.753     6.73     1366.677     68.11731     1256.169        78     2.122     1.994  12.84  24
        12    215.8151   1021.6906 307.8166384  +6.5382006     1335.407     2972.238     2612.045     96.56335     183.7502     327.5529      2.081     8.23     1365.749     68.11731     178.0256        25     2.055     1.120  17.37  24
        13    405.6577    985.0054 307.7382697  +6.5598121     604.5426      1192.06     1690.513     96.25533     193.1267     386.0996      1.859     5.16     1364.836     68.11731     121.5979         6     1.537     0.489  49.47   0
        14    354.1518    984.9294 307.7598615  +6.5581140     775.3245     2074.981     2671.678     96.87039     193.2036      386.484      2.537     6.00     1365.406     68.11731     111.4011        10     1.482     0.682  -4.11   0
        15    693.0083    977.0000 307.6180819  +6.5727687     1607.262     2609.484     3837.856     95.94633     192.8189     386.1765      1.851     6.01     1361.375     68.11731     255.1914        11     1.623     0.625  10.06   3
        16    694.5729    974.2141 307.6175171  +6.5739778     2830.755     6173.181     7548.162     96.40947     193.0498     386.3303      2.506     8.21     1361.093     68.11731      310.921        39     2.006     1.775  43.41   2
        17    132.4554    976.7166 307.8530557  +6.5540687     910.3193     1864.826     2352.948     96.87039     193.2804     386.5608      1.792     4.50     1363.592     68.11731     137.1385         8     1.225     0.470  47.13   0
        18     29.3731    975.2668 307.8963093  +6.5511983     713.5571     1536.615     1583.881     96.40947     193.1267     386.3303      2.399     5.57     1361.461     68.11731     104.6942         7     1.309     0.667  43.06   0
        19    711.1763    973.0773 307.6105943  +6.5750056     1125.719     3390.305     4165.754     96.40947     193.1267     386.4071      2.775     9.54       1360.3     68.11731     143.9791        28     1.731     1.466 -34.69   0
        20    301.7268    968.8068 307.7823649  +6.5630468     726.6683     2129.378     3014.535     96.40947     192.7419     386.3303      2.595     5.42     1364.637     68.11731     101.3602         8     1.396     0.595 -67.60   2
        21    949.0757    963.8073 307.5111706  +6.5868064     3289.122     7557.315     8527.811     96.40947     192.6649     386.2534      2.302     5.32     1356.331     68.11731     412.2571        40     1.703     1.469 -79.15   0
        22    428.3348    963.1459 307.7294807  +6.5696497     921.8659     1971.258     2154.403     96.87039     193.2036     386.4071      2.380     6.59     1363.802     68.11731     122.1385         9     1.314     0.927  18.43   0
        23    190.2096    960.0622 307.8293954  +6.5629275     1989.413     7067.847     9049.308     96.10096     193.0498      386.215      2.930     7.80     1363.455     68.11731     302.5331        56     2.094     1.930  76.74   0
        24    324.0443    950.2151 307.7736202  +6.5715162     842.8657      2092.83     2529.543     96.25533     193.0498     386.1765      2.299     5.14     1363.957     68.11731      120.394         7     1.400     0.534 -23.75   0
        25     96.3624    946.8027 307.8691677  +6.5652736      632.949     1140.924     1582.895     95.79145     192.9729      386.215      1.932     2.52     1362.098     68.11731     124.1276         5     0.738     0.427 -68.49   0
        26    246.6226    944.9365 307.8062462  +6.5711054     631.2682      1314.53     1592.943     96.40947     193.2804     386.2918      2.183     4.63     1363.173     68.11731      95.5459         5     1.027     0.593 -17.51   0
        27    665.4819    941.2252 307.6307899  +6.5867016     1413.592     2732.633     4200.079     96.56335     192.9729     386.4456      2.318     6.74     1359.733     68.11731     205.0206        17     1.892     0.674  23.41   3
        28    667.4595    938.0366 307.6300651  +6.5880918     2222.424     4438.109      5710.89     96.87039     193.2804     386.4456      2.267     6.67     1359.446     68.11731     290.6921        30     1.958     1.110  24.04   3
        29    505.1915    941.2256 307.6979821  +6.5813299     836.0505     1803.968     2403.703     96.40947     193.0498     386.2534      2.062     6.86      1362.21     68.11731     132.8085        10     1.730     0.763  31.64   0
        30    846.5822    939.5096 307.5549285  +6.5934720     800.1403     1892.204     2892.001     96.56335     192.9729     386.3303      2.416     5.17     1357.876     68.11731     119.9011         7     1.710     0.442  62.35   0
        31    607.7922    938.9467 307.6550476  +6.5857155     916.5181     2344.319     2555.693     96.25533     193.0498     386.0996      2.483     6.95     1361.295     68.11731     116.5073        12     1.508     0.897 -44.08   2
        32    164.9079    927.2155 307.8410803  +6.5757141     720.4193     1682.205     2420.518     96.56335     193.0498     386.2918      2.533     5.60     1362.152     68.11731     124.7736         6     1.314     0.673  45.88   0
        33    167.2475    923.7475 307.8402136  +6.5772328     884.6931     2069.081     2925.407     97.02355     193.2036      386.484      2.714     6.31      1362.03     68.11731     127.2979        11     1.822     0.613  29.32   0
        34    398.0000    915.9985 307.7437419  +6.5882075     5343.754     8989.116     10176.15     95.94633     192.6649     386.0612      1.806     5.10     1362.438     68.11731     680.3801        21     1.567     0.891  81.86   3
        35    401.3468    913.6194 307.7424169  +6.5893077     8910.759     21929.14     30583.94     96.25534     193.2804      386.215      2.843     8.16     1362.324     68.11731     1008.637        80     2.498     1.983  66.73   3
        36    724.6335    915.3235 307.6068399  +6.5994365     3833.764     6368.507     7785.719       96.717     193.2804     386.4071      1.880     5.95     1357.355     68.11731     479.9829        21     1.705     0.851  45.44   3
        37    726.7332    912.4975 307.6060520  +6.6006802     5719.156     13121.98     16425.15     96.87039     193.3572     386.5224      2.598     6.24     1357.175     68.11731      663.696        53     2.282     1.392  31.58   2
        38     86.7961    909.2261 307.8744136  +6.5805532     721.2052      1895.39     2752.548     96.25533     193.0498     386.2534      2.444     3.51     1360.431     68.11731      98.6366         5     1.019     0.350  44.37   0
        39     90.5023    907.9331 307.8729026  +6.5812149     1082.861     2191.056     2521.783     96.87039     193.3572     386.5224      2.321     4.28     1360.377     68.11731     148.9819         7     0.902     0.580  60.88   2
        40    524.6087    900.1099 307.6911888  +6.5990531     1515.947     5371.718     6931.129     96.40947     192.8959     386.1765      2.914     8.88     1360.397     68.11731     229.6523        40     2.119     1.804 -39.73   0
        41    487.2576    899.1162 307.7068789  +6.5982129     909.4882     2424.792     3337.303     96.87039     193.2804     386.5224      3.091     7.86      1360.78     68.11731     107.4758        16     1.937     0.891  -0.76   2
        42    831.4576    896.6890 307.5626661  +6.6107468     4616.888     13812.64     16158.78       96.717     193.2036     386.5992      2.679     6.71     1355.985     68.11731     591.9518        62     1.982     1.904 -59.62   0
        43    918.0089    894.5117 307.5264527  +6.6145426     4666.512     12663.83     14864.44     96.40947     192.8959     386.1765      2.589     6.18     1353.956     68.11731     602.1667        58     1.918     1.841 -71.25   0
        44    630.4472    898.3193 307.6468794  +6.6033437      650.499     1574.497     3436.574     96.87039     193.2804      386.484      3.766     5.47     1358.781     68.11731     111.2516         5     1.245     0.678 -42.55   0
        45    884.8146    895.7961 307.5403267  +6.6129006     1278.558     2867.237     3694.597     96.40947     192.8189     386.2534      2.501     7.00     1354.988     68.11731     152.6744        16     1.459     0.940 -60.79   2
        46    628.8320    892.6853 307.6477407  +6.6056290     948.0459     2320.512     3241.974     96.87039     193.0498     386.3687      2.470     4.96     1358.593     68.11731     192.4453        10     1.460     0.553  -2.07   2
        47    451.4790    884.2524 307.7223643  +6.6031841     967.9725     2175.833     3261.132     96.87039     193.2804     386.4456      2.913     3.49     1360.589     68.11731     145.2717         8     0.959     0.795  21.99   2
        48    437.0645    888.0073 307.7282838  +6.6011412     690.0595     1582.107     2109.461     96.25534     192.9729     386.2534      2.236     4.79     1360.884     68.11731     87.17773         6     1.313     0.495  12.06   0
        49    285.0616    882.4598 307.7921847  +6.5983386      2242.53     7984.658     11929.31     96.87039     193.2804      386.484      3.333     9.87     1361.693     68.11731     250.2313        74     2.553     2.097 -84.55   0
        50    820.9814    887.4083 307.5673608  +6.6142501     662.3274     879.6288     1851.808     96.56335     192.8959     386.2534      1.412     4.22     1355.491     68.11731     99.45996         5     0.812     0.626 -87.64   1
        51    769.3634    886.0347 307.5890450  +6.6130945     852.5521     2305.007      3127.43     96.56335     192.9729     386.1381      2.728     7.91     1355.624     68.11731     118.7345        13     1.541     1.135 -53.84   0
        52    681.7314    882.8376 307.6258865  +6.6114895     13554.46     46362.87     58900.68       96.717     193.2804     386.5608      2.915     7.24      1356.95     68.11731     1680.205       103     2.241     2.209  32.71   0
        53    822.7452    884.3148 307.5667223  +6.6155937     792.0438      2078.92     2248.309     96.87039     193.2804     386.6376      2.509     7.21     1355.292     68.11731     125.6566        11     1.770     0.823  27.42   0
        54    915.6801    881.3123 307.5278594  +6.6199456     1367.032     3495.754     4116.824     96.56335     193.5874     386.5992      2.533     7.94     1353.095     68.11731     188.8324        28     1.688     1.412 -21.98   0
        55    849.4172    879.8063 307.5556878  +6.6183572     3238.736     9297.513     11035.58     96.40947     192.9729     386.2534      2.607     6.54     1354.788     68.11731     400.8425        51     1.891     1.816 -63.64   0
        56    952.2865    880.6387 307.5125347  +6.6214476     754.3428     1756.489     1615.827     96.87039     193.2036     386.4456      2.109     5.92     1352.058     68.11731     104.7471         7     1.582     0.623  78.45   0
        57    393.2752    879.0202 307.7469349  +6.6034027     1796.239     6078.667     7919.782     96.40947     193.0498     386.3687      2.985     8.80     1361.124     68.11731     233.2305        50     2.031     1.959 -21.33   0
        58     50.9814    870.7576 307.8906918  +6.5953186     1706.359     5972.398     7462.503     96.25533     193.0498     386.1765      2.862     7.59     1358.376     68.11731     276.8367        47     2.126     1.862  56.42   0
        59    221.0870    867.5020 307.8194935  +6.6023979     10149.39     39372.88     52156.13     96.87039     193.8174      386.484      3.097     7.83     1361.257     68.11731       1584.8        99     2.362     2.246  61.37   0
        60    194.8392    870.8513 307.8303862  +6.6001241     1642.992     3364.333     4842.761     96.56335     193.2804     386.4456      2.441     8.37     1360.546     68.11731     196.4315        23     1.932     1.013  26.36   3
        61    197.1173    867.3079 307.8295477  +6.6016720     2520.066     5854.306     7607.967     96.56335     193.6641     386.5608      2.529     7.09     1360.484     68.11731     309.8452        35     2.077     1.125  29.12   3
        62   1006.7789    869.5898 307.4900495  +6.6278541     753.6552     1893.634     2737.421     96.40947     192.9729     386.2534      2.807     7.00     1349.702     68.11731     121.3649         9     1.821     0.753  80.88   0
        63    343.3121    864.8312 307.7683449  +6.6076159     12453.33     24995.24     28819.14     97.02354     193.0498     386.3687      2.155     7.37     1361.325     68.11731     1269.684        41     2.171     1.008  41.21   3
        64    345.7826    861.4639 307.7674197  +6.6090970     18034.81     44090.29     54801.39     96.25534     193.2036     386.2534      2.582     7.60      1361.22     68.11731     2139.974        76     2.512     1.517  36.67   3
        65    101.0059    867.3386 307.8698351  +6.5984236     1032.963      2216.85     2973.335     96.10096     193.0498     386.1765      2.295     5.83     1358.234     68.11731     152.4771        11     1.459     0.655  16.60   3
        66    102.2801    863.2442 307.8694357  +6.6001665     1711.486     3882.674     5416.965     96.87039     193.2804     386.4456      2.605     8.51     1358.134     68.11731     206.0129        27     1.952     1.247  35.09   2
        67    247.8698    862.9993 307.8084142  +6.6051683      4174.37     8841.758     10892.84     96.25534     192.7419      386.215      2.241     7.64     1361.261     68.11731     454.0369        29     2.125     0.918  32.12   3
        68    250.0401    859.4568 307.8076208  +6.6067121     6763.693     16835.26     23689.03     96.87039     193.3572      386.484      2.953     7.50      1361.13     68.11731     786.7544        78     2.957     1.577  22.10   3
        69    684.1400    858.8214 307.6256617  +6.6215422     10676.85     38163.81     49192.96     96.40947     193.2036     386.3303      2.985     7.77     1355.946     68.11731     1361.992       102     2.258     2.234 -58.52   0
        70      2.6973    856.6625 307.9113954  +6.5995433     3846.339     8311.122     8773.855     96.56335     176.2436     316.9557      2.199     6.84     1358.053     68.11731     537.3353        40     2.030     1.323  88.19  24
        71    733.6084    857.8417 307.6049552  +6.6236047     611.9445     1029.828     1569.601     96.10096     193.0498     386.1381      1.900     5.52       1354.2     68.11731     114.2501         6     1.421     0.604  39.55   0
        72     36.5736    853.8351 307.8972883  +6.6018592     757.0876     1250.904      1601.61     96.10096     192.9729     386.1381      1.848     4.21     1358.036     68.11731     106.9281         7     1.292     0.391  75.79   0
        73    943.7315    838.4063 307.5174977  +6.6386982     1016.121     2504.347     3890.375     96.25534     192.8189     386.2534      3.034     8.33     1348.712     68.11731     133.5216        14     1.809     1.072  50.81   0
        74    219.9258    833.7740 307.8210883  +6.6163629     8165.402     33934.02     46675.26     96.40947     193.1267     386.4071      3.179     8.31     1359.896     68.11731     1460.098       107     2.412     2.340  46.08   0
        75    535.0880    833.9084 307.6889632  +6.6268925     728.9659     2120.599     3076.582     96.87039     193.8174     386.5992      3.223     8.87     1356.898     68.11731     122.8923        13     1.835     1.197  11.44   0
        76    649.5020    831.4980 307.6410763  +6.6317276     2233.879     4123.135     4845.619     96.87039     193.7408     386.2534      2.181     6.99     1354.897     68.11731     262.2698        19     1.886     0.726  60.44   3
        77    651.9910    828.4626 307.6401321  +6.6330713     2843.773      6902.49     8992.737     96.10096     193.0498      386.215      2.616     7.65     1354.691     68.11731     343.5496        45     2.339     1.542  50.74   3
        78     62.3700    830.4995 307.8872429  +6.6124176     1085.768     2602.447     4099.248     96.87039     192.9729     386.5224      3.284     8.10      1357.96     68.11731     145.8478        19     2.178     0.842  29.37   3
        79     63.5873    826.5831 307.8868615  +6.6140847     1942.062     4293.206     5400.274     96.40947     192.8189     386.2918      2.526     7.89     1357.948     68.11731     221.7069        29     2.145     1.018  29.43   3
        80    333.1951    823.3787 307.7739461  +6.6244876     1167.414     4443.761     6246.519     96.40947     192.9729      386.215      3.178    11.23     1360.304     68.11731     199.8362        40     2.136     1.954   3.36   0
        81    298.0594    820.9211 307.7887562  +6.6243271     1168.517     3141.305     4718.978     97.02355     193.2804     386.3687      3.220     9.57     1360.476     68.11731      127.967        22     1.840     1.387  29.99   0
        82     53.6450    821.0651 307.8912109  +6.6160407      750.186     1494.922     2413.161     96.87039     193.2036     386.4456      2.609     2.94     1357.953     68.11731     131.8304         5     0.858     0.478 -87.90   0
        83    149.3907    811.3860 307.8513927  +6.6232846     1560.195     6183.562     8581.695     96.56335     192.9729     386.3303      3.172     8.30     1357.987     68.11731     270.9387        55     2.233     2.101 -44.91   0
        84    609.7366    812.0189 307.6583846  +6.6384837     1587.872     3635.627     4881.743     96.40947     193.2804     386.2534      2.710     8.71     1353.877     68.11731     194.2762        26     2.123     0.998  52.21   3
        85    613.2719    808.9866 307.6570016  +6.6398612     1808.249     3379.785     4517.514     96.25533     192.8959     386.2918      2.125     4.66     1353.649     68.11731     228.1635        19     1.398     1.074  65.37   3
        86    610.0368    807.6776 307.6584007  +6.6402963     1684.971     2516.292     2921.957       96.717     193.3572     386.4456      1.494     5.19     1353.588     68.11731     249.4874        11     1.184     0.647  46.64   3
        87     33.5902    810.8627 307.8999536  +6.6196008      948.559     2470.594     4063.051     96.25533     193.0498      386.215      3.173     7.86     1357.982     68.11731     110.1399        15     1.777     0.974  63.97   2
        88   1015.3074    806.8342 307.4885178  +6.6541968     2648.124     7190.687     8030.818     97.02354     193.1267     386.5224      2.545     6.92      1343.82     68.11731     315.5955        48     1.953     1.709 -58.20  16
        89    564.5944    800.3986 307.6776902  +6.6417957     13423.38     28766.34     47556.64     96.10096     192.8959      386.215      3.754     9.21      1354.13     68.11731     1462.315       111     4.231     2.155 -81.01   3
        90    567.3930    797.0576 307.6766263  +6.6432768     17510.48     43490.73     52934.57     96.10096     193.1267     386.0996      2.563     7.64     1353.844     68.11731     1862.799        73     2.506     1.408  32.76   3
        91    291.2406    801.8010 307.7922424  +6.6320367     1373.493     3522.691     5775.564     96.10096     192.8959     386.0996      3.416     7.80     1360.171     68.11731     197.2811        21     2.001     0.850  30.92   0
        92    471.8956    800.8284 307.7165388  +6.6385082     496.6061     1319.806     1765.543     97.02354     192.9729     386.4071      2.945     5.67     1355.941     68.11731     105.3904         5     1.510     0.599  16.59   0
        93    244.7308    794.1586 307.8119912  +6.6336459     1020.047     2323.662     3298.999       96.717     193.2804     386.5224      2.592     8.60     1358.591     68.11731     125.7622        15     1.956     1.056  31.84   3
        94    247.2728    791.2681 307.8110204  +6.6349316     1219.031     2737.928     3524.156     97.02355      193.434     386.4456      2.521     8.54     1358.425     68.11731     157.1599        21     2.247     0.906  21.46   2
        95    631.3201    781.2780 307.6503414  +6.6519711     1166.427     3380.457     4558.179     97.17646     193.5874     386.6376      2.732     9.13      1351.53     68.11731      179.873        25     2.079     1.400   6.45   2
        96    371.8807    776.7511 307.7592579  +6.6451477     880.1833      1739.05     2632.827     96.87039     193.3572      386.484      2.252     6.22     1356.842     68.11731     128.5809         8     1.515     0.717  32.91   3
        97    375.3031    773.7003 307.7579232  +6.6465294     1237.122     2368.745     3589.964     96.87039      193.894     386.2534      2.339     6.65     1356.532     68.11731      175.668        14     1.697     0.730  89.82   3
        98    371.5021    772.0596 307.7595705  +6.6470830     1206.055     2382.225     3462.215     96.56335     193.2036     386.5992      2.621     6.62     1356.461     68.11731     183.7623        13     1.602     0.768 -46.16   3
        99    843.8107    770.7870 307.5615956  +6.6634377     1382.982     2297.171      3197.77     96.56335     192.9729     386.4071      1.903     7.36      1346.07     68.11731     175.6621        17     1.647     0.921  35.13   3
       100    845.9167    767.1517 307.5608312  +6.6650176     1644.857     3663.185     4488.846     96.87039     193.2804      386.484      2.486     7.76     1345.745     68.11731     188.7213        29     1.860     1.203  32.51   3
       101    825.8619    771.9003 307.5690845  +6.6623754     509.6479     1077.359      2348.76     96.56335     193.2804     386.5992      1.800     4.91     1346.911     68.11731     116.5826         5     1.463     0.467  20.19   0
       102    538.6512    765.5176 307.6897087  +6.6554092     924.5062     1681.928     2092.752     96.87039     193.2804     386.5224      1.875     5.63     1352.007     68.11731     116.0393        10     1.158     0.772  18.40   0
       103     86.1932    762.2247 307.8795029  +6.6415682     1303.724     3320.032     4710.113     96.25533     193.1267     386.2534      3.173     7.80     1355.759     68.11731     174.8363        18     1.959     0.869  68.58   2
       104    338.8298    765.0317 307.7734985  +6.6489033     684.7775     1596.233      2288.87     96.25534     192.9729     386.1381      3.092     3.84     1356.613     68.11731      104.235         5     0.839     0.504 -29.36   0
       105    766.0703    754.3741 307.5947255  +6.6676532     2069.441     5012.573     6435.492     96.40947     193.1267     386.3687      2.447     9.81     1347.016     68.11731     221.5845        32     2.182     1.231  84.46   3
       106    769.6529    753.7858 307.5932426  +6.6680173     1829.698     4097.472      5700.33     96.10096     193.2036     386.1381      2.356     7.60     1346.961     68.11731     213.6262        22     2.221     0.729  80.12   3
       107    713.4668    753.9755 307.6167934  +6.6660585     1238.028     3560.629     5576.006     96.40947     193.2036     386.3303      3.415    10.29     1347.865     68.11731     173.6228        24     2.040     1.447 -14.55   2
       108      7.4910    752.4561 307.9128177  +6.6429713     1097.867     3441.764     4652.268       96.717     193.1267      381.457      2.950    10.55     1356.039     68.11731     159.8146        29     1.982     1.566  61.79  16
       109    709.2187    741.3778 307.6189862  +6.6711472     724.4313     1402.345     2299.631     96.56335     193.2036     386.3687      2.157     3.74     1346.857     68.11731     97.61279         5     0.996     0.403 -84.25   0
       110     34.4924    736.9056 307.9020103  +6.6503383     2614.869     10291.83     13756.39     96.87039      193.894     386.4456      3.134     7.74     1355.088     68.11731     442.1028        71     2.353     2.139 -87.63   0
       111    574.6430    729.9879 307.6757820  +6.6713686     4505.395     9398.171      11970.8     96.25533     193.0498     386.0996      2.255     8.31     1348.768     68.11731      508.572        29     2.100     0.966  47.24   3
       112    577.6628    726.7694 307.6746213  +6.6728062     5370.268     14651.83     19593.26     96.56335     193.3572     386.4071      2.822     9.38     1348.605     68.11731     632.4288        61     2.565     1.550  40.29   3
       113    474.7803    726.8169 307.7177546  +6.6693359     1279.367     2783.252     4757.489     96.56335     193.0498     386.3303      3.001     9.72     1352.485     68.11731     159.0244        22     2.210     1.193  13.32   3
       114    478.8167    722.6361 307.7161993  +6.6712073     1421.948     2488.232     4071.548     96.40947     193.0498     386.1765      2.415     5.71     1352.128     68.11731      184.254        16     1.488     0.874  48.54   3
       115    475.0222    722.3807 307.7177986  +6.6711860     1552.632     2841.529     4326.336     96.56335     193.2036     386.3687      2.533     4.08     1352.119     68.11731     217.6161        14     1.080     0.978  23.88   3
       116    380.5767    722.2619 307.7573996  +6.6680645     5303.435     11925.96     14017.76     96.40947     193.2804     386.3303      2.343     7.99      1353.01     68.11731     589.5912        40     2.307     1.108  31.21   3
       117    383.0175    718.8322 307.7564887  +6.6695706         6626     18521.52     24532.42     96.40947     193.0498     386.2918      2.826     8.80     1352.852     68.11731     819.0112        64     2.717     1.355  30.25   3
       118    203.7903    719.3502 307.8316127  +6.6633296      2946.33     7667.607     10545.62     96.25534     193.1267     386.0612      3.368     9.42     1352.933     68.11731     377.8982        49     2.423     1.737  24.95   3
       119    203.2878    723.6511 307.8316820  +6.6615270     1740.641     2605.319     5336.703     96.87039     193.1267     386.5608      1.763     5.15     1353.245     68.11731      226.261        11     1.267     0.671  38.81   3
       120    200.3843    722.5720 307.8329347  +6.6618773     2288.099     4541.424     8267.929     96.40947     192.9729     386.3303      2.586     6.05     1353.214     68.11731     248.6709        19     1.885     0.738  71.14   3
       121    191.8493    715.8820 307.8367328  +6.6643678      1061.27     2336.733     4521.369     96.87039     193.2804      386.484      4.728     7.54     1352.886     68.11731     167.4182        12     1.824     0.972  33.91   3
       122    561.5245    720.0478 307.6816076  +6.6750562     934.2879     2690.184     5042.719       96.717     193.3572     386.4456      3.815     7.57     1348.449     68.11731     126.7675        11     1.648     1.034  35.04   2
       123    564.7963    718.5746 307.6802840  +6.6757775     1069.643      2829.54     5117.706     96.25534     192.8959     386.2534      3.497     6.93     1348.375     68.11731     134.7178        13     1.774     0.760 -86.79   2
       124    633.0000    708.0450 307.6520326  +6.6824354     717.2554     1614.661     3635.439     95.94633     192.8189     385.8688      3.793     5.30     1346.587     68.11731     114.1531         6     1.147     0.716  20.42   0
       125    119.2047    705.2767 307.8675372  +6.6663253     2595.767     5543.817      6252.88     96.40947     192.6649     386.2534      2.253     8.31      1353.06     68.11731       281.12        28     2.064     0.935  23.96   3
       126    121.4035    701.5352 307.8667385  +6.6679528     3543.509     8587.517      11391.8     95.94633     192.9729     386.1765      2.607     8.18     1352.923     68.11731     421.2347        50     2.530     1.351  27.46   3
       127    461.8953    698.8296 307.7240741  +6.6805244     717.9794     1550.876     3804.297     97.02354     192.9729     386.4071      3.249     5.04     1350.742     68.11731     108.9474         7     1.242     0.579 -64.39   2
       128    864.8380    702.5330 307.5550065  +6.6924816     1324.447     2390.217     3533.355       96.717     193.2036     386.5608      2.292     8.85     1341.376     68.11731     160.9465        17     1.930     1.132 -21.02   3
       129    863.9992    698.7814 307.5554806  +6.6940113     1315.273     3017.333     4440.386     96.40947     192.7419     386.0612      2.821     8.61     1341.156     68.11731     170.9796        19     2.248     0.922  -7.10   2
       130    338.6929    700.3312 307.7756792  +6.6757632     662.0362      745.345     1162.625       96.717      193.434     386.4456      0.902     2.34     1352.077     68.11731     171.1667         5     0.712     0.442 -16.83   0
       131    464.9953    699.2408 307.7227608  +6.6804577     656.0441     1854.173     3407.812     95.94633     192.8959     386.1381      3.520     3.85     1350.671     68.11731     85.97522         5     0.837     0.507 -51.36   0
       132    663.8176    697.8833 307.6394438  +6.6876871      581.612     1161.688     2833.186     96.40947     192.8959     386.3687      3.762     5.49     1344.976     68.11731      83.7959         5     1.159     0.735  78.32   0
       133    928.2325    695.4793 307.5286555  +6.6975284     773.5233     1472.642     2750.838       96.717     193.2804     386.4456      1.993     3.93     1339.832     68.11731     135.9763         5     1.029     0.430 -74.71   2
       134    647.4692    694.4772 307.6464098  +6.6885538     1901.036     3467.447     4897.305     97.02355      193.434     386.4071      2.537     7.75     1345.337     68.11731     239.5774        19     1.925     0.872  39.97   3
       135    652.2011    691.8129 307.6445129  +6.6898186     2019.211     4390.115     6074.227     96.40947     192.8959     386.1765      2.934     9.22     1345.046     68.11731     217.1782        29     2.030     1.169  87.41   3
       136    648.4285    690.7516 307.6461294  +6.6901329     2282.973     4601.952     5539.803     96.40947     193.3572     386.3303      2.057     5.17     1345.132     68.11731     285.9882        22     1.375     1.193 -26.77   3
       137    568.5642    694.7159 307.6794853  +6.6858105     886.9749     1377.053     2788.285     96.87039     193.2804     386.4071      2.085     5.44     1347.275     68.11731     116.3065         9     1.466     0.570  44.37   2
       138    568.5997    690.5887 307.6796055  +6.6875254     1026.696     2131.706     3105.668     96.40947     192.8959      386.215      2.626     5.91     1347.098     68.11731     127.3921        10     1.087     0.904 -29.53   3
       139    573.0233    691.3073 307.6777273  +6.6873753      1069.52     2289.537      2935.71     96.87039     193.0498     386.2534      2.449     5.93     1347.041     68.11731     142.4327        12     1.307     0.878 -57.27   1
       140    369.3366    690.9064 307.7631407  +6.6807062     1525.855     3630.182     6187.432     96.87039     193.3572     386.5224      3.621     9.75     1351.341     68.11731     181.5762        31     2.385     1.112  29.20   3
       141    372.8932    687.5792 307.7617587  +6.6822072     1963.767     3849.731     5234.723       96.717     193.0498      386.215      2.297     5.37     1351.183     68.11731     235.5741        21     1.661     0.902  65.29   3
       142    369.2371    686.3648 307.7633315  +6.6825886     1746.311     2922.852     5123.102     96.56335     193.0498     386.1765      1.979     3.91     1351.075     68.11731     214.9403        14     1.117     0.878  18.05   3
       143    265.8195    685.9382 307.8067047  +6.6792895     2996.502     7768.319     10560.17     96.40947     193.2804     386.2918      2.789     8.46     1351.487     68.11731     311.8389        42     2.413     1.160  24.95   3
       144    268.0751    682.3824 307.8058758  +6.6808417     3925.913     10384.04     14233.56     96.25533     192.9729     386.3303      2.865     8.84     1351.247     68.11731     440.7841        49     2.534     1.252  31.09   3
       145     41.7637    683.5389 307.9007192  +6.6727413     862.7321     2012.167     3165.977     96.87039     193.2804     386.4071      3.429     7.92     1352.694     68.11731     137.5129        10     1.842     0.952 -21.96   2
       146    594.9841    667.2173 307.6693080  +6.6981141     867.6976     3271.778     4771.149     96.56335     192.8959     386.3687      3.477    12.45     1345.448     68.11731     122.1289        26     2.322     1.859   7.67   3
       147    583.4269    673.9838 307.6739323  +6.6949172     2289.287     4992.084       6470.7     96.40947     193.0498     386.3303      2.420     8.96     1346.112     68.11731     250.8126        29     2.247     0.997  36.57   3
       148    586.3176    670.7847 307.6728250  +6.6963424     2767.736     7667.059     11355.82     96.40947     192.8959     386.2918      2.926     9.81     1345.889     68.11731      308.517        47     2.552     1.296  23.08   3
       149    592.6371    679.5343 307.6698889  +6.6929212     2609.334     5383.028     6575.766       96.717     193.2036     386.5224      2.390     8.18      1346.23     68.11731     290.5927        33     2.362     1.050  19.14   3
       150    594.2814    675.4120 307.6693344  +6.6946880     3245.865       9457.8     13090.94     96.40947     192.9729     386.2534      3.023     8.65     1345.975     68.11731     386.7253        53     2.441     1.519  27.53   3
       151    333.2419    679.7718 307.7786394  +6.6841166     738.9093     2046.566     3568.028     96.40947     193.2036     386.2918      2.548     3.74     1351.005     68.11731     107.4735         5     1.197     0.335  12.71   0
       152    195.1936    673.8385 307.8367128  +6.6819372     2068.398     6496.853      10438.4     95.79145     192.8959     386.1381      3.418    10.18     1350.396     68.11731     276.2085        60     2.504     2.109  55.80   2
       153    352.6166    673.6490 307.7707171  +6.6873099     1784.386     3281.672     3951.719     96.25534     193.3572     386.1381      2.033     5.41     1350.436     68.11731     214.3536        20     1.381     1.026  84.39   3
       154    355.9516    675.3423 307.7692633  +6.6867189     1609.617     2795.522     3339.933     96.87039     193.2804     386.5992      1.695     5.95     1350.489     68.11731     228.1272        14     1.558     0.639 -31.56   3
       155    356.6891    670.9746 307.7690974  +6.6885572     2534.165     6008.261     8243.679     97.02354     193.0498     386.2534      2.735     8.83     1350.215     68.11731     306.7373        41     2.431     1.293  28.82   3
       156    617.0144    669.7377 307.6599884  +6.6978059     5359.838     16678.45     28131.34     96.25533     193.1267      386.215      3.588     9.01     1345.085     68.11731     550.1755       100     2.934     2.234 -53.88   2
       157    621.0000    668.3989 307.6583611  +6.6984954     3523.881     5880.186     6770.766     95.94633     192.6649     386.0612      1.813     6.10     1344.781     68.11731     447.5515        17     1.905     0.659  87.57   3
       158    670.9867    669.9136 307.6373525  +6.6995409     723.1199      1622.47     2517.926     96.40947     193.0498     386.3303      2.950     6.11     1343.028     68.11731     89.58679         8     1.238     0.849 -83.69   0
       159     92.8408    663.0837 307.8799785  +6.6829558     1345.264     5582.752     8196.244     96.87039     193.2036     386.3687      3.305    10.72     1351.533     68.11731     223.1212        58     2.479     2.029  53.07   0
       160      4.4675    665.4484 307.9169511  +6.6789950      1296.42     2482.458     3011.369     96.87039     193.2036     346.2826      2.333     5.46     1351.901     68.11731      198.699        14     1.455     0.711  55.60  26
       161    824.9014    658.5155 307.5731885  +6.7094240     943.8921      2121.41     3353.881     96.87039     193.8174     386.5224      2.984     6.45      1339.65     68.11731     124.0157        11     1.344     0.870 -74.82   0
       162    734.1679    647.8224 307.6115828  +6.7108289     891.7172     2269.378     4010.222     96.25533     193.0498      386.215      3.517     4.98     1341.178     68.11731     128.6484         8     1.030     0.680  13.82   2
       163    559.3516    647.2940 307.6849006  +6.7051922     3016.196     6131.192     7641.452       96.717     193.1267     386.5992      2.165     7.99     1345.318     68.11731     347.1997        25     1.961     0.910  28.79   3
       164    561.2790    643.6437 307.6842120  +6.7067726     3311.302     9681.681     13210.31     96.87039     193.2804     386.4456      2.938     9.49     1345.111     68.11731     395.2706        54     2.607     1.420  27.43   3
       165    701.9926    638.5233 307.6253781  +6.7136132     1549.288     3358.681     5168.901     96.40947     192.6649      386.215      2.878     8.02     1340.769     68.11731     177.8025        18     1.862     0.965  75.18   3
       166    698.1294    641.6797 307.6268948  +6.7121732     1378.614     2575.797     3607.607     97.17646     193.5874     386.4071      2.209     7.60     1341.003     68.11731     171.4449        20     1.905     0.848  32.40   3
       167    698.2022    637.3498 307.6270058  +6.7139735     1302.995     2175.654     3226.385     96.10096     192.8189     385.9458      2.055     6.17     1340.666     68.11731     155.6625        11     1.188     0.900  70.89   3
       168   1015.2684    636.1699 307.4940935  +6.7250610     845.0203      1641.83     2770.285     96.56335     193.2804     386.4071      2.619     5.44     1334.423     68.11731     134.3875         8     0.994     0.840  68.76   2
       169    185.9534    638.0132 307.8417646  +6.6965011     2420.273     5862.264     7902.567     96.10096     193.0498     386.1765      2.507     8.13     1348.961     68.11731     274.4917        33     2.220     1.096  27.38   3
       170    188.1879    633.9720 307.8409606  +6.6982543     3167.024     8590.481     11241.99     96.25533     193.0498     386.3303      2.763     8.98     1348.766     68.11731     401.6656        47     2.471     1.297  27.08   3
       171    436.5555    627.1985 307.7370468  +6.7094163     2055.075     4739.774     6512.239     96.10096     192.8189     385.9458      2.578     7.65      1345.98     68.11731     241.9418        30     2.180     1.004  28.20   3
       172    440.3566    623.6750 307.7355685  +6.7110069     2424.051     4429.964     6015.689       96.717     193.3572      386.484      2.217     6.08     1345.712     68.11731      254.391        26     1.705     1.079  70.64   3
       173    145.6278    620.1683 307.8592588  +6.7025527     1927.102     9728.679     13950.11     96.25533     192.9729      386.215      3.316     9.51     1348.311     68.11731     391.0541        76     2.385     2.359 -23.30   0
       174    747.6902    623.3384 307.6067129  +6.7214479      730.512     1476.817     2624.254     96.87039      193.434     386.5224      3.120     3.96     1339.229     68.11731     124.3876         5     0.896     0.500 -85.96   2
       175    288.9604    616.7571 307.7992745  +6.7087925     1191.197      2977.59     6711.866     96.56335     193.2804     386.2918      4.946    10.55     1346.954     68.11731     153.2616        24     2.328     1.334 -48.18   2
       176    790.5775    612.2883 307.5890905  +6.7274710     1206.356     2746.368     4124.893     96.87039     193.0498     386.2918      3.074    11.99     1338.413     68.11731       144.12        23     2.538     1.576 -47.31   2
       177    787.3225    610.3221 307.5905196  +6.7281786      782.119     1077.019     2027.425     97.17646     193.5874     386.5992      1.321     3.39     1338.327     68.11731     125.2577         5     0.745     0.487 -25.87   3
       178    254.1668    609.0069 307.8141176  +6.7108403     824.6188     2542.294     4081.285     96.10096     193.1267      386.215      3.270     7.40     1347.079     68.11731     122.8002        14     2.187     0.702  38.44   2
       179   1023.6723    608.7825 307.4914617  +6.7367136      979.109     1574.434     1183.126      83.5375     153.2625     290.6112      1.722     5.48     1332.982     68.11731     167.1412        12     1.810     0.468  89.04  24
       180    733.4198    610.5751 307.6131138  +6.7262700     1715.402     3378.367     4439.623     96.40947     193.0498     386.3687      2.165     6.50     1338.479     68.11731     174.0009        19     1.628     0.874  25.85   3
       181    735.7404    607.0441 307.6122561  +6.7278138     1824.516      4974.64     6706.637       96.717     193.2036     386.5992      2.867     9.95     1338.092     68.11731     206.2507        34     2.192     1.260  31.95   2
       182    346.9521    606.5801 307.7752933  +6.7149676     930.2366     2242.384     3447.289     96.25533     193.2804      386.215      2.615     7.21     1344.966     68.11731     127.2809        13     1.847     0.788  32.88   0
       183    436.5059    622.4869 307.7372220  +6.7113709      2215.61     3456.023     4964.936     96.87039     193.8174     386.5224      1.798     4.70     1345.571     68.11731     231.2686        15     1.092     0.940 -45.49   3
       184    350.0042    602.8242 307.7741368  +6.7166297     1179.639     3049.612     4628.174     96.25534     192.9729     386.2534      3.156     9.28     1344.501     68.11731     160.0211        21     2.362     1.017  28.74   0
       185    836.7475    598.0215 307.5701961  +6.7349390     1459.539     4886.655     8721.369     96.25533     193.2804      386.215      3.806    13.88     1335.958     68.11731     213.3149        57     3.064     1.748 -89.25   2
       186    468.5762    597.8151 307.7245837  +6.7226917     5215.337     11102.58     14199.52     96.56335     193.0498     386.3687      2.369     7.95     1343.245     68.11731     602.4442        41     2.456     1.065  21.95   3
       187    470.6472    593.7459 307.7238487  +6.7244508     5862.324     17221.07     21933.75     96.87039     193.2804      386.484      2.887     9.29     1342.782     68.11731     631.5786        63     2.556     1.550  18.96   3
       188     18.8408    598.9548 307.9131153  +6.7070879     669.4388     1317.844     2025.448       96.717     193.2804     386.2534      2.675     4.04     1348.599     68.11731     128.7528         5     1.151     0.481  21.57   0
       189    763.3599    589.7803 307.6012388  +6.7359065     11497.66     23432.88     26929.36     96.40947     193.0498     386.1381      2.207     7.38     1336.359     68.11731     1275.131        47     2.346     1.049  27.90   3
       190    765.6843    586.1174 307.6003838  +6.7375052     13474.04     36507.57     47919.76     96.56335     193.5874     386.5224      2.815     8.19     1335.955     68.11731     1359.971        79     2.712     1.484  24.65   3
       191    166.3357    570.2879 307.8522170  +6.7239608     3446.135     8830.147     11210.98     96.87039     193.5107     386.4456      2.666     8.20     1344.193     68.11731     359.6036        42     2.283     1.266  27.35   3
       192    168.3736    566.2374 307.8514957  +6.7257112     4432.191     11870.93     16118.94     96.40947     193.0498      386.215      2.806     8.56     1343.822     68.11731     549.4291        57     2.566     1.381  27.67   3
       193    934.3328    566.1556 307.5303147  +6.7514315     13235.16     48604.06      62035.2     96.87039     193.2036      386.484      2.965     8.39     1331.267     68.11731     1684.435       100     2.290     2.187 -57.93   0
       194    771.5582    567.4571 307.5985303  +6.7454500     1108.143     2732.176     4150.422       96.717     193.2804      386.484      2.914     6.69     1334.032     68.11731     138.2954        15     1.575     0.798 -10.99   2
       195    219.0881    566.2625 307.8302305  +6.7274079     2013.752     6477.946     10881.92       96.717     193.5107      386.484      3.740    10.26     1343.428     68.11731     269.1652        61     2.595     1.987  57.79   2
       196    805.8035    566.8391 307.5841902  +6.7468521     2261.879     4593.471     6348.795     95.79145     192.9729     386.0996      2.445     6.58     1333.955     68.11731     275.4149        22     1.780     0.881  55.82   3
       197    809.2650    563.9897 307.5828317  +6.7481510     2118.882     4933.416     6408.925     96.25533     193.0498     386.2918      2.520     7.91     1333.621     68.11731      262.988        30     2.136     1.200  76.07   3
       198    806.6665    563.3032 307.5839438  +6.7483492     2412.353     4076.765     5329.266     96.87039     193.3572      386.484      1.767     4.24      1333.55     68.11731     281.7395        11     1.102     0.766  51.73   3
       199    667.7653    567.1959 307.6420627  +6.7420840     553.0391     1271.022     2531.742     95.94633     193.1267     386.1765      1.859     3.46      1336.19     68.11731     83.66052         5     0.987     0.350  45.31   0
       200    957.5615    560.3787 307.5207622  +6.7546060      1197.33     3710.469      4389.54     96.40947     192.9729     386.1765      2.786     9.17     1330.167     68.11731     214.6692        28     1.979     1.698 -87.02   0
       201    243.0100    559.5135 307.8204218  +6.7310151     4060.361      8494.88     10713.69     96.40947     192.8959     386.2534      2.391     8.82     1342.609     68.11731     457.5841        32     2.102     1.032  14.38   3
       202    244.2221    554.9852 307.8200624  +6.7329361     4808.823      13253.8      19286.1     96.56335     193.0498     386.3687      3.075    10.55     1342.122     68.11731      596.481        65     2.775     1.704  14.47   3
       203    662.0649    555.0693 307.6448497  +6.7469284     1620.347     2916.255     4270.904     96.87039     193.3572      386.484      2.189     6.47     1335.372     68.11731     207.3182        20     1.621     0.875  35.60   3
       204    664.3506    551.3212 307.6440138  +6.7485612     1583.473     4873.104     7436.113     96.87039     193.3572     386.4456      3.312    11.44     1335.063     68.11731     175.2384        41     2.370     1.537  34.72   2
       205   1008.0167    553.9987 307.4998118  +6.7589394     1349.132     2447.036     3251.804     96.40947     192.7419     386.1381      2.223     7.01     1328.572     68.11731     199.9055        15     1.361     1.028   6.08   3
       206   1007.6234    550.1981 307.5001006  +6.7605044     1463.953     2836.752     3572.473     96.40947     192.8959     386.1765      2.100     8.85     1328.219     68.11731     220.7502        21     2.117     1.034   2.95   2
       207    837.6802    542.3438 307.5716227  +6.7580892     558.8385     1534.817     2629.218     97.02355     193.2804      386.484      2.677     3.06     1331.384     68.11731     96.14294         4     0.863     0.317  31.20   2
       208   1018.6133    531.3464 307.4961061  +6.7686990     1443.624     4274.319     4806.396     96.10096     193.2036     370.7585      2.621     8.16     1326.255     68.11731     222.0604        33     1.784     1.607 -78.40  16
       209    717.0328    528.5991 307.6226650  +6.7597601     1007.834     2976.737     4637.064     95.94633     193.0498     386.1381      2.929     8.93     1331.594     68.11731     137.7771        19     2.310     0.964 -76.88   2
       210    721.6144    527.9962 307.6207634  +6.7601639     1142.953     2443.104     4110.169     96.40947     192.8959     386.2918      2.978     5.71     1331.321     68.11731     130.9772        13     1.150     0.886  79.11   3
       211    573.5352    527.6888 307.6828696  +6.7553306     2969.898     7031.269     8333.024     96.87039     193.5107     386.4456      2.424     8.15     1333.984     68.11731     372.4752        35     2.258     1.137  25.68   3
       212    575.5054    523.6807 307.6821746  +6.7570609     3040.158      9097.29     11644.81     96.56335     193.5874     386.5608      2.861     9.99     1333.711     68.11731     330.1619        52     2.513     1.390  25.69   3
       213    889.6522    526.4175 307.5503479  +6.7664394     1444.118     4380.604      6939.17     96.25534     193.3572     386.1381      3.568    12.00     1328.402     68.11731     166.5701        37     2.215     1.809  86.16   2
       214     97.3123    520.5023 307.8827965  +6.7423070     1235.093     3700.211     5930.411     96.87039     193.8174      386.484      3.464    12.54     1343.274     68.11731     163.1648        35     2.170     2.018  39.64   2
       215    227.9461    518.0148 307.8281021  +6.7477390     1725.611     3983.123     5999.087     96.10096     193.2036     386.0996      2.762     7.56     1338.163     68.11731     206.8167        30     1.936     1.228  60.40   3
       216    224.0244    521.8617 307.8296201  +6.7460097     1306.899     2788.356     3167.063     96.40947     193.2036     386.3303      2.459     7.89     1338.673     68.11731     151.7355        19     1.848     0.942  19.72   3
       217    223.1989    516.5282 307.8301416  +6.7481965     1305.799     2186.391     2802.412     96.10096     192.7419     386.2534      1.961     6.06     1338.145     68.11731     173.1382        13     1.411     0.731 -80.29   3
       218     59.8622    517.0352 307.8986136  +6.7424843     879.1589     2107.625     3922.314       96.717     193.2804     386.4071      2.818     5.65     1343.262     68.11731     154.3527        10     1.816     0.496 -75.69   0
       219     53.9133    517.9186 307.9010789  +6.7419169     590.6053      1488.79     3106.271     96.56335     193.5874     386.5992      4.014     6.84      1343.33     68.11731     96.83606         9     1.737     0.755  41.32   0
       220    263.0487    512.5197 307.8135635  +6.7512017     1340.919     3117.872      5736.25     96.87039     193.3572     386.4456      3.395     8.79     1337.474     68.11731     173.8719        21     2.062     1.075  40.30   2
       221    285.5995    513.8104 307.8040651  +6.7514243     740.8528     1377.548     2819.081     96.40947     192.8959      386.215      2.105     3.51     1337.508     68.11731     106.9072         5     0.825     0.431  70.71   0
       222    261.7732    516.7493 307.8139594  +6.7494026     1144.598     2570.964     4284.493     96.40947      193.434     386.3687      2.823     7.22     1337.924     68.11731     151.1934        14     1.593     0.918 -22.86   2
       223    282.0894    513.0414 307.8055622  +6.7516255     768.1131     1714.007     2890.978     96.87039     193.2036      386.484      3.069     2.96     1337.412     68.11731     133.8562         6     0.754     0.678  83.93   1
       224    603.1974    507.1004 307.6711050  +6.7648738     701.2097     1447.446     2655.489     96.56335     192.9729     386.0612      3.004     5.21     1332.182     68.11731     102.2849         5     1.204     0.636  69.14   0
       225    564.6105    506.1305 307.6873180  +6.7639829      4563.93     10353.42      12575.3     96.25533     193.0498     386.2534      2.387     7.37     1332.758     68.11731     547.9678        37     2.112     1.138  31.71   3
       226    567.0663    502.0295 307.6864225  +6.7657680     4998.225     14982.67     24530.15     96.56335     193.2804     386.3687      3.506     9.60     1332.482     68.11731     538.0398        91     3.229     2.030  53.95   3
       227    517.6198    504.8135 307.7070664  +6.7629536     5344.866     11703.52     13535.79     96.56335     192.9729     386.3303      2.358     7.60     1333.348     68.11731     623.9452        43     2.325     1.137  25.22   3
       228    519.8213    500.5403 307.7062833  +6.7648018      5465.25     16272.02     22129.95     96.40947     193.2036     386.3303      2.935    10.65     1333.068     68.11731     561.3434        69     2.774     1.521  27.45   3
       229    442.9960    500.9835 307.7384848  +6.7620393     2255.217     4981.217     6668.651     96.40947     192.8189     386.2534      2.597    10.21     1334.102     68.11731     267.0238        35     2.128     1.364  52.74   3
       230    447.5956    497.6055 307.7366668  +6.7635964     2290.289     4924.789     7119.279     96.10096     192.8959     386.2918      2.751     7.49     1333.784     68.11731     285.0077        31     2.014     1.143  82.32   3
       231    444.0301    495.6902 307.7382248  +6.7642719     2051.383     3798.858     5237.021     97.02354     192.9729     386.4071      2.069     6.28     1333.704     68.11731     253.5189        17     1.595     0.828  23.33   3
       232    374.7823    490.7722 307.7674245  +6.7639881     821.5218     2115.423      3154.05     96.40947     193.0498     386.3303      2.475     6.18      1333.93     68.11731     105.8408         8     1.799     0.597  -7.42   0
       233    348.7073    482.7069 307.7786234  +6.7664606     2815.197     7240.383     9565.503     96.87039      193.894     386.4071      2.697    10.28     1333.346     68.11731     323.0356        40     2.243     1.313  33.22   3
       234    351.7725    479.1995 307.7774532  +6.7680200     2818.176     8111.545     10765.02     96.40947     192.8959      386.215      2.914    10.97      1332.98     68.11731     310.3685        49     2.609     1.357  33.01   3
       235    654.4103    480.2879 307.6505061  +6.7777231     625.5762     1259.865      2361.22     96.40947     192.8959     386.2534      2.417     4.50     1329.863     68.11731     93.62903         5     1.206     0.478 -84.03   0
       236    809.1921    475.7338 307.5857447  +6.7847951     5634.234     11720.42     13456.76     96.25533     192.9729     386.2534      2.198     6.58     1325.167     68.11731     610.6279        39     2.013     1.129  37.30   3
       237    812.7543    472.7573 307.5843480  +6.7861502     5083.831     10275.41     11745.56     96.87039     193.2804     386.3687      2.151     5.34     1324.754     68.11731     539.3751        34     1.826     1.191  76.78   3
       238    809.1931    471.3885 307.5858862  +6.7865994     5247.389     8911.236     9521.885     96.40947     193.0498     386.3303      1.803     4.32     1324.781     68.11731     660.5681        21     1.245     1.059  33.60   3
       239    959.6036    463.6009 307.5230615  +6.7948596     1923.052     7397.164     9599.545     96.10096     192.7419     386.1381      3.035     9.51     1321.037     68.11731     261.9928        57     2.202     1.920 -76.68   0
       240   1000.5554    462.9814 307.5059071  +6.7964839     1039.865     3324.907     3841.003     96.40947     193.1267     386.1381      2.756    10.16     1320.108     68.11731     162.8468        22     2.074     1.388  82.48   2
       241    639.1537    463.3253 307.6574592  +6.7842552     691.8887      1801.29     2606.321       96.717     193.3572     386.4456      2.542     6.18     1327.961     68.11731     123.0121         7     1.589     0.675  36.69   0
       242    370.8901    458.8698 307.7701036  +6.7771037     644.8682     1449.255     3446.304     96.87039     193.5874     386.4456      3.767     4.89     1331.304     68.11731     99.52332         7     1.273     0.533  73.07   0
       243    795.5336    454.8126 307.5921561  +6.7930254     1417.169     2811.819      4162.73     96.25534     193.0498     386.3303      2.189     6.86     1323.976     68.11731     182.3398        18     1.527     0.932  51.83   3
       244    792.0853    453.5981 307.5936419  +6.7934143     1194.399     2295.914     3567.347     96.10096     192.8189     386.0996      2.472     6.33     1324.002     68.11731     153.0286        12     1.310     0.880  47.00   3
       245    791.9282    457.8501 307.5935689  +6.7916435     1341.748     3085.563     3597.366     96.87039     193.2804      386.484      2.301     7.76     1324.325     68.11731     144.5768        21     1.780     0.947  23.83   3
       246    741.7611    452.0861 307.6147962  +6.7923582       1234.4     2886.071     5165.146     96.87039     193.2804     386.4456      3.542     7.32     1325.175     68.11731     176.9576        18     1.817     0.986  40.61   2
       247    741.8310    447.3042 307.6149232  +6.7943462     1087.354     2432.049     4646.076     97.02354     193.0498     386.5224      3.705     4.81     1324.773     68.11731     158.6956        13     1.320     0.803  27.20   2
       248     99.0814    441.1707 307.8846661  +6.7753055     5800.102     29739.85        48126       96.717     193.1267     386.4456      3.561    10.06     1339.006     68.11731     1004.181       114     2.691     2.525  78.29   0
       249    679.0269    435.9377 307.6416336  +6.7969630     740.5344     1532.712     2698.032     96.40947     193.3572     386.3687      2.363     5.78     1324.632     68.11731     110.3009         9     1.576     0.596  32.87   0
       250   1023.5523    432.6801 307.4972499  +6.8098335     783.9586     1689.131     2087.062     85.98985     155.8562     293.2559      2.251     6.21     1316.503     68.11731      128.599        11     1.879     0.576  82.23  24
       251    648.7498    430.0836 307.6545226  +6.7983796     993.0126     2461.851     4737.272     96.87039     193.2804     386.5608      4.209    10.72     1324.112     68.11731     154.0472        17     2.691     1.190  85.43   2
       252    653.0226    428.2454 307.6527909  +6.7992860     1132.682      2520.66     4814.078     96.40947     193.2804     386.2534      3.497     6.74     1323.863     68.11731      161.394        17     1.804     0.931 -88.16   2
       253    734.2536    423.9322 307.6188650  +6.8037972     1063.133     2178.425     4175.539     96.87039     193.2036     386.3303      3.312     6.86     1323.068     68.11731     141.4154        13     1.617     0.817  38.05   2
       254    735.1471    419.1626 307.6186463  +6.8058076       1140.7     2987.166     4453.227       96.717     193.2804     386.4456      3.055     7.55     1322.657     68.11731     144.1635        15     1.509     1.057 -19.68   2
       255    311.5425    409.2385 307.7966209  +6.7957164     4584.917     11327.09     13895.57     96.87039     193.3572     386.4456      2.565     8.24     1328.479     68.11731     477.7917        40     2.394     1.056  23.18   3
       256    313.8814    405.2745 307.7957703  +6.7974409      4855.16     14908.07      21276.4     97.17646     193.5874     386.5224      3.035    10.92     1328.175     68.11731     614.1536        66     2.793     1.523  25.30   3
       257    403.3044    402.0227 307.7583759  +6.8017966      5484.13     12525.56      16127.3     96.87039     193.0498     386.2534      2.535    10.23     1326.055     68.11731     563.3212        49     2.525     1.313  54.05   3
       258    408.0007    398.7656 307.7565133  +6.8033068     5911.768     14990.09      22639.9     95.79145     193.0498     386.1765      3.086    13.25     1325.693     68.11731     658.8507        63     3.014     1.621  38.38   3
       259     80.0072    402.4648 307.8939390  +6.7907336     728.9439     1934.131     3295.442     96.25533     192.9729     386.2534      3.032     6.25     1337.849     68.11731     97.16528         6     1.387     0.790  25.19   0
       260   1001.6399    397.3199 307.5075925  +6.8237850     772.7604     1778.622     2702.816     96.87039     193.3572     386.3687      3.446     4.27      1313.72     68.11731     133.5767         7     0.973     0.538  59.22   2
       261    135.9344    388.8367 307.8709346  +6.7982768     12057.89     65027.14     106809.6       96.717     193.2804     386.5224      3.623    10.14     1334.617     68.11731     2194.043       146     2.765     2.658  81.71   0
       262     15.9808    388.0856 307.9212619  +6.7945448     4682.253     24461.81     38566.66     96.40947     192.9729     386.3687      3.516    10.19     1340.206     68.11731     855.4541       107     2.618     2.488  84.60  16
       263    627.2851    389.9288 307.6648388  +6.8143336      943.784     2578.572     4851.576     97.02354     193.5874      386.484      3.582     9.69      1320.03     68.11731     137.8551        17     2.348     1.117  10.26   0
       264    775.5960    388.5802 307.6026818  +6.8198600     734.9765     1834.705      3423.87     96.40947     192.8189      386.215      3.418     6.34     1318.798     68.11731     110.4108         8     1.261     0.895  33.82   0
       265    779.4680    385.9146 307.6011451  +6.8210963     811.0448     1787.487     3151.277     97.17646     193.5874      386.484      3.019     6.24     1318.471     68.11731     101.5786         8     1.495     0.733  37.08   0
       266    442.7284    382.8535 307.7424713  +6.8110801     990.3562     2845.669     5713.752       96.717     193.2036     386.3687      3.939    10.58     1323.199     68.11731     160.2344        21     2.339     1.334  27.68   2
       267    846.4879    379.6374 307.5732416  +6.8259444     2312.281     4246.436     5639.646     96.87039     193.1267     386.4456      2.147     6.28     1317.244     68.11731     258.5399        24     1.876     0.929  34.04   3
       268    848.4651    376.1823 307.5725252  +6.8274452     2047.082     5665.348     7625.225     96.40947     193.2804     386.2918      2.841     8.99      1316.95     68.11731     226.9885        39     2.137     1.374  25.73   3
       269    506.3337    376.4354 307.7160066  +6.8158802     1663.675     4018.878     5827.777       96.717     193.2804     386.5224      2.792     8.84      1320.43     68.11731     163.9956        28     1.999     1.091  30.73   3
       270    507.3843    371.6057 307.7157243  +6.8179209     1514.967     3528.741      5443.51     96.40947     192.8959     386.2534      3.045     8.58      1320.01     68.11731     175.6023        26     2.343     0.878  14.28   2
       271    104.6062    367.7427 307.8847666  +6.8059795     1219.085     2535.706     3668.694     96.25534     193.1267     386.0996      2.642     7.19     1335.755     68.11731     148.0487        13     1.718     0.842 -66.14   3
       272    106.7394    373.4262 307.8836849  +6.8036915     1364.924     3030.109     4523.151     96.40947     193.2804     386.2918      2.743     7.66     1335.795     68.11731      183.457        18     1.885     0.871  12.93   3
       273    108.7950    369.0370 307.8829674  +6.8055833     1654.908     3648.604     5844.597     95.79145     192.9729      386.215      2.565     7.43     1335.563     68.11731     216.0786        21     1.719     0.900  63.94   3
       274    752.4308    365.7094 307.6131450  +6.8285814       2245.8     4423.552     5423.245     97.02355     193.0498     386.4071      2.180     7.50     1316.787     68.11731     221.6241        24     1.971     0.924  38.00   3
       275    754.7719    361.9774 307.6122851  +6.8302094     2950.918     8779.598     14593.96     96.25533     193.0498     386.2534      3.478     8.63     1316.356     68.11731     355.4052        68     2.483     2.053  58.13   3
       276    881.1309    365.7224 307.5591662  +6.8328804     899.5851     2136.012     3924.897     97.02354     193.5107     386.4071      2.372     6.29     1315.663     68.11731     117.3986        10     1.962     0.567   6.53   0
       277    511.3034    358.5442 307.7145088  +6.8234758     560.6816     1647.552     2640.839       96.717     193.2036      386.676      2.517     5.24     1318.623     68.11731     92.13867         7     1.994     0.389 -51.98   0
       278    566.8175    343.8997 307.6917060  +6.8314188     587.7181     1168.973     2266.371     96.87039     193.1267     386.1765      3.562     5.54     1316.012     68.11731     96.95508         5     1.168     0.742  80.46   0
       279     90.0041    341.0000 307.8917707  +6.8165910     1942.395     4785.028      5924.72     95.94633     192.6649     386.0996      2.607    10.51      1336.17     68.11731     242.1053        34     2.549     1.208  39.31   3
       280     92.8264    337.1669 307.8907134  +6.8182777     2303.068     4747.068     6666.242     96.25533     192.9729     386.1765      2.553    12.50     1335.987     68.11731     286.2535        39     3.021     1.439  34.11   3
       281     74.5613    334.2120 307.8984705  +6.8188888     844.1619     1698.926     2933.824     96.25534     193.0498     386.1381      2.615     5.42      1337.15     68.11731     160.5096        10     1.335     0.882  66.05   0
       282    620.1288    333.3608 307.6696920  +6.8375822     673.2773     1494.659     2927.252       96.717     193.2804     386.5224      2.162     5.43     1314.369     68.11731     111.3264         8     1.848     0.451   5.32   2
       283    619.4950    330.6011 307.6700481  +6.8387068     753.7958      1838.11     3532.482     96.25534     192.8189     385.9842      2.637     5.47     1314.174     68.11731     125.5033         7     1.617     0.521  14.51   3
       284    927.8570    329.0857 307.5407639  +6.8496544     837.1613     1906.201     3182.349     96.87039     193.2804     386.6376      2.104     7.09     1310.672     68.11731     126.3342        10     1.997     0.706  33.06   2
       285    927.6179    324.9720 307.5409984  +6.8513546     801.4828     1815.158     2696.449     96.40947     193.0498     386.3303      2.740     5.26     1310.282     68.11731     121.9609         8     1.185     0.680 -85.42   3
       286    898.2001    329.5278 307.5531885  +6.8484800     664.7842      1024.07     2122.989     95.94633     192.6649     386.2534      1.297     2.92     1311.561     68.11731     134.3164         5     0.732     0.474 -16.29   0
       287    932.1529    325.9558 307.5390642  +6.8510976     602.4289     1365.188       1833.6     96.87039     193.2036     386.4071      1.312     3.48      1310.27     68.11731     93.06372         5     1.642     0.213  62.82   0
       288    433.8416    325.1580 307.7480909  +6.8347379     520.7791     1147.589     2808.445     96.56335     193.2804     386.2918      2.018     3.92     1318.213     68.11731     97.74756         6     1.672     0.263  38.13   0
       289    911.1152    322.3960 307.5480042  +6.8518729     942.4946     2623.669     4092.139     96.25533     192.8189     386.0996      3.187     7.01     1310.374     68.11731       126.47        11     1.474     0.935  54.36   0
       290    842.8254    318.1773 307.5767848  +6.8513421     947.4036     3405.967     5461.501     96.25533     193.1267     386.3687      3.845    12.92      1311.23     68.11731     165.3788        29     2.662     1.746 -21.95   3
       291    851.6247    314.6831 307.5732082  +6.8530872     3424.189     9667.431     14412.43       96.717     192.9729     386.4071      3.175    10.30     1310.733     68.11731     409.5919        57     2.605     1.845 -86.78   3
       292    855.4195    314.2471 307.5716308  +6.8533951     3048.736     6142.475     7318.962     96.40947     193.2804      386.215      2.154     5.13     1310.562     68.11731     324.6777        24     1.637     0.997 -80.51   3
       293    793.5318    315.1443 307.5975591  +6.8509528     2636.865     7929.815        10901     97.02354     193.1267     386.3687      3.039    10.18     1311.571     68.11731     334.2509        59     2.527     1.883  65.03   3
       294    797.2162    312.8279 307.5960894  +6.8520379     2241.038     4619.812      5324.44     96.40947     192.9729     386.3303      2.230     6.45      1311.36     68.11731     245.1921        22     1.820     0.839  42.56   3
       295    170.1678    317.9450 307.8589108  +6.8288647     1101.564     2593.681     4333.167       96.717     193.2804     386.3687      2.644     5.39      1330.99     68.11731     140.1743        11     1.121     0.732 -16.29   2
       296    171.8470    313.7177 307.8583457  +6.8306765     1134.984     2553.072     4870.936     96.87039     193.2804     386.4456      3.756     7.03     1330.746     68.11731     151.7234        13     1.549     0.895  80.16   2
       297    156.9836    313.5917 307.8645833  +6.8302281     813.9807     2115.907     2872.999     96.40947     192.9729     386.2534      2.854     5.98     1331.798     68.11731      109.838        10     1.818     0.553 -41.77   2
       298    188.9792    305.0017 307.8514474  +6.8348724     1713.477     3740.104     4261.816     96.40947     192.8959     386.0996      2.270     7.42     1329.175     68.11731     204.1219        27     1.563     1.355 -70.34   3
       299    190.0185    311.2079 307.8508074  +6.8323305     2128.584     4792.925     4710.328     96.40947     192.8959     386.2534      2.274     8.61     1329.335     68.11731     246.0804        25     2.029     1.020  26.20   3
       300    193.2548    307.4340 307.8495742  +6.8340065     2388.759       4796.4     5395.551       96.717     193.2804     386.4456      2.102     6.53     1328.945     68.11731      260.184        34     1.988     1.242  82.25   3
       301    206.2017    306.9949 307.8441589  +6.8346247     8353.187     18524.94     22304.22     96.10096     192.8189     386.1765      2.409     8.98     1327.946     68.11731     927.5354        46     2.493     1.128  29.24   3
       302    209.1116    302.9906 307.8430702  +6.8363853     9561.795     24291.81     35817.61     96.40947     192.8959     386.1765      3.025    11.91       1327.5     68.11731     1109.358        80     3.143     1.632  32.90   3
       303    154.6328    308.7301 307.8657292  +6.8321675     865.5323     1977.266      3009.62       96.717     193.2804      386.484      2.715     6.89     1331.845     68.11731     124.6753        12     1.588     0.838 -20.49   0
       304    174.3999    301.6289 307.8576728  +6.8357818     1012.248     2686.279     4484.325     95.94633     193.0498      386.215      3.475    10.07     1330.266     68.11731     156.4904        20     2.494     1.134  40.15   2
       305    178.2742    298.3461 307.8561559  +6.8372753     1294.635     3056.696      4344.58       96.717     193.2804     386.4456      2.622     7.11     1329.819     68.11731     143.0127        19     1.603     0.884  89.38   2
       306    892.6763    292.8767 307.5567016  +6.8635141     1310.126     3158.807     4813.787     97.17646     193.5874     386.5608      3.239     8.29     1307.474     68.11731     151.4155        24     1.990     0.965 -79.73   3
       307    888.6863    293.6140 307.5583511  +6.8630746     1150.597     2344.866       3937.3     96.40947     193.0498     386.3303      2.868     8.58     1307.626     68.11731     154.4423        22     2.321     0.885  85.04   2
       308    321.7291    291.8176 307.7962058  +6.8448137     1985.011     8179.351     14882.71     96.25533     193.1267     386.3687      3.929    12.01     1321.123     68.11731     286.5529        81     2.736     2.539  50.59   2
       309    317.3469    293.8465 307.7979770  +6.8438239     1599.652     2341.285      3189.36     96.87039     193.2804      386.484      1.621     5.16     1321.318     68.11731     246.8053         9     1.377     0.546  46.34   3
       310     32.4370    281.4143 307.9178758  +6.8393900     52717.98     286316.7     460875.7     96.40947     193.0498     386.1765      3.584    10.34     1340.847     68.11731     10806.11       202     2.828     2.663  89.43   0
       311    811.5399    283.0710 307.5910539  +6.8648730     715.0195     1864.936     2964.016     97.02354     193.2804     386.5224      3.087     6.32     1308.304     68.11731     115.5953         7     1.664     0.675 -11.49   0
       312     70.5271    281.6479 307.9018937  +6.8405776     2231.988     4962.103     6329.247     96.87039     193.3572      386.484      2.412     9.14     1337.849     68.11731     247.9026        30     2.182     1.068  17.84   3
       313     72.3807    277.1989 307.9012628  +6.8424874     2529.514     6684.397     9330.896     96.40947     192.7419     386.0996      2.786     9.68     1337.841     68.11731     288.9329        50     2.553     1.476  31.51   3
       314   1012.0444    270.2990 307.5073693  +6.8768758     953.8073      2994.46     3131.345     96.87039     193.2036     386.7144      2.832     9.49     1304.799     68.11731      130.486        20     1.979     1.270  -7.97  18
       315    827.1757    266.0291 307.5850523  +6.8724722     849.7498     1941.244     3265.995     96.25534     193.1267      386.215      2.590     5.59     1306.943     68.11731     106.4966         9     1.156     0.763 -83.09   2
       316    823.3929    269.7324 307.5865180  +6.8708080     957.5223     2330.222     4145.121     96.25534     192.9729     386.2534      2.847     6.33     1307.275     68.11731     152.2979        13     1.577     0.714  20.79   2
       317    354.8143    268.3679 307.7830997  +6.8556628     3744.133     8017.402     9420.936     96.40947     192.9729     386.3687      2.366     9.81     1318.569     68.11731     414.8754        36     2.300     1.168  29.77   3
       318    358.0312    264.2711 307.7818850  +6.8574719     4242.499     10305.55     16643.98       96.717     193.2804     386.3687      3.149    13.72     1318.028     68.11731     451.8512        60     3.443     1.522  24.87   3
       319     57.2780    269.9253 307.9078363  +6.8449981     2659.949     2535.167     2136.127     97.17646     193.5874     386.5224      0.534     0.98      1339.06     68.11731     1612.142         5     0.515     0.257  -7.11   0
       320    757.0401    264.0605 307.6145347  +6.8709431     2020.522     4213.256      5726.64     96.87039     193.2804     386.5224      2.326     7.96     1307.208     68.11731     222.1372        30     1.997     1.140  29.44   3
       321    761.4011    260.7386 307.6128141  +6.8724684     1629.727     3433.818     5145.345     96.10096     193.0498     386.0612      2.951     6.76     1307.009     68.11731     232.3551        21     1.899     1.007  63.18   3
       322    757.3762    258.7393 307.6145678  +6.8731639     1747.496     3772.704     5514.366     96.40947     193.2036     386.3303      2.616     6.58      1306.82     68.11731     224.8488        23     1.574     1.168   5.02   3
       323    304.7276    251.5855 307.8046581  +6.8609469     1335.944     3427.235     4766.463     96.25534     193.1267     386.2918      2.903    11.16     1320.132     68.11731     162.9703        29     2.617     1.327  55.56   3
       324    308.3896    248.8958 307.8032106  +6.8621868     1486.832     4034.018     6639.547     96.56335     192.8189     386.1765      3.150     9.52     1319.862     68.11731     199.4103        29     2.189     1.154  55.94   3
       325    839.4836    247.1175 307.5805074  +6.8807365     1038.981     2563.225     3921.288     96.56335     193.5874     386.5608      3.263     8.22     1305.554     68.11731     128.8232        16     1.894     0.998  41.46   2
       326    835.9946    250.2990 307.5818670  +6.8792988     1130.403     2252.536     3612.574     96.56335     192.8189     386.0227      2.754     7.52     1305.802     68.11731     159.6688        14     1.759     0.901  53.37   2
       327     26.4101    238.5961 307.9218145  +6.8569649     2230.399     7577.281     9962.574     96.25534     192.8959     386.2918      2.998     9.00      1341.59     68.11731     331.9685        58     2.480     1.754 -41.90   2
       328     23.4139    234.8579 307.9231944  +6.8584159     1928.643     4088.277     5105.959     96.10096     193.1267     386.0996      2.281     7.04     1341.825     68.11731     255.3391        21     1.826     0.992 -27.88   3
       329    283.6870    229.8735 307.8141965  +6.8692541     8667.502     19961.22      27414.7     97.02354     193.6641     386.4456      2.721    13.23     1321.177     68.11731     961.6431        65     3.103     1.569  51.00   3
       330    287.5140    226.4967 307.8127023  +6.8707850     9209.443     21665.87     31411.71     96.87039     193.7408     386.5224      2.937    12.52     1320.826     68.11731     1005.983        59     3.181     1.372  42.91   3
       331    309.3268    224.6700 307.8036135  +6.8722772     1028.255     3126.042     5630.869     97.02355      193.434      386.484      3.716    10.19     1318.988     68.11731     189.0028        23     2.220     1.304 -52.49   2
       332    310.9927    228.7528 307.8027806  +6.8706380     1220.764     3408.961     5287.915     96.25533     193.0498     385.9842      3.099     7.24     1318.958     68.11731     160.3772        14     1.507     0.974   6.31   3
       333    427.9319    220.1779 307.7540140  +6.8781290     922.4892     2170.752     4052.644     96.40947     193.2036     386.4071      2.455     9.07     1310.257     68.11731     126.5188        20     2.424     0.947   0.02   2
       334    426.4780    223.8898 307.7545020  +6.8765389     759.7046     2208.395     3335.579     96.56335     193.5874     386.5608      3.063     3.98     1310.831     68.11731     131.5732         5     0.911     0.498 -84.32   3
       335    431.5396    223.1909 307.7524019  +6.8769991     1049.483     2308.204     2822.568     96.10096     193.1267     386.0996      2.646     5.31     1310.132     68.11731     144.7026        11     1.604     0.497 -34.81   2
       336   1010.9807    221.9605 307.5093915  +6.8969120     772.9686     2305.668     3460.979     96.40947     193.0498     386.0996      3.052     7.27     1299.986     68.11731     134.2252        10     1.916     0.772  37.81   0
       337    608.7931    220.3734 307.6781462  +6.8841172     1445.184     3384.449     4737.376     96.25534     193.1267      386.215      2.611     8.19     1303.482     68.11731      157.436        23     2.049     0.916  37.50   2
       338    611.3759    216.6149 307.6771859  +6.8857644     1426.976     4057.853     5826.366     96.56335     193.0498     386.3687      2.931    10.68      1303.37     68.11731     177.0435        32     2.283     1.392  45.07   3
       339    330.4283    217.0554 307.7950130  +6.8761485     860.0532     4923.513     7748.115     96.56335     193.3572     386.2534      3.538    12.12     1317.284     68.11731     193.8608        55     2.443     2.337 -86.21   0
       340    453.4069    209.5387 307.7436778  +6.8834022     1433.499     3139.097       4616.9     96.10096     193.0498     386.1381      2.382     8.46     1307.111     68.11731     178.2524        26     2.107     1.008  27.74   3
       341    456.4607    205.6547 307.7425243  +6.8851175     1397.701     2993.914     4005.843     97.02355     193.2036     386.4071      2.456     6.52     1306.576     68.11731     183.5112        19     1.636     0.946  71.47   3
       342    569.5633    208.1496 307.6950016  +6.8878773     1385.347     3435.122     4245.234     96.56335     193.2036     386.2918      2.407    10.04     1302.811     68.11731     177.6055        29     2.324     1.210  12.87   3
       343    571.7982    204.0400 307.6941988  +6.8896587     1399.876     4153.226     6449.415     95.79145     192.9729     386.1381      3.161    10.61     1302.607     68.11731     189.0365        36     2.601     1.206  22.19   2
       344    267.9820    201.9573 307.8217012  +6.8803169     1234.653     2948.409     4161.574     96.25534     193.1267     386.1765      2.719     8.38     1324.088     68.11731     137.7118        20     1.818     1.079  -7.22   3
       345    268.0230    207.1901 307.8215120  +6.8781455     1249.223     2614.838     3682.901     96.40947     193.0498     386.2534      2.484     7.60     1323.715     68.11731     156.4308        15     2.261     0.714  19.78   2
       346    272.3513    204.3610 307.8197896  +6.8794658     1294.489     2563.542     3792.458       96.717     193.3572     386.2534      2.266     6.67     1323.609     68.11731     200.6696        14     1.727     0.723 -77.27   3
       347    452.3606    203.9772 307.7442991  +6.8856763     1036.411     1917.461     2400.325     96.40947     192.9729      386.215      2.041     4.21     1306.775     68.11731     120.6895         7     0.761     0.664  86.81   1
       348    804.2444    194.8872 307.5969955  +6.9012454     3073.578      6728.04      7741.63     96.87039     193.1267     386.4456      2.347     8.88     1303.493     68.11731     347.6991        38     2.261     1.305  13.33   3
       349    804.5838    190.5282 307.5969956  +6.9030667     2442.709     5570.156     7632.409     96.25534     193.2036     386.3303      2.742    10.53     1303.241     68.11731     346.0464        36     2.789     1.107  16.19   3
       350    590.9073    189.7634 307.6866511  +6.8962275     1173.608     2773.463     3821.232     97.02354     193.1267     386.5224      2.714     6.24     1302.092     68.11731     164.9911        17     1.454     0.996 -14.75   3
       351    590.6962    194.9415 307.6865700  +6.8940703     1316.545     3033.243     4413.629       96.717     193.2804     386.5992      2.558     7.13     1302.322     68.11731     176.5024        17     1.890     0.762  34.39   3
       352    594.8845    192.6031 307.6848898  +6.8951817     1115.377     2504.555     3599.586     96.10096     192.8189     386.0996      2.790     6.58     1302.274     68.11731     140.3633        14     1.187     1.022 -88.23   3
       353    477.1032    191.4505 307.7343317  +6.8917084     3977.676        21813     36616.34       96.717     193.2036      386.676      3.661    11.29     1304.065     68.11731     651.6077       114     2.723     2.602 -54.33   0
       354    295.9716    192.2361 307.8102809  +6.8852949     4884.111     12437.38     19498.32     96.40947     192.9729      386.215      3.464    15.17     1322.135     68.11731     536.8658        62     3.797     1.685  57.40   3
       355    299.0000    188.4853 307.8091339  +6.8869542     5191.084     12191.73     15954.18     95.94633     192.6649     386.0227      2.725    10.56     1321.971     68.11731     598.8317        48     2.602     1.334  58.22   3
       356    679.3939    192.3343 307.6494500  +6.8981257     1679.265     3226.717     4023.051     96.25534     192.9729      386.215      2.109     7.04      1303.11     68.11731     227.2537        19     1.722     0.806  23.57   3
       357    682.7214    189.4234 307.6481495  +6.8994459     1496.952     4158.001     5435.778     96.40947     193.0498     386.4071      2.869     8.89     1303.058     68.11731     176.5107        30     1.928     1.272  61.56   3
       358    678.5244    187.7455 307.6499649  +6.9000020     1328.118      2166.95      2733.86       96.717     193.2804      386.484      2.090     5.84     1303.041     68.11731     160.1973        12     1.414     0.678 -79.79   3
       359    130.0305    191.6664 307.8799007  +6.8799442     1873.068     4100.404     5164.586     96.56335     193.2804     386.3687      2.456     7.29     1335.408     68.11731     223.3516        23     1.816     0.920  19.24   3
       360    132.6069    187.5815 307.8789546  +6.8817271     1967.734     6185.583     9626.317     96.40947     192.8959     386.2534      3.271    12.08     1335.428     68.11731     259.2715        50     2.597     1.564  23.28   2
       361    454.3128    185.3230 307.7440922  +6.8934874      927.421     2434.046     6576.569     96.87039     193.6641     386.5608      4.603     9.01     1305.299     68.11731     139.0077        13     2.136     1.061 -85.53   2
       362    632.5060    186.8856 307.6692962  +6.8988170     1134.903     2973.062     4055.145     96.87039     193.8174     386.5608      2.545     7.62     1302.506     68.11731     154.2883        19     2.110     0.769  23.43   2
       363    635.3220    183.2551 307.6682338  +6.9004188     1188.692     3525.265     5262.863     97.02355     193.2804      386.484      3.169    10.72     1302.411     68.11731     149.3203        28     2.340     1.368  25.07   3
       364    650.1245    180.9341 307.6621007  +6.9018787     1375.406     3202.273     3872.305     97.02354     193.2804     386.3687      2.363     7.58     1302.576     68.11731     175.9689        19     1.899     0.848  82.23   3
       365    646.0323    183.3503 307.6637381  +6.9007383     1435.131     3094.547     4293.597       96.717     193.2804     386.3687      2.301     7.63     1302.569     68.11731     163.3378        21     1.860     0.875  34.36   3
       366    645.8289    179.2876 307.6639565  +6.9024184     1292.515     2985.281     3856.003     97.02354     192.9729     386.2918      2.477     5.94     1302.463     68.11731     158.9803        17     1.361     0.971 -61.92   3
       367    447.3745    182.1159 307.7471078  +6.8945861     1040.844     3408.868     7188.812     96.87039     192.9729     386.3687      4.216     9.99     1305.537     68.11731     125.1648        26     2.225     1.559 -54.94   2
       368     90.4036    180.1863 307.8968993  +6.8833750     29174.26     72722.18     101446.2     96.40947     192.8959     386.2918      3.049    10.00     1337.936     68.11731     3187.174       101     3.533     2.079   2.68   3
       369     93.3114    176.5522 307.8957994  +6.8849819     33725.43     80997.67     147733.1     96.87039     193.1267     386.5992      3.795    13.82     1337.806     68.11731     3901.087       139     3.392     2.407  28.78   3
       370    827.1887    171.8323 307.5881243  +6.9115859     1854.502      3935.94     4534.046     96.25533     192.9729     386.2918      2.154     7.26     1301.743     68.11731      192.686        25     1.544     1.211  71.30   3
       371    823.9949    175.7556 307.5893359  +6.9098500     1901.958     3422.734     5100.105     96.10096     192.8189     386.0227      2.325     7.48     1302.017     68.11731     248.3641        17     1.764     0.887  17.21   3
       372    822.7939    171.7817 307.5899695  +6.9114599     2043.107     4594.402     6354.005     96.40947     192.8959     386.2534      2.406     7.79     1301.816     68.11731     221.8298        22     1.876     0.904 -75.28   3
       373    698.0000    171.0585 307.6423415  +6.9075832     1159.146     2372.188      3353.99     95.94633     192.8189     386.0227      2.319     6.96     1302.749     68.11731     138.5577        15     1.557     0.872 -84.03   3
       374    699.1979    176.3790 307.6416649  +6.9054141     1499.037     3024.818     4503.124     96.40947     192.8959     386.1381      2.334     8.02     1302.835     68.11731     196.6161        21     1.654     1.088  18.82   3
       375    702.2847    172.6772 307.6404912  +6.9070546     1469.527     3288.054     4666.403     97.02355     193.6641     386.5608      2.529     9.25     1302.783     68.11731     184.1486        24     2.095     1.140  71.98   3
       376    278.2179    168.8359 307.8184966  +6.8944137     5359.773      22188.8     35378.15     96.25533     193.0498     386.1765      3.496    11.79     1325.648     68.11731     771.5896        98     2.902     2.247 -34.00   2
       377    275.7943    165.0006 307.8196393  +6.8959245     5166.855     9398.793     11137.86     96.10096     192.8959      386.215      1.954     4.79     1326.118     68.11731     546.6653        21     1.441     0.984  14.23   3
       378    845.5144    168.3167 307.5805518  +6.9136586     2634.516     5336.736     7120.091     96.56335     193.5107     386.5608      2.519     9.56     1301.187     68.11731     312.0151        32     1.979     1.388  34.38   3
       379    849.3214    165.6568 307.5790417  +6.9148903     1864.286     3387.189     4055.964     96.87039     193.2804     386.4071      1.922     6.76     1301.031     68.11731     221.8955        18     1.636     0.783  56.48   3
       380    844.5692    164.2165 307.5810822  +6.9153295     2098.499     3743.237     5901.886     96.40947     192.9729     386.3687      2.424     4.91     1300.998     68.11731     240.3715        19     1.341     1.137 -59.58   3
       381    733.2818    164.1246 307.6277684  +6.9116439      1592.05     3247.948     4329.422     97.17646     193.5874     386.5224      2.806     7.69     1302.629     68.11731     189.4216        23     1.910     1.005  26.86   3
       382    736.7277    160.1651 307.6264524  +6.9134033     1320.914     3402.595     4402.315       96.717     193.2036     386.4456      3.470    11.54     1302.511     68.11731     154.1608        36     2.649     1.401  22.56   2
       383     32.4796    162.9385 307.9217624  +6.8885828     961.6666     3448.524     5792.237     97.02354     193.3572     386.4456      3.642    12.06     1341.261     68.11731     146.3665        28     2.354     1.719  61.82   0
       384    664.2012    157.0101 307.6569790  +6.9122842     3157.417     9691.955     12590.12     96.25533     192.8959      386.215      2.935    10.70     1302.195     68.11731     417.7606        58     2.721     1.596  72.05   3
       385    668.3247    155.6160 307.6552949  +6.9130012     3284.125     6851.044     8414.658     96.25534     192.9729     386.2918      2.249     5.96     1302.229     68.11731     363.2665        30     1.909     1.107  76.92   3
       386    913.2292    157.5780 307.5524969  +6.9203812     1666.455     4873.278     8364.882     96.10096     192.9729     386.2918      3.699     9.56     1299.788     68.11731     205.8455        36     2.102     1.425 -81.80   2
       387     79.9078    154.1219 307.9021601  +6.8938431     1031.822     3217.979     6520.873     96.56335     193.5874      386.484      4.580    11.56     1338.617     68.11731      135.601        26     2.137     1.741 -27.90   2
       388    984.4626    145.6975 307.5230025  +6.9276937     1007.093     1819.854     1852.538     96.56335      193.434     386.5224      1.796     6.64     1296.238     68.11731     144.2115        12     1.420     0.872 -22.69   3
       389    986.0306    149.8696 307.5222086  +6.9260136     1387.221     3006.981     3598.926       96.717     193.2804     386.4071      2.191     7.17     1296.401     68.11731       175.87        18     1.712     0.841  30.62   3
       390    988.7742    147.2933 307.5211417  +6.9271750     1115.386     2189.073     2556.345     97.02355     192.9729     386.2534      2.216     5.68     1296.084     68.11731     150.6257        14     1.277     0.890 -69.18   3
       391   1018.1317    150.1925 307.5087317  +6.9269512     1054.385     1957.411     3130.562     96.25533     192.9729     375.8101      2.137     4.92     1294.972     68.11731     140.6504        10     1.113     0.746  44.23  19
       392   1018.0073    145.9998 307.5089206  +6.9286880     745.3942      1181.35     1908.786     96.10096     192.8959     376.8753      1.877     4.96     1294.777     68.11731      104.079         7     0.977     0.713  71.58  19
       393   1021.6019    147.8329 307.5073529  +6.9280468     900.9941     1848.337     2668.187     95.94633     184.9583       328.91      2.258     5.34     1294.699     68.11731     114.0405         8     1.194     0.674  87.52  17
       394    922.6285    144.4377 307.5489829  +6.9261515     5724.818     23428.25     31390.88     96.25534     192.8959     386.2918      3.109     8.87     1298.468     68.11731     871.5648        91     2.360     2.234  89.08   0
       395    753.4873    137.4828 307.6201638  +6.9233827     40878.19     76706.46     87131.25     96.56335     193.5107     386.5224      2.033     6.10     1300.835     68.11731      4418.65        61     2.135     1.097  40.69   3
       396    757.3960    134.9780 307.6186061  +6.9245536     34814.16      76783.3     89854.61     96.40947     192.9729     386.1765      2.309     6.76     1300.674     68.11731     3601.971        63     2.233     1.300  86.15   3
       397    753.5838    132.9920 307.6202702  +6.9252506     34468.96     60091.98     64206.91     96.40947     192.9729     386.2534      1.870     5.18     1300.578     68.11731     3652.938        37     1.471     1.239  52.05   3
       398    154.7280    142.0982 307.8711735  +6.9013574     639.8666     1607.438      3398.22     96.56335      193.434      386.484      3.771     7.05      1335.97     68.11731     104.6494         7     1.700     0.820   5.68   0
       399    617.4083    136.1473 307.6772908  +6.9193786      910.653     2634.532     4272.471     96.25533     193.1267     386.0996      3.777     7.75     1300.589     68.11731     107.4415        16     2.158     0.779 -17.15   2
       400    615.8314    141.2636 307.6777847  +6.9172013     897.6042     2269.523      4732.71     96.56335     193.3572     386.4071      4.054     7.48     1300.727     68.11731     138.3596        12     1.827     0.858  -6.22   2
       401    350.8761    135.5884 307.7891123  +6.9106622     11315.95     27199.45     36584.43     96.40947     192.8189     386.2534      2.747    11.79     1315.821     68.11731     1214.332        60     2.839     1.472  49.53   3
       402    354.9996    132.6636 307.7874787  +6.9120153     11122.84     27246.69     40115.36     95.94633     192.9729     386.1381      3.021    13.86     1315.297     68.11731     1178.665        70     3.249     1.644  45.30   3
       403    405.1721    128.6564 307.7665645  +6.9153656     2951.651     6216.497     6995.073     96.40947     193.3572     386.3303      2.210     8.97     1307.349     68.11731     316.4872        32     2.033     1.191   7.63   3
       404    405.6737    134.4298 307.7661646  +6.9129852     3554.694     7735.605     9351.736       96.717     193.2804     386.4456      2.480     8.60     1307.131     68.11731     389.0033        41     2.404     1.219  26.92   3
       405    409.1779    131.4059 307.7647940  +6.9143585     3290.024     6077.289     6860.807     96.40947     192.9729      386.215      2.002     5.96     1306.681     68.11731     439.3169        23     1.921     0.866 -82.30   3
       406    354.1759    116.7188 307.7883479  +6.9186081     1428.051     3083.375     3352.244     96.56335     192.9729     386.3303      2.333     8.41     1316.217     68.11731     165.2595        23     1.529     1.321 -16.27   3
       407    355.1824    122.3354 307.7877413  +6.9163099     1518.273     3611.891     5374.409     96.40947     193.2036      386.215      2.799     6.98     1315.812     68.11731     175.1332        23     1.729     1.122  14.75   3
       408    358.5865    119.0062 307.7864227  +6.9178066     1618.869     3589.867     4900.147     96.40947     193.0498     386.2918      2.459     7.80     1315.273     68.11731     203.2073        23     1.951     0.991  84.24   3
       409    793.2950    120.8215 307.6040094  +6.9316331     1591.081     4620.237     6788.544       96.717     193.0498     386.2534      2.958    10.32     1299.606     68.11731     200.7704        37     2.482     1.196 -44.57   2
       410    791.1097    117.0452 307.6050496  +6.9331281      1435.25     2875.015     4093.773     96.87039     193.1267     386.5992      2.328     6.93     1299.406     68.11731     166.5312        15     1.588     0.848 -63.76   3
       411    735.6964    114.4546 307.6283802  +6.9323489     2557.262     5181.494     6525.328       96.717     193.2804     386.7144      2.294     6.66     1299.483     68.11731     267.8832        31     1.936     1.135  26.60   3
       412    737.4682    110.5278 307.6277653  +6.9340388     2049.147     6005.622     7960.083     97.02355      193.434     386.4456      2.848    10.63     1299.273     68.11731     239.6892        42     2.435     1.292  23.01   3
       413    570.4971    107.4890 307.6979083  +6.9297050     18150.53     38724.57     41520.34     96.87039     193.8174     386.4456      2.133     6.38     1299.534     68.11731     1877.351        47     1.629     1.486  21.87   3
       414    571.1620    112.6721 307.6974595  +6.9275752     20918.74      46101.7     55130.52       96.717     193.2036     386.5224      2.382     7.56      1299.62     68.11731     2224.509        65     2.499     1.312  15.57   3
       415    575.0000    110.0339 307.6959359  +6.9287994     19117.99     42114.69      49525.5     95.63632     192.9729     386.0996      2.294     7.53     1299.597     68.11731     2136.653        44     2.237     1.127 -86.62   3
       416    378.3769    109.2639 307.7784411  +6.9225171     11265.06     27328.51     42076.84     96.40947     193.2804     386.2918      3.124    14.74     1312.356     68.11731     1209.011        78     3.474     1.741  64.13   3
       417    382.3034    106.1940 307.7768948  +6.9239237     11405.99     25674.78     32842.96     96.56335     192.8959      386.215      2.583    10.03     1311.733     68.11731     1305.068        51     2.544     1.309  58.93   3
       418    453.0923    107.9319 307.7471433  +6.9255805     1433.089     4317.881     6160.436       96.717      193.434      386.484      2.915    12.53     1303.251     68.11731     184.2927        42     2.742     1.594  54.46   3
       419    455.9646    104.5157 307.7460505  +6.9270954     1586.228     3702.359     5157.367     96.87039     193.2804     386.4071      2.451     8.18     1303.038     68.11731     201.2166        24     2.292     0.817  41.39   3
       420    814.1098    103.0110 307.5958597  +6.9397250     845.8849     2013.464     3130.527     96.56335     192.8959     386.1765      3.054     6.72     1297.895     68.11731     100.6893         9     1.363     0.930 -66.49   2
       421    618.0003    104.2527 307.6780871  +6.9326418     3127.872     8335.571     11097.83     95.94633     192.6649     385.9073      2.760     9.94     1299.609     68.11731     376.8202        50     2.649     1.311  72.91   3
       422    622.0696    102.1502 307.6764489  +6.9336512     3034.238     7689.498     9734.581     96.87039     193.2036      386.484      2.572     8.74     1299.555     68.11731     314.4689        38     2.168     1.264  69.79   3
       423    818.9949    103.3597 307.5937990  +6.9397436     618.4733     1253.599     2324.141     95.94633     192.8959     386.0996      2.235     4.48     1297.604     68.11731     116.0436         5     1.026     0.555  75.94   0
       424    506.6628    100.5722 307.7249128  +6.9304351     7637.186     18288.41     26712.85     96.40947     193.2804     386.4071      2.957    13.48     1300.599     68.11731     851.1255        66     3.294     1.534  65.04   3
       425    510.5151     97.9700 307.7233821  +6.9316449      7407.24     17054.92     22487.49     96.87039     193.0498     386.2918      2.691    10.58     1300.441     68.11731     803.6281        51     2.609     1.314  60.50   3
       426    259.8786     86.8032 307.8288862  +6.9278573     1774.577     10941.51     18887.94     96.10096     192.6649      386.215      3.842    10.41     1331.516     68.11731      367.421        93     2.625     2.552  -2.92   0
       427    330.4356     84.5554 307.7993630  +6.9311645     609.8118     1169.804     2554.187     96.56335     193.2036     386.2918      3.664     4.85      1321.94     68.11731     87.23108         5     1.152     0.580 -31.35   0
       428    348.5341     69.7039 307.7922590  +6.9379396     2082.489     4651.941     5887.591     96.87039      193.434      386.484      2.429     6.78     1319.374     68.11731     251.4135        29     1.618     1.265 -33.09   3
       429    349.5067     75.0206 307.7916763  +6.9357647     2575.689     5900.018     7352.735       96.717     193.0498      386.215      2.486     8.64     1318.963     68.11731     270.6849        32     2.053     1.102  26.67   3
       430    353.3708     71.5992 307.7901678  +6.9373153      2621.71     5404.839      7402.47     96.10096     193.0498      386.215      2.521     6.07     1318.608     68.11731     284.5164        30     1.939     1.088 -87.68   3
       431    838.6729     70.8400 307.5866065  +6.9539048     1614.607     3977.504       6829.6       96.717     193.2804     386.5224      3.262    10.07     1294.879     68.11731     175.1345        35     2.685     1.053  62.81   3
       432    834.2855     71.9212 307.5884117  +6.9533092     1575.573     3876.711     5289.547     96.87039     193.6641     386.5608      2.654    10.35     1295.151     68.11731     195.4189        32     2.429     1.230  74.49   3
       433    800.7422     71.8085 307.6024874  +6.9522338     831.2408     2932.064     3240.603     96.10096     193.2036     386.0996      2.833    11.28     1296.669     68.11731     143.1106        20     2.153     1.646  32.38   0
       434    727.1697     69.6513 307.6334227  +6.9506669     1075.783     2251.621     2966.284     96.56335      193.434     386.3687      2.231     5.91     1297.219     68.11731      143.424        12     1.350     0.814  74.90   3
       435    722.9606     71.3876 307.6351317  +6.9498050      1447.67     3113.368     3741.003     96.25533     193.0498     386.1765      2.324     7.45     1297.319     68.11731     176.6149        19     1.717     0.904  37.38   3
       436    723.7075     66.9871 307.6349624  +6.9516572     1219.293     2585.918     3244.541     96.56335     192.9729     386.1765      2.212     7.37     1297.113     68.11731     136.7836        17     1.839     0.826  -2.61   3
       437    669.1432     69.7403 307.6577626  +6.9486862     787.5031     2528.084     4461.095     97.02354     193.2804      386.484      3.734     8.75     1297.999     68.11731     116.0474        19     2.546     0.840 -61.24   0
       438    197.8730     66.0860 307.8555775  +6.9343715     976.8277     2171.238     3544.572     97.02354     193.6641     386.4456      2.823     7.09     1334.202     68.11731     149.8119        13     1.507     0.936  75.09   3
       439    194.4281     69.8765 307.8568978  +6.9326816     1112.701     2579.507     3427.157       96.717     193.2804     386.4071      2.738     7.10     1334.413     68.11731     123.8411        17     1.517     0.930  15.28   2
       440   1000.1279     56.4479 307.5193418  +6.9652759     4423.977     14943.29     19081.22     96.87039     193.3572      386.484      2.901     7.71     1289.348     68.11731      625.537        73     2.165     2.043 -89.00   0
       441    837.4933     33.8111 307.5883113  +6.9692408     740.4701     2812.295     4130.418     96.56335     192.8959     386.1765      3.199    10.30     1293.358     68.11731     122.8297        20     1.787     1.654  43.13   0
       442    962.3709     33.1228 307.5359432  +6.9737004     998.3132     2735.151     3914.754       96.717     193.3572      386.484      3.110     7.62     1289.742     68.11731     131.0603        13     1.492     1.090  55.54   2
       443    938.4695     33.2556 307.5459664  +6.9728469      843.667     1771.439     1948.015     96.87039     193.1267     386.4071      2.070     6.59      1291.21     68.11731     133.4304        12     1.633     0.747  40.23   0
       444    995.8231     30.4178 307.5219969  +6.9759407     1118.292     2156.241      2584.49     96.56335     193.1267     386.3687      2.140     6.13     1287.418     68.11731     124.0059        12     1.210     0.873  43.59   3
       445    997.6340     27.4193 307.5213349  +6.9772462     803.8362     1985.058     2786.431     96.25534     193.0498      386.215      2.464     8.18     1287.045     68.11731     135.8101        12     2.229     0.840  28.43   2
       446    438.5709   1010.7496 307.7236302  +6.5502275     3313.533     11083.74     13865.52     96.40947      193.434     386.3303      2.865     7.54      1365.39     68.11731     437.8738        59     2.000     1.964  48.65   0
       447    707.3904   1009.0418 307.6110064  +6.5599456     1342.115     3931.508     4681.882     96.10096     193.0498     386.1381      2.714     7.98     1362.336     68.11731     187.5602        32     1.803     1.654 -31.42   0
       448    328.5617    994.9930 307.7702576  +6.5530758     2871.411     9234.419     11721.18     95.94633     192.8959     386.0996      2.853     6.91     1365.781     68.11731     395.5013        64     2.186     1.916  44.01   0
       449    696.2576    990.7328 307.6162711  +6.5671753     22806.53     67128.64     80579.76     97.02355     193.2036     386.4071      2.678     6.48     1362.075     68.11731      2739.08       104     2.107     2.063  59.77   0
       450    184.9583    994.4624 307.8304661  +6.5484677     883.0972     2188.548     3319.325     96.87039     193.2036     386.5224      2.768     5.65      1364.68     68.11731     144.3268        11     1.722     0.523  30.99   0
       451    369.2208    989.2284 307.7534042  +6.5568351     942.0588     2194.364      3391.09     96.25533     193.0498     386.3687      2.388     5.80     1365.384     68.11731     175.6655        10     1.528     0.663  35.86   0
       452    871.8043    986.7126 307.5428158  +6.5747149     1151.649     3002.301     4351.529     96.25533     192.8959     386.0612      3.088     9.02     1358.063     68.11731     141.9866        23     1.732     1.312 -44.13   0
