#   1 NUMBER                 Running object number                                     
#   2 X_IMAGE                Object position along x                                    [pixel]
#   3 Y_IMAGE                Object position along y                                    [pixel]
#   4 ALPHA_J2000            Right ascension of barycenter (J2000)                      [deg]
#   5 DELTA_J2000            Declination of barycenter (J2000)                          [deg]
#   6 FLUX_APER              Flux vector within fixed circular aperture(s)              [count]
#   9 FLUXERR_APER           RMS error vector for aperture flux(es)                     [count]
#  12 FLUX_RADIUS            Fraction-of-light radii                                    [pixel]
#  13 FWHM_IMAGE             FWHM assuming a gaussian core                              [pixel]
#  14 BACKGROUND             Background at centroid position                            [count]
#  15 THRESHOLD              Detection threshold above background                       [count]
#  16 FLUX_MAX               Peak flux above background                                 [count]
#  17 ISOAREA_IMAGE          Isophotal area above Analysis threshold                    [pixel**2]
#  18 A_IMAGE                Profile RMS along major axis                               [pixel]
#  19 B_IMAGE                Profile RMS along minor axis                               [pixel]
#  20 THETA_IMAGE            Position angle (CCW/x)                                     [deg]
#  21 FLAGS                  Extraction flags                                          
         1    634.8092     29.9628 307.6746665  +6.6727131     13480.98     26553.04     28710.19      88.2639     177.2359     354.6131      2.045     4.63     1098.555     62.56233     1417.277        59     1.687     1.513  82.90   0
         2    440.2206     21.8130 307.7558507  +6.6695703     15420.01     32762.25     35468.47     88.68859     177.1652      354.825      2.171     5.01      1105.24     62.56233      1480.28        62     1.744     1.599  88.80   2
         3    260.9641     22.2014 307.8303698  +6.6634033     6314.559      13276.6     14618.27     87.97964     177.3065     354.7191      2.161     4.96     1122.632     62.56233     740.5439        46     1.648     1.510  84.29   0
         4    621.2356     20.5256 307.6806287  +6.6761561     2333.635     4985.876     6322.304      88.8297     177.5889     354.9308      2.440     6.88     1098.269     62.56233     241.1975        34     1.863     1.298  70.05   0
         5    248.9679     19.0227 307.8354652  +6.6643134     2208.424     4642.312     5511.135     88.40569     177.3065     354.6837      2.207     6.09     1122.962     62.56233     260.1401        31     1.686     1.293 -89.07   0
         6    690.2208     11.5593 307.6522465  +6.6821626     1467.151     2434.227     1803.844     88.54726     177.3065     354.7191      1.806     5.96     1096.237     62.56233      179.451        18     1.223     1.184 -72.63   0
         7    938.2142     11.7367 307.5491212  +6.6903593     1022.159     1606.362     993.8351     88.40569     177.3065     354.7544      1.644     2.75     1088.188     62.56233     169.1992         9     0.891     0.642  65.55   0
         8    178.3600      4.3161 307.8653204  +6.6680161     7658.875     15382.62     15747.99     88.97059     176.8822     315.7508      2.042     4.84     1124.042     62.56233     806.6342        46     1.632     1.489 -76.71  24
         9    923.9160      2.0785 307.5553914  +6.6938710     3756.727     4799.955      4752.65     86.54431     153.3683     280.7258      1.382     3.33     1088.633     62.56233     526.2838        20     1.194     0.977 -19.44  24
        10    522.6699      2.5432 307.7222193  +6.6802857      2185.97     3591.438     3707.119     89.11126     159.7681     288.4279      1.805     5.42     1100.537     62.56233     236.7518        21     1.270     1.164  10.75  24
        11    724.5027      1.5014 307.6383307  +6.6874600     1197.127     1626.731     1601.832     79.76637     144.2791     270.0838      1.334     3.97      1092.01     62.56233       212.15        10     1.118     0.644   6.88  24
        12    460.9356      1.7207 307.7479163  +6.6785597     1075.313     1498.305      1517.01     82.84727     147.7107     274.1801      1.473     5.38      1103.67     62.56233      166.072        12     1.265     0.680  -5.59  24
        13    710.8900   1000.3352 307.6103612  +6.2745775      1114.63     1615.538     1715.546      88.8297     177.7299     354.9661      1.486     3.74     1152.495     62.56233     173.5459         9     1.014     0.688  81.29   0
        14    757.9678   1023.3683 307.5900267  +6.2666370     676.6412     861.4865     436.5201     81.16724      146.005     272.3467      1.292     2.98     1153.058     62.56233     120.1989         6     0.798     0.727   7.75  24
        15    581.9877   1021.3621 307.6632089  +6.2615924     166245.1     239227.4     245563.1     88.40569     172.1454     305.6732      1.526     2.82     1153.649     62.56233     24768.32        78     1.365     1.304  76.75  27
        16    583.7608   1014.1915 307.6627138  +6.2646124      77114.8     113091.8     118913.6      88.2639     177.3065     354.6131      1.564     2.92     1153.524     62.56233     11668.24        71     1.403     1.294  81.64   3
        17    399.6257   1023.6452 307.7388964  +6.2545532     498.0296     661.2165     826.7668     77.05079     141.2967     267.2869      1.145     3.77     1155.984     62.56233     104.4227         5     1.016     0.401  16.22  24
        18    216.0294   1023.4181 307.8151792  +6.2484982     2766.632     3352.965     2943.214     80.39199     145.0583      271.656      1.109     2.69     1159.358     62.56233     575.2484        14     1.110     0.654  14.64  24
        19    241.0140   1000.2464 307.8055826  +6.2589031     1414.395     1723.707     1457.995      88.2639     177.3065     354.6837      1.425     3.74     1158.837     62.56233      176.269        13     1.108     0.787  81.08   0
        20    716.0789    998.2772 307.6082745  +6.2756004     3055.791     4109.672     3967.039      89.2517     177.8003      355.072      1.422     2.92     1152.404     62.56233     418.8541        21     1.219     0.895 -73.46   0
        21    439.7198    998.8895 307.7230740  +6.2661162     998.4202     1374.928     1213.249     88.68859     177.7299     355.0367      1.508     3.80     1154.686     62.56233     137.8378         7     0.764     0.651  72.90   0
        22    731.7844    997.3219 307.6017813  +6.2765187     1278.227     1634.673      1794.48     88.54726     177.2359     354.7544      1.423     3.02     1152.343     62.56233     204.2064        12     0.959     0.813 -69.67   0
        23    362.8490    995.7448 307.7551173  +6.2648425     1731.895     2557.599     2641.779     88.97059     177.5183     355.0014      1.514     3.26     1157.357     62.56233     272.6908        13     1.048     0.884  66.85   0
        24    972.9430    993.4208 307.5017137  +6.2861633     759.7745     751.8567     728.4573     88.54726     177.4478     354.7191      1.177     2.74     1144.572     62.56233     150.4855         7     0.736     0.686 -18.18   0
        25    749.4691    985.2316 307.5948402  +6.2821007     8735.403     12423.87     13193.97      88.8297     177.5183     354.9308      1.526     2.84     1151.165     62.56233     1254.249        32     1.277     1.089  88.76   0
        26    545.0573    986.0411 307.6797425  +6.2749430     4200.408     6703.136      7468.49     88.97059     177.5183     354.9661      1.783     3.63     1153.878     62.56233      506.075        30     1.439     1.152  85.44   2
        27    542.2620    978.1821 307.6811687  +6.2780946     8452.501     12860.81     13971.96     88.54726     177.4478     354.7544      1.668     3.16     1153.748     62.56233     1102.662        37     1.459     1.148  77.92   2
        28    515.2483    986.9686 307.6920961  +6.2735639     1095.237     1798.458     1661.317     88.68859     177.5183      354.825      1.618     5.32     1153.907     62.56233     146.6696        11     1.235     0.648  27.07   0
        29    295.3825    984.6572 307.7835215  +6.2671615     14946.74     23155.15      25689.4     88.40569     177.4478     354.6484      1.704     3.17     1158.425     62.56233     1837.205        55     1.657     1.367 -41.01   0
        30    419.9778    984.8708 307.7317491  +6.2712442     963.5677     1635.395     1596.935     88.54726     177.3772     354.9308      1.726     4.35      1154.98     62.56233     150.0177         9     1.099     0.604  79.03   0
        31    810.7238    984.9760 307.5693981  +6.2842483     1273.516     1680.626     1856.007     88.54726     177.4478     354.8955      1.493     2.70     1149.144     62.56233     227.3875         9     0.853     0.706  28.31   0
        32    266.4625    982.2980 307.7956164  +6.2671667       849.39     1354.394     838.2101     88.68859     177.6594     355.0014      1.631     5.39     1158.411     62.56233     137.4613         9     1.242     0.659  78.78   0
        33    910.8074    978.7062 307.5280247  +6.2901711     10321.33     14176.46     14732.34     88.54726     177.1652     354.6837      1.434     2.67     1146.347     62.56233     1765.621        33     1.265     1.053 -84.36   0
        34    884.4391    974.9200 307.5391078  +6.2908565     14238.95     19764.54     21473.08      88.8297     177.5889     354.8955      1.448     2.63     1147.243     62.56233     2149.372        40     1.262     1.202 -70.17   0
        35   1006.1359    974.2200 307.4885664  +6.2951960     5755.137     7667.543     7684.455     88.54726     177.5183     354.7544      1.376     2.71     1142.188     62.56233      958.293        24     1.139     0.952  67.46   0
        36    597.5603    975.1463 307.6582955  +6.2811955      1339.08     2026.218     2221.752      88.8297     177.5183     354.9308      1.643     3.87     1152.854     62.56233     216.5673        15     1.171     0.969 -48.81   0
        37    637.9952    973.4693 307.6415519  +6.2832381     1461.907     2082.788     2078.534     88.40569     177.0945     354.7544      1.531     3.74     1152.294     62.56233     222.8054        13     1.092     0.836 -85.11   0
        38    528.5309    973.7955 307.6870215  +6.2794471     4257.996     6514.458     7257.174     88.40569     177.0945     354.7191      1.664     3.25     1153.699     62.56233     596.9718        24     1.306     1.036  89.12   0
        39     63.5175    972.3781 307.8802666  +6.2644561      925.054     1547.072     1415.205     88.68859     177.1652     354.7897      1.784     6.75     1157.751     62.56233     121.9852        13     1.355     0.943  50.36   0
        40    793.5747    971.7447 307.5769682  +6.2891401     707.2595     996.1187     1240.308     88.54726     177.5183     354.7191      1.546     3.15     1148.744     62.56233     113.3005         5     0.808     0.664 -38.85   0
        41    482.1300    970.3735 307.7064155  +6.2793089     2275.904     3650.092     3734.222     88.54726     177.3772     354.8603      1.690     3.59     1153.712     62.56233     311.7334        19     1.207     1.044  80.03   0
        42    916.2167    962.3668 307.5263257  +6.2970980     50643.73     68876.16     71792.19     88.54726     177.2359     354.7897      1.429     2.58     1145.167     62.56233     7579.438        60     1.347     1.137  87.77   0
        43    223.7661    960.8983 307.8140784  +6.2745718     1624.598     2457.161     2156.398     88.97059     177.3772      355.072      1.573     4.13     1157.601     62.56233     214.2152        14     1.224     0.788  86.35   0
        44    111.7071    960.4741 307.8606490  +6.2709887      559.332     742.4625     529.1777      88.8297     177.6594     354.8955      1.458     4.53     1156.873     62.56233     89.99243         6     1.220     0.478 -44.23   0
        45    622.4460    958.4902 307.6485168  +6.2889040     987.4062     1252.328     1038.748     88.97059     177.4478      355.072      1.291     5.22      1152.33     62.56233     142.2117         9     1.235     0.624  65.34   0
        46    762.3400    954.1289 307.5905384  +6.2953726     7257.679     10528.22     11557.57     89.11125     177.5183     355.0014      1.585     2.99     1148.866     62.56233     989.4463        32     1.510     1.082 -79.30   0
        47    814.3179    956.2924 307.5688689  +6.2962120     2483.585     3155.677     3077.515     88.68859     177.8708     355.0014      1.340     2.88     1147.397     62.56233     393.5585        17     1.073     0.902 -59.52   0
        48    549.1421    953.3622 307.6791465  +6.2885729     1009.817     1436.886     1358.675     88.97059     177.5889     354.9308      1.527     4.49     1153.277     62.56233     139.5526         8     0.936     0.716  83.52   0
        49    231.9758    953.1156 307.8109307  +6.2780604     1396.453     2080.177      2325.92      88.8297     177.2359     354.8603      1.592     3.43     1157.431     62.56233     196.4318        13     0.987     0.902 -55.42   0
        50    196.5995    952.9702 307.8256333  +6.2769346     987.1922     1155.498     913.0646      88.2639     177.3065     354.7191      1.420     4.34     1157.098     62.56233       143.41         9     1.112     0.725 -71.13   0
        51     56.6223    951.5589 307.8838362  +6.2728207     2725.915     4582.433     4616.935     88.54726     177.3065     354.6837      1.810     4.23     1157.559     62.56233      371.847        26     1.349     1.270  17.42   0
        52    950.4459    949.1115 307.5125483  +6.3037108     8125.314     10666.77     10613.78     88.97059     177.3772     354.9661      1.364     2.57     1143.119     62.56233     1329.385        29     1.196     1.011  74.37   0
        53    207.1813    945.4034 307.8214928  +6.2804136     733.3785     1214.449     1622.799     88.54726     177.0238     354.7191      1.622     4.70      1156.97     62.56233     99.85986         6     1.054     0.638  80.36   0
        54    633.0863    943.6442 307.6445957  +6.2953893     794.7896     1248.521     867.7259     88.97059     177.3772     354.9308      1.699     4.65     1151.962     62.56233      118.046         7     1.111     0.553  30.29   0
        55    924.2797    940.7313 307.5237019  +6.3063001      2569.31     3256.945     3191.453     89.11126     177.8003     354.8955      1.348     2.83     1143.738     62.56233     378.3368        16     1.002     0.933  53.94   0
        56    783.9486    937.5170 307.5821185  +6.3029524     1613.324     2366.705     1671.514     88.97059     177.4478     355.0367      1.552     3.99     1147.177     62.56233      229.677        14     1.131     0.892 -82.39   0
        57    644.9824    936.8240 307.6398825  +6.2986026     4777.875     7290.676     7160.292     88.68859     177.3772     354.8603      1.604     3.16     1151.617     62.56233     666.5402        29     1.363     1.099  77.10   0
        58    257.3239    937.1353 307.8009394  +6.2855082     4305.253     6717.956      7107.01     89.11125     177.5183     354.8955      1.699     3.46     1157.329     62.56233     591.4626        27     1.328     1.121  83.73   0
        59    994.5159    935.8104 307.4946831  +6.3106695     991.4995     1248.432      1076.43     88.54726     177.2359     354.7544      1.439     4.46     1140.481     62.56233     155.9528        10     1.354     0.588  80.74   0
        60    467.4625    935.0798 307.7136998  +6.2933915      1136.08      1730.35     1411.859     89.11125     177.5889     354.9308      1.573     2.96     1153.669     62.56233     207.7955        10     0.929     0.740  54.13   0
        61     25.9884    934.8531 307.8971290  +6.2786897     2150.003     3254.577     3182.726      88.2639     177.4478     354.6131      1.578     3.59     1157.872     62.56233     320.6022        19     1.162     1.048  45.55   0
        62    877.0213    932.9954 307.5435981  +6.3079208     946.3653     1281.138     1022.015     88.54726     177.2359     354.7191      1.284     3.31      1144.57     62.56233      158.905         7     0.873     0.525 -51.94   0
        63    969.0594    931.6554 307.5054001  +6.3115382     591.3703     811.4572     537.0671     89.11125     177.5183     354.9308      1.347     4.13     1141.384     62.56233     114.3354         5     0.796     0.613 -81.23   0
        64    948.3824    930.4407 307.5140324  +6.3113516     1076.156     1335.561     1417.005     88.40569     177.3065     354.7191      1.409     3.34     1142.189     62.56233     160.2268        11     0.927     0.824 -66.38   0
        65    293.0210    930.2220 307.7863416  +6.2895587     729.4595     1166.405     1521.309     88.68859     177.3065     354.8955      1.607     4.98     1157.598     62.56233      122.546         7     0.981     0.716  89.28   0
        66    569.6589    929.1732 307.6714370  +6.2992462     1769.865     2564.277     2299.437     88.54726     177.5889     354.7544      1.590     4.11     1152.685     62.56233     228.3058        18     1.193     1.048 -77.40   0
        67   1001.1897    928.3558 307.4921602  +6.3139696     896.8043     1598.599      1967.22     88.40569     177.3772     354.6131      2.282     5.59     1139.751     62.56233     162.9519        10     1.308     0.672 -78.86   0
        68    609.0557    926.0502 307.6551729  +6.3018517     1202.344     1746.395     1356.458     88.97059     177.5183     354.9661      1.552     3.92     1152.182     62.56233     161.8939        11     0.953     0.893 -11.25   0
        69    288.9641    923.3259 307.7882602  +6.2922702     1360.114     2291.093     2377.643      88.8297     177.5889     354.9308      1.736     4.85     1157.523     62.56233     147.1471        17     1.195     1.059  21.70   0
        70    755.8083    919.4506 307.5944185  +6.3094740      939.934     1321.809     1009.411     88.40569     177.3772     354.5778      1.589     5.50     1147.111     62.56233     109.4928        10     1.106     0.773  15.28   0
        71    893.1935    916.1191 307.5374451  +6.3154279     7702.449      10556.7     11100.11     88.54726     177.0238     354.7191      1.430     2.63     1143.428     62.56233     1308.829        26     1.212     0.971  88.48   0
        72    429.2161    913.2488 307.7303273  +6.3011264      2096.91     3433.578     3395.399     88.40569     177.5889     354.6131      1.729     3.71     1154.356     62.56233     262.5087        20     1.244     1.018  65.44   0
        73    330.8174    911.7785 307.7712608  +6.2984400     8846.567     14095.05     14960.08     88.68859     177.3065     354.8603      1.732     3.55     1156.198     62.56233     1106.303        40     1.459     1.277  86.45   0
        74    251.0105    910.7396 307.8044546  +6.2961954     6479.613     10463.75      10827.8      88.2639     177.3772     354.6131      1.722     3.57     1156.604     62.56233     788.6243        30     1.350     1.188  89.99   0
        75    578.9708    905.2557 307.6683737  +6.3094331     1066.118     1532.582      1484.48     88.68859     177.5889      354.825      1.546     5.68     1151.771     62.56233      155.062        12     1.054     0.945  15.72   0
        76    908.9846    901.0595 307.5313894  +6.3221721     1350.881     1604.728     1758.371     88.40569     177.4478     354.6484      1.321     3.13     1142.389     62.56233     213.7896        11     0.956     0.831 -80.70   0
        77    865.1334    899.9399 307.5496481  +6.3211740     875.7258     1208.986       985.65     89.11125     177.4478     354.9308      1.486     4.82     1143.783     62.56233     152.1261         9     1.246     0.707   0.40   0
        78    141.6037    900.0465 307.8502728  +6.2969420      492.829     711.9153     941.6549      88.2639     177.2359     354.5424      1.518     4.63     1155.749     62.56233     93.69214         5     1.027     0.592 -19.21   0
        79    838.5996    894.8343 307.5608450  +6.3223981       591.02       1103.8     824.3847     87.97964     177.3065     354.6837      1.555     4.24     1144.207     62.56233     104.0535         6     0.746     0.686 -32.50   0
        80    745.4397    894.2111 307.5995757  +6.3195499     1635.786     2363.463     2550.064      88.2639     177.3065     354.6484      1.505     3.69     1146.084     62.56233     242.2461        14     1.116     0.860  74.02   0
        81    763.3239    904.3319 307.5918042  +6.3159673     628.3024     937.8728     1112.566     89.11126     177.6594     354.9308      1.323     4.11     1146.203     62.56233     109.5894         6     0.881     0.547 -45.00   0
        82    530.6241    889.6340 307.6889885  +6.3142680     1103.304     1523.625     1727.218     88.40569     177.3065     354.6837      1.502     4.49     1152.093     62.56233     176.0303        14     1.267     0.868  69.16   0
        83    976.9800    889.8218 307.5035128  +6.3290756      1405.02      1760.64     2699.358     88.68859     177.4478     354.8603      1.512     3.63     1138.427     62.56233     203.0299        11     1.004     0.713 -72.06   0
        84    663.9490    887.5406 307.6336609  +6.3195854      2471.29     3578.765     3982.581     88.97059     177.5183     354.9308      1.590     3.42     1148.286     62.56233     331.0967        20     1.203     0.995 -66.72   0
        85     60.6532    883.9513 307.8844509  +6.3008708     2818.412     4555.956     4512.314     89.11125     177.5183     354.9308      1.755     3.75      1156.04     62.56233     392.8358        26     1.424     1.073  74.06   0
        86    204.2690    882.8010 307.8248196  +6.3061644     2088.384     3429.218      3900.37     88.40569     177.0238     354.7191      1.699     4.24     1155.554     62.56233     273.3639        22     1.323     1.098  62.13   0
        87    942.0251    883.0456 307.5182650  +6.3307103     858.4236     1204.291     1173.092     88.40569     177.5889     354.7896      1.402     3.70     1140.153     62.56233     143.6923         9     0.927     0.743  80.45   0
        88    824.8038    884.1041 307.5669381  +6.3263691     844.8415     998.3115     1342.481     88.68859     177.1652     354.5778      1.258     2.99      1144.18     62.56233     155.6052         6     0.759     0.548 -41.58   0
        89     78.1776    883.0503 307.8772003  +6.3018311     1887.838     2757.332     2994.267     88.40569     177.5889     354.7896      1.587     3.54     1155.709     62.56233      265.494        18     1.154     1.012  28.29   0
        90   1005.8252    880.5917 307.4918365  +6.3338465     558.8889      459.943       158.95     88.54726     177.3065     354.7544      1.134     3.74     1136.047     62.56233      97.8999         5     1.076     0.373 -85.97   0
        91    609.3970    890.3066 307.6562349  +6.3166219     618.3601     678.6384    -40.60354     88.68859     177.1652     354.6484      1.305     3.48     1150.751     62.56233     111.6765         5     0.746     0.469  76.01   0
        92    343.5595    879.2660 307.7670645  +6.3122911       1034.1      1569.65     1817.254     88.97059     177.4478     355.0367      1.706     3.91     1155.514     62.56233     139.4882         9     1.013     0.760 -85.00   0
        93    238.4007    879.2386 307.8107586  +6.3087796      666.843     1232.743     1550.251     87.97964     177.3065     354.6131      1.744     4.52     1155.699     62.56233      117.994         5     1.335     0.435  55.67   0
        94    658.5205    876.7295 307.6362805  +6.3238682      6896.62     10636.38     11393.06      89.2517     177.8004     354.8955      1.663     3.31     1147.788     62.56233     829.6204        35     1.321     1.217 -85.34   0
        95    795.7072    877.5142 307.5792500  +6.3281204     800.1617     954.5776     1196.374      88.8297     178.0116     355.0367      1.471     3.09     1144.562     62.56233     164.0337         5     0.946     0.406  76.14   0
        96     18.8605    875.0494 307.9021164  +6.3031428     1258.161     1944.474     2185.086     88.97059     177.4478     355.0014      1.606     5.01     1156.582     62.56233     194.5557        11     1.039     0.883  60.33   0
        97    896.2704    873.0131 307.5376144  +6.3333296     3234.805     4498.047     4531.916     88.40569     177.2359     354.7897      1.466     2.90     1141.814     62.56233      505.844        20     1.115     0.968 -74.15   0
        98     31.9143    873.1176 307.8967582  +6.3043788       1157.3     1754.128     1789.575     88.68859     177.8003     355.0367      1.534     3.85     1156.301     62.56233     174.2825        11     1.063     0.713  76.66   0
        99    341.6150    870.0212 307.7681847  +6.3160432     14888.26     24510.41     26267.63     88.68859     177.2359      354.825      1.793     3.75     1155.432     62.56233     1731.248        45     1.485     1.300  86.93   0
       100     76.3807    871.6059 307.8783344  +6.3064961      1135.23     1945.627     2326.321     88.54726     177.0945     354.7191      1.774     5.13     1155.492     62.56233     194.4751        14     1.284     0.977  70.22   0
       101    212.6927    869.4384 307.8217715  +6.3119642     1366.908     2120.514     1710.307     89.11126     177.4478     355.0014      1.704     6.36     1155.303     62.56233     157.6869        15     1.239     1.004 -72.59   0
       102    391.9859    868.3605 307.7473114  +6.3184152     633.2676     1123.885     1218.474     88.40569     177.3065     354.6484      1.647     3.88     1154.216     62.56233     95.66675         5     0.898     0.480   0.93   0
       103    419.7531    860.6027 307.7360357  +6.3225476     911.3575     1575.122     1505.696      88.2639     177.1652     354.5071      1.693     5.92     1153.266     62.56233     128.7303        10     1.174     0.840  88.08   0
       104    105.1198    860.8604 307.8667575  +6.3118975     1382.785      2316.29     2514.946     89.11125     177.5183     354.8955      1.859     4.61      1154.93     62.56233     175.7959        15     1.175     0.989  73.45   0
       105    673.3337    857.1101 307.6307858  +6.3324637     899.6991     1559.802     1808.004     89.11125     177.6594     354.9661      1.934     5.39     1145.688     62.56233     117.4243         9     0.992     0.827 -34.24   0
       106    886.5194    854.7500 307.5422797  +6.3405459     2022.566     2535.535     2391.584     88.97059     177.5889     354.9308      1.375     3.34     1141.181     62.56233     303.5583        15     1.177     0.787 -67.39   0
       107     88.6026    854.2892 307.8738427  +6.3140563     2442.007     3838.565      3893.96      88.2639     177.1652     354.6131      1.670     3.78     1154.988     62.56233     339.7502        21     1.345     1.019  68.49   0
       108    857.3220    854.2798 307.5544281  +6.3397675     2191.893     2795.717     2563.595      89.2517     177.8004     355.1072      1.419     2.77     1142.177     62.56233     321.9277        15     0.997     0.882 -86.25   0
       109    820.6127    853.7296 307.5697006  +6.3387715     3141.796     4402.511     4798.242     88.40569     177.2359     354.7897      1.480     3.00     1142.987     62.56233     435.9852        21     1.135     1.031 -70.95   0
       110    556.6342    845.1419 307.6796805  +6.3335083     306401.7     499059.4     528212.9      88.8297     177.5183     354.8955      1.767     3.59     1149.708     62.56233     36337.62       158     1.661     1.492  88.00   0
       111    450.8046    852.3776 307.7234109  +6.3269826     548.6457     853.7556     1281.232     88.54726     177.2359     354.7191      1.945     5.33     1152.468     62.56233      84.1637         5     1.315     0.610 -28.65   0
       112    336.0701    851.8578 307.7711021  +6.3233572     725.3749     986.9598     1384.472     89.11125     177.5183     354.8955      1.642     4.96     1155.109     62.56233     106.2721         7     1.088     0.639  -8.31   0
       113    400.9112    847.7268 307.7442993  +6.3272336     6974.947     11810.98     12538.02     88.97059     177.8003     354.9661      1.812     3.68     1153.311     62.56233      864.699        42     1.495     1.350  77.52   0
       114    644.4557    848.1753 307.6430862  +6.3351891      1185.48     1590.062     1605.519     88.54726     177.5183     354.7191      1.446     3.67     1146.619     62.56233     157.9926        11     1.043     0.723 -36.66   0
       115    344.1547    846.1544 307.7679354  +6.3259829     10978.37     18619.76     19473.83     88.97059     177.5183     354.9308      1.805     3.79     1154.856     62.56233     1380.624        44     1.490     1.333  78.79   0
       116    662.3152    842.3911 307.6358598  +6.3381736     3363.076     5513.199     6082.011     88.54726     177.1652     354.7544      1.800     4.12     1145.239     62.56233     420.1595        30     1.527     1.181  76.00   0
       117    894.9111    841.2441 307.5392463  +6.3464023     5615.367     7872.658     8300.672     88.97059     177.4478     354.9661      1.493     2.93     1139.859     62.56233     872.5665        26     1.170     1.094  72.95   0
       118    734.3406    838.7571 307.6060531  +6.3420775      838.665     1143.284     1276.636      88.8297     177.5183     355.0367      1.542     5.49     1143.275     62.56233     118.4066         7     1.151     0.738  50.72   0
       119    637.3609    836.3798 307.6464315  +6.3398227     3258.034     5046.451     5521.642     88.54726     177.3065     354.6484      1.692     3.38     1146.128     62.56233     399.8562        26     1.302     1.120 -88.67   0
       120    825.9033    835.5840 307.5681120  +6.3464405     1704.395      2318.31      1802.29      88.8297     177.3065     354.7544      1.408     3.35     1141.706     62.56233     285.9701        15     1.148     0.884  72.56   0
       121    629.6389    832.2507 307.6497793  +6.3412698     1789.869     4075.324     5434.066     88.68859     177.5183     354.8955      2.549     8.17     1146.203     62.56233     304.6583        29     2.474     0.992 -62.57   0
       122    952.8047    834.4506 307.5154170  +6.3511348     773.6821     1218.374     1306.211      88.2639     177.3065     354.5071      1.627     4.45      1136.31     62.56233     133.9938         6     0.946     0.596  69.31   0
       123    913.7246    828.9750 307.5318405  +6.3520949     3526.752     5041.922     4621.852     88.54726     177.3065     354.8955      1.482     3.04     1138.269     62.56233     556.2445        21     1.167     1.002 -64.29   0
       124    324.0476    830.0156 307.7768353  +6.3319733     943.2333     1705.139     2075.293     88.40569     177.4478     354.6484      1.985     4.78     1154.792     62.56233     151.8755        12     1.279     0.779 -82.29   0
       125    372.2068    825.1321 307.7569892  +6.3356023     2370.961     3946.693     4325.586     88.40569     177.2359     354.7544      1.731     3.89      1153.49     62.56233     361.6147        22     1.267     1.148  72.52   0
       126    508.2421    814.8042 307.7008115  +6.3444176     2779.584     4372.926     4847.947      88.2639     177.1652     354.6484      1.701     3.64     1149.028     62.56233      369.942        22     1.285     1.040  66.66   0
       127    853.0732    813.7227 307.5575564  +6.3563727     996.3559     1348.925     2161.943      89.2517     177.8003     354.9661      1.539     4.41     1139.435     62.56233     133.3381        11     1.047     0.718 -74.16   0
       128    555.0645    810.9397 307.6814855  +6.3475783     5400.101     8906.517     9820.694     88.97059     177.4478     354.9661      1.773     3.92      1147.82     62.56233     591.8607        32     1.481     1.188  88.23   0
       129    573.5858    813.1880 307.6737135  +6.3472688     850.0947     1149.141     544.1146      88.8297     177.1652     354.8603      1.556     5.94     1147.209     62.56233     114.7119         9     1.066     0.932   9.58   0
       130    561.8467    810.2689 307.6786899  +6.3480819     1208.619     1951.956     2304.108     88.97059     177.4478     354.9308      1.787     5.22     1147.489     62.56233     161.1293        10     1.066     0.722 -77.05   0
       131    473.1542    809.9017 307.7155570  +6.3452687     1345.359     2344.583     2077.546     88.97059     177.3772     355.1425      1.730     4.90      1149.41     62.56233     162.0325        16     1.333     0.861  35.31   0
       132    267.6268    810.9696 307.8009227  +6.3379473     603.5837     1000.303     1288.422     88.40569     177.2359     354.7544      1.755     4.54     1155.136     62.56233     92.67651         6     0.900     0.651  55.91   0
       133    114.8386    809.3979 307.8644614  +6.3334723     1208.297     2198.613     2273.991     87.97964     177.2359     354.6837      1.915     4.84     1154.568     62.56233     161.7024        17     1.257     1.081 -66.95   0
       134    890.7961    808.9687 307.5420404  +6.3595923     1407.343     2031.765     2513.617     88.40569     177.3772     354.6837      1.323     3.51     1137.725     62.56233     203.2247        11     1.013     0.760 -89.88   0
       135    690.7354    807.8538 307.6252128  +6.3533830     836.7352     1275.865     1273.292     88.97059     177.4478     354.8955      1.578     4.44     1142.118     62.56233     114.8706         7     0.922     0.608 -63.78   0
       136    525.7639    804.8604 307.6938659  +6.3491093     17489.98     29541.18     31122.09     88.97059     177.5183     354.8955      1.810     3.69     1148.149     62.56233     1986.613        54     1.542     1.375  84.79   0
       137    366.6900    806.5300 307.7599097  +6.3430985      577.688     1121.303     1504.005      88.8297     177.8004     354.9308      1.671     3.46      1153.11     62.56233     100.8737         5     1.059     0.326 -22.03   0
       138    939.3238    803.1996 307.5220683  +6.3635902     4002.485     5937.819     5853.646     88.12189     176.8114     354.6837      1.542     3.25     1135.149     62.56233     587.1063        25     1.308     1.019  80.18   0
       139    252.1572    798.4471 307.8077739  +6.3425994     361.1742     507.1617     2152.557     88.97059     177.4478      354.825      1.073     4.54      1154.92     62.56233     87.88843         5     1.192     0.491  55.30   0
       140     36.5218    795.5914 307.8974701  +6.3365435     1414.082     2308.748     2326.634     88.54726      176.953     354.7191      1.684     4.72     1154.369     62.56233     172.4387        16     1.300     0.967 -65.98   0
       141    318.5779    793.6427 307.7803368  +6.3468086     2930.886     4933.805     4391.069     88.40569     177.3772     354.7544      1.803     4.05     1153.948     62.56233     373.6503        28     1.339     1.242 -25.65   0
       142     18.4196    791.8154 307.9051196  +6.3374945     2050.635     3507.345      3363.82     88.68859     177.2359      354.825      1.839     4.52     1154.345     62.56233     281.0377        18     1.285     0.966  83.21   0
       143    783.8522    789.3094 307.5871421  +6.3641463     53744.82      82174.8      86047.8     88.97059     177.3065      355.072      1.643     3.15     1139.621     62.56233      7191.66        69     1.462     1.333  89.09   0
       144    240.5975    766.0026 307.8136742  +6.3556083     763049.1      2077723      2331715      88.2639     177.0238     354.6484      2.475     5.49     1153.927     62.56233     63468.65       587     2.740     2.095  87.87   4
       145    427.5352    787.9793 307.7352528  +6.3527946     794.7886      1423.67      1314.02     88.54726     177.5183     354.7897      1.939     5.35     1149.932     62.56233     93.86121         8     1.118     0.723   1.23   0
       146    909.2135    784.5641 307.5352067  +6.3702827     8961.656     12775.78     14062.11     88.40569     177.3065     354.6837      1.557     2.92     1135.427     62.56233     1273.906        33     1.261     1.156  87.60   0
       147    712.1647    783.9164 307.6171135  +6.3639821     19574.37     32368.31     34585.58     88.97059     177.5183     354.8955      1.766     3.44     1140.633     62.56233     2387.238        49     1.519     1.337  69.21   3
       148    705.8070    780.4156 307.6198733  +6.3652155     81060.28     130885.8     139351.3     88.54726     177.2359     354.7544      1.768     3.49      1140.57     62.56233     9995.215        85     1.579     1.389 -85.55   3
       149    350.7938    781.3951 307.7673639  +6.3529446     17184.44     30343.23     32098.38      88.2639     177.2359     354.7544      1.885     4.01     1152.008     62.56233     2045.644        56     1.576     1.451  89.97   0
       150    412.6401    779.2732 307.7417362  +6.3558910     19091.25     33232.37      35191.5      88.8297     177.5889     355.0014      1.873     3.95     1150.031     62.56233     2175.603        58     1.582     1.422 -89.54   0
       151    400.3310    781.8099 307.7467654  +6.3544316     1222.878     2137.982     2363.192     88.40569     177.3065     354.7544      1.907     6.18     1150.586     62.56233     158.4064        14     1.243     0.885 -89.19   0
       152    639.3454    780.9561 307.6474733  +6.3627740     836.7454     1235.821     1311.491     88.97059     177.5183     354.9308      1.475     5.35     1142.618     62.56233     104.2029        10     1.262     0.639  37.90   0
       153    949.6672    777.9987 307.5186161  +6.3743404     2220.896     3242.283     3214.084     88.40569     177.0238     354.6837      1.526     3.21     1132.947     62.56233     335.5931        16     1.118     0.879  82.69   0
       154    905.9842    775.9907 307.5368366  +6.3737152     6920.585     10001.83     10815.51     88.68859     177.2359      354.825      1.500     3.05     1134.949     62.56233     1023.059        27     1.218     1.081 -73.90   0
       155    646.6974    775.0980 307.6446155  +6.3654384     5803.188     9678.787     10444.26     88.97059     178.0819     354.7544      1.807     3.79     1142.075     62.56233     625.2195        35     1.499     1.217  81.80   0
       156    878.5593    776.9464 307.5482013  +6.3724073     805.4448     1054.534     1240.607      88.8297     177.5183     354.9661      1.333     3.76     1136.091     62.56233      158.059         6     0.853     0.476 -78.45   0
       157    435.6445    773.2259 307.7323810  +6.3591577     1324.831     2227.195      2252.54     88.40569     177.5889     354.7897      1.743     5.62     1148.768     62.56233     170.0961        16     1.281     1.094 -87.85   0
       158    161.4137    771.6987 307.8463845  +6.3506010     537.7069     917.2303     796.2089      88.8297     177.2359     354.6484      1.446     3.47     1153.846     62.56233     102.9142         5     1.011     0.343  68.21   0
       159    874.7409    767.0614 307.5501202  +6.3763617     833.8945     1200.492     951.2682     88.97059     177.4478     354.9661      1.728     6.02      1135.63     62.56233      128.489         8     1.191     0.856 -53.71   0
       160    126.1603    765.9971 307.8612261  +6.3517723     981.6439     1810.798     1725.155     87.97964     177.2359     354.6131      1.973     5.81     1153.605     62.56233     136.5455         9     1.174     0.811  77.67   0
       161    681.9083    765.1864 307.6303171  +6.3707063      2068.83     3329.437     3897.787     88.68859     177.2359     354.6837      1.823     3.77     1140.639     62.56233     253.1824        20     1.210     1.073  78.36   0
       162    415.5684    761.9447 307.7411042  +6.3631440     44563.69     79004.27     84348.27      88.8297     177.5889     354.8955      1.912     4.03     1149.034     62.56233     4898.016        77     1.640     1.506  87.30   0
       163    958.3696    763.6828 307.5154803  +6.3805414     869.8966     1290.891     1914.433      88.8297     177.3065     354.8603      1.823     3.50      1131.81     62.56233     136.2626         7     0.929     0.532 -35.32   0
       164    533.2138    760.8914 307.6922525  +6.3675134     5829.826     10232.77     10936.09     88.68859     177.2359     354.6837      1.865     4.13     1145.104     62.56233     621.3156        35     1.491     1.277  83.18   0
       165    450.1639    759.6373 307.7268061  +6.3652542      3698.31     6540.104      8129.92     88.68859     177.3772     354.6837      2.011     4.38     1147.418     62.56233     448.4364        28     1.408     1.244  80.56   1
       166    778.4120    757.5070 307.5904723  +6.3770966     11178.81     17229.73      18054.1     88.68859     177.2359     354.7191      1.721     3.37     1137.411     62.56233     1312.639        43     1.424     1.285  84.35   0
       167      8.1136    754.1855 307.9106770  +6.3526853      1116.89     1806.226     2303.528     88.54726     177.2359     353.6582      1.731     5.43     1154.038     62.56233     154.3197        12     1.375     0.781  72.60  16
       168    446.7574    753.0788 307.7284430  +6.3678483     1967.033     3660.775     4377.024      88.8297     177.5183     354.9661      2.062     4.35     1147.157     62.56233     243.6107        21     1.243     1.148  81.42   0
       169    800.2736    751.6014 307.5815860  +6.3802639     1246.811     1933.472     1775.595     88.40569     176.8822     354.7897      1.615     3.69     1136.365     62.56233      177.147        15     1.106     0.938  54.72   0
       170    128.8271    740.2431 307.8609897  +6.3624955     1552.923     2549.797      3182.53     88.54726     177.5889      354.825      1.850     4.76     1152.899     62.56233     171.6073        16     1.197     0.948  55.74   3
       171    136.4153    749.6357 307.8575187  +6.3588719     9836.955     17424.96     19398.79     88.54726     177.3065     354.7191      1.927     4.25     1153.178     62.56233     1183.289        48     1.569     1.433  69.46   3
       172    128.6641    746.9243 307.8608313  +6.3597314     2579.753     4593.311     5533.925      89.2517     177.5183     354.8955      2.142     5.43      1153.09     62.56233     290.9219        29     1.656     1.231  72.55   3
       173    144.5052    749.7485 307.8541533  +6.3590968     2486.208     4341.082     4914.562      88.8297     177.4478      355.213      1.901     4.74     1153.186     62.56233     311.5901        27     1.460     1.236  69.13   0
       174    923.9897    745.9662 307.5303625  +6.3867124     6623.221     9829.446     10537.97     88.40569     177.3065     354.7544      1.523     2.97     1132.173     62.56233     1021.939        33     1.349     1.100  82.10   0
       175    973.0674    745.9035 307.5099691  +6.3883719     1617.493     2577.229     3225.162     88.97059     177.5889     354.9661      1.653     4.03     1130.423     62.56233     272.1754        18     1.301     1.017  64.42   0
       176    679.7524    743.5286 307.6319421  +6.3795772     1500.873      2396.59     2747.979     88.97059     177.5183     354.9308      1.859     4.73     1140.076     62.56233     185.5366        14     1.146     0.867 -69.48   0
       177    566.6390    743.0798 307.6789629  +6.3759851     2026.344     3496.571     3129.672      88.8297     177.5889     354.8955      1.828     4.46     1142.869     62.56233     238.8842        22     1.247     1.235  45.86   0
       178    414.5528    742.6494 307.7421775  +6.3710771      1104.49     2024.749     2284.118     88.97059     177.3772     354.9661      2.076     6.26     1148.034     62.56233     151.1022        14     1.372     0.802  89.40   0
       179    918.1526    737.9727 307.5330567  +6.3898188     3045.658     4737.838     4882.779     88.54726     177.5889     354.8603      1.594     3.35     1131.895     62.56233     448.5913        23     1.284     1.046 -87.26   0
       180    947.7061    737.2991 307.5207976  +6.3910808     3202.212     4642.876     4774.542     88.97059     178.0819     354.7544      1.525     3.15     1130.795     62.56233     453.8774        22     1.298     0.970 -83.75   0
       181    670.3934    737.4213 307.6360371  +6.3817865     1187.038     2000.638     2014.245     88.54726     177.3065     354.7191      1.750     4.77     1140.246     62.56233     154.8431        18     1.304     1.042 -38.81   0
       182    978.4074    737.1544 307.5080436  +6.3921623     1964.552     2677.011     2988.952     88.40569     177.3065     354.5424      1.482     3.04     1129.948     62.56233     294.3921        17     1.077     0.932 -85.17   0
       183    817.6602    735.6268 307.5748977  +6.3874396     1060.845     1269.761     1242.162     88.54726     177.5889     354.7897      1.439     4.40     1134.845     62.56233     154.0015        12     1.097     0.813 -76.79   0
       184    892.9890    733.3587 307.5436692  +6.3908860     930.6844     1397.668     1556.183      88.2639     177.3065     354.6484      1.700     6.38     1132.805     62.56233     126.9307        10     1.374     0.831 -53.75   0
       185    243.2604    732.5523 307.8136986  +6.3695091     1418.838     2785.327     3865.307     88.97059     177.4478     355.0014      2.528     5.27     1152.716     62.56233     198.6527        17     1.368     1.004 -58.87   0
       186    936.1808    727.6874 307.5259100  +6.3946659     1164.058     1546.383     1654.435     88.68859     177.2359     354.7897      1.508     4.35     1130.862     62.56233     135.3195        12     0.990     0.868 -85.34   0
       187    263.4190    727.8449 307.8054810  +6.3721285     703.9647     1206.318     1246.545     88.54726     177.3772     354.6837      1.561     3.48     1152.286     62.56233     101.2708         5     0.788     0.445 -70.77   0
       188    962.4319    725.1977 307.5150841  +6.3965678     2690.333     3970.201     4746.023      88.2639     177.3065     354.6837      1.581     3.22     1129.954     62.56233     361.8246        20     1.184     0.953 -82.37   0
       189    909.7493    726.4108 307.5369373  +6.3943130     1202.961     1695.008     1641.706      88.2639     177.3772     354.6131      1.739     3.29     1131.823     62.56233     191.8586        11     1.010     0.752  67.54   0
       190    682.2664    724.3525 307.6315430  +6.3875791     743.5756     1110.783     1616.441     88.97059     177.4478     354.9308      1.915     5.03     1138.934     62.56233     84.86743         8     1.067     0.671 -38.47   0
       191   1004.3809    718.6527 307.4978705  +6.4006662     1879.968     2478.508      2506.98     88.40569     177.5889     354.7191      1.355     2.85     1128.341     62.56233     287.8229        15     1.021     0.881  86.44   0
       192    805.5395    716.9501 307.5805628  +6.3947475     1164.909     1847.063     2107.188     88.97059     177.4478     355.0014      1.754     4.87     1134.218     62.56233     157.2959        12     1.101     0.876  13.04   0
       193    891.7599    713.9871 307.5448308  +6.3988439     1367.351     2333.208     2362.757     88.40569     177.3065     354.6484      1.820     4.97     1132.127     62.56233     205.5438        16     1.272     1.042  51.54   0
       194    866.4234    709.3580 307.5555158  +6.3999113     1025.979     1529.502     1723.111     88.54726     177.3772     354.6837      1.725     3.13     1132.918     62.56233     139.3329         9     0.870     0.749  85.07   0
       195    848.6976    705.7397 307.5630039  +6.4008148     1448.472     2013.374     2475.905     88.68859     177.5183      355.072      1.577     3.89     1133.074     62.56233     211.0387        14     1.119     0.883  61.89   0
       196     48.1242    705.1937 307.8957115  +6.3742577      2142.84      3632.93     3443.154     88.54726      176.953     354.7544      1.734     4.17      1151.47     62.56233     295.8514        25     1.320     1.226  84.19   0
       197    112.1199    703.9534 307.8691607  +6.3769186     853.5809     1570.661     1803.875     88.97059     177.5183     354.9308      2.123     5.84     1151.199     62.56233      114.993         9     1.230     0.782  33.43   0
       198    660.5855    693.3392 307.6415973  +6.3996612     5288.948      9221.55     9923.398     88.40569     177.4478     354.6484      1.881     4.14     1137.427     62.56233     544.3164        36     1.464     1.300 -87.30   0
       199    607.4954    692.5791 307.6636861  +6.3982022      1186.74     2138.532      2103.74      88.8297     177.3065     354.7191      1.947     5.39     1138.308     62.56233     132.4424        15     1.297     0.945  82.27   0
       200    123.6373    689.4990 307.8648641  +6.3832733     2883.415     5462.421     5176.188     88.97059     177.3772     355.1778      1.995     5.17     1150.554     62.56233     345.2338        31     1.590     1.331  68.39   0
       201    634.3492    688.8526 307.6526517  +6.4006378     1722.783     2837.087     2852.684     89.11125     177.3772     354.9661      1.778     5.10     1137.588     62.56233     201.0862        18     1.259     1.074  76.39   0
       202    997.5607    688.5983 307.5017135  +6.4128493      2765.03     3945.807     4232.296     87.97964     177.2359     354.6131      1.517     3.02     1127.133     62.56233     367.4171        18     1.096     0.953  84.86   0
       203    777.4643    685.4401 307.5932901  +6.4068224     18534.49     29723.01     31096.75     88.97059     177.4478     355.0014      1.773     3.71     1133.627     62.56233      2083.46        50     1.485     1.322 -86.17   0
       204    907.5457    685.1646 307.5392387  +6.4112709     3697.431     5539.894     5951.006      88.8297     177.5183     354.9661      1.651     3.44     1130.523     62.56233     475.0968        22     1.189     1.062  75.22   0
       205    505.1876    685.1760 307.7064523  +6.3978400     758.7954     1183.393     966.1476     88.54726     177.3065     354.8603      1.670     4.53     1140.968     62.56233     124.3257         6     0.935     0.623  77.98   0
       206    476.5846    685.6564 307.7183228  +6.3966851     1108.678      1999.41     1860.432      88.2639     177.4478     354.6131      1.874     6.32      1141.86     62.56233      124.309        14     1.180     0.952 -31.52   0
       207    251.0903    679.2842 307.8122460  +6.3917659     4803.916     9178.433     9858.472     88.68859     177.8708      355.072      2.011     4.69     1148.214     62.56233     592.0337        35     1.544     1.326 -81.92   0
       208    657.9692    678.2712 307.6431920  +6.4057956     5903.946     10306.81     11189.78      88.8297     177.5183     354.8603      1.888     4.09     1136.474     62.56233     639.9614        36     1.434     1.332 -64.57   0
       209    640.2383    679.2174 307.6505289  +6.4048129     929.6316     1596.997     1626.928     88.54726     177.3772     354.6484      1.881     5.35     1136.836     62.56233     148.7563        10     1.139     0.708   8.38   0
       210    353.6618    678.1779 307.7696583  +6.3956593     593.5425     805.9214     878.5186     88.54726     177.5183      354.825      1.393     5.27     1147.073     62.56233     91.22681         6     1.118     0.701 -78.66   0
       211    917.5667    670.9863 307.5355502  +6.4174591     1245.025     1712.445     1343.701     88.54726     177.2359      354.825      1.482     4.35     1129.703     62.56233     156.3434        12     1.131     0.807 -81.85   0
       212    729.7397    666.7123 307.6137541  +6.4129636     3091.229     5569.396     6781.157     88.97059     177.7299     355.0367      1.996     4.16     1133.912     62.56233     347.2084        29     1.429     1.220 -85.04   0
       213    995.9716    663.2305 307.5032254  +6.4232713     9437.057     13691.27     14297.35     88.40569     177.2359     354.6837      1.489     2.78     1125.856     62.56233     1483.833        33     1.331     1.095  87.94   0
       214    685.3449    666.2261 307.6322206  +6.4116830     730.7455     1299.709     842.0774     88.54726     177.5889     354.7544      1.656     5.00     1135.081     62.56233     95.84204         7     1.263     0.560  23.86   0
       215    934.3448    663.6761 307.5288228  +6.4210362     2497.776     3771.813     4159.403     88.97059     177.5183     354.8603      1.659     3.61     1128.661     62.56233     345.7618        20     1.259     0.976  83.17   0
       216     15.5630    663.0636 307.9106696  +6.3905590     1468.079     2871.613     3674.145      88.8297     177.5183     354.9308      2.366     5.80     1149.618     62.56233      222.196        21     1.563     0.978  37.37   0
       217     73.4916    658.3300 307.8867577  +6.3944593     20888.42     37956.41     40604.32     88.97059     177.6594     354.9661      1.957     4.27     1149.183     62.56233     2417.197        62     1.664     1.481  77.41   0
       218    534.6586    659.0587 307.6950855  +6.4096093     1436.681     2703.434     3202.613     88.97059     177.5183     354.9661      2.035     5.82     1138.789     62.56233     166.3643        20     1.375     1.121 -62.36   0
       219    503.3571    656.2192 307.7081897  +6.4097353     993.5032      2035.63     2450.577     88.40569     177.3772     354.6837      2.223     6.35     1139.623     62.56233     126.3535        13     1.258     0.901  60.38   0
       220    924.4857    655.2723 307.5332025  +6.4241780     1065.614     1602.102     1362.084     89.11126     177.8004     354.9661      1.677     3.78     1128.422     62.56233     170.4944         9     1.040     0.680 -47.33   0
       221    719.4469    650.3994 307.6185808  +6.4193561     3027.531     4975.159      4766.86      88.2639     177.1652     354.4365      1.771     3.69     1132.919     62.56233     373.6945        24     1.225     1.171 -85.61   0
       222    573.0138    646.4282 307.6795714  +6.4161064     2510.677     4564.732     5037.377     88.54726     177.2359      354.825      2.054     4.75     1136.892     62.56233     299.8375        24     1.352     1.184  86.57   0
       223    409.1247    647.0827 307.7476594  +6.4103554     1038.518     1851.525     1531.735     89.11125     177.8708     355.0014      1.831     6.40     1142.276     62.56233     115.7866        14     1.254     0.917 -69.50   0
       224   1014.1691    644.6698 307.4962853  +6.4315408     5465.375     8081.646     8349.323      88.8297     177.5183     354.8955      1.559     2.98     1123.997     62.56233     776.0756        28     1.258     1.078 -72.77   0
       225    979.6237    643.5265 307.5106812  +6.4308635     8216.513     12069.73     12679.76     88.54726     177.3065     354.8603      1.595     2.95     1125.344     62.56233      1075.54        34     1.288     1.152 -84.25   0
       226    233.8884    645.3191 307.8205430  +6.4052134     1284.049     2585.682     3703.414     88.68859     177.7299     355.0367      2.512     6.16     1146.762     62.56233     154.4308        21     1.333     1.236 -15.85   0
       227    317.2088    645.1144 307.7859242  +6.4080904      978.658     1507.923     1652.599     88.54726     177.1652     354.7544      1.814     4.90     1145.188     62.56233     129.9371        10     1.027     0.950 -46.97   0
       228    741.4525    648.5759 307.6094967  +6.4208431     3569.826     5990.044     6075.667     88.40569     177.5183      354.825      1.794     4.06     1132.215     62.56233     395.3242        29     1.364     1.227 -78.52   0
       229    138.2608    637.2313 307.8605565  +6.4053452     18269.09     34824.29     36844.86     88.68859     177.5889     354.8603      2.018     4.43     1148.211     62.56233      2238.86        63     1.711     1.499 -87.44   0
       230     91.8221    640.8680 307.8797317  +6.4022848     703.0768     1281.582     2025.662     88.54726     177.4478     354.8955      2.318     4.62      1148.45     62.56233     97.77344         6     0.948     0.638 -69.81   0
       231    425.1369    637.9507 307.7413133  +6.4146619     2004.802     4368.753     5371.517      88.8297     177.4478     355.0014      2.354     5.96     1141.081     62.56233     225.8029        27     1.557     1.298 -55.63   0
       232    806.5062    637.0735 307.5828471  +6.4277620     1033.325     1629.249     1582.907      88.8297     177.6594     354.9308      1.530     6.64     1130.347     62.56233     135.3463        14     1.198     1.062 -12.96   0
       233    974.5543    626.5299 307.5133587  +6.4377130     7023.328     10953.92     12026.15     88.97059     177.4478     354.9308      1.761     3.34     1124.449     62.56233     889.7898        37     1.540     1.161  54.71   0
       234     20.0116    625.2803 307.9101015  +6.4063089     728.4656      1473.48     1241.734     88.54726     177.1652     354.7544      2.050     5.45      1149.84     62.56233     112.4633         8     1.368     0.613  60.64   2
       235    932.9269    623.7557 307.5307529  +6.4374729     569.9023      926.549      936.481      88.8297     177.5889     354.9661      1.725     4.32      1125.87     62.56233     85.13367         5     1.051     0.505  36.77   0
       236    175.8969    618.8091 307.8455396  +6.4142145     2069.418     4207.182     5243.848     88.68859     177.0945     354.7191      2.207     5.38     1146.974     62.56233     236.4773        29     1.641     1.214  69.72   0
       237    568.1326    621.9357 307.6824256  +6.4260565     37118.24     70271.02     75310.52     88.97059     177.5183     354.9661      2.007     4.36     1135.968     62.56233     3757.396        75     1.699     1.534 -86.49   0
       238     68.8201    612.4152 307.8902543  +6.4132603      1015.33     1700.044     1686.413     88.54726     177.1652      354.825      1.732     5.49     1148.254     62.56233     136.5972        11     1.260     0.811  58.40   0
       239    465.4489    605.7802 307.7256457  +6.4292941     46184.15     91223.27     97704.77     88.40569     177.5889     354.7191      2.058     4.56     1138.467     62.56233     4719.459        81     1.724     1.592 -85.71   0
       240    140.3037    600.8757 307.8609383  +6.4204248     1212.527     2293.081     1686.051     88.54726     177.6594     355.0014      1.869     6.56     1146.573     62.56233     126.6344        17     1.458     1.003  69.58   0
       241    610.6752    595.9974 307.6656189  +6.4381880     637.7022      1359.04     1644.025     88.40569      176.953      354.825      2.407     5.84     1133.049     62.56233     87.21777         8     1.490     0.645 -32.56   0
       242    310.8969    595.2665 307.7902319  +6.4284611     1771.404     3544.468     4478.702     88.97059     177.5889     354.9661      2.253     5.71     1141.753     62.56233      223.114        24     1.340     1.320 -81.40   0
       243      9.2084    607.5985 307.9151902  +6.4132465     1230.688     2205.206      2272.78      88.2639     177.1652     354.6837      1.855     6.12      1150.28     62.56233     197.6803        16     1.178     1.066 -62.28   0
       244    737.4933    589.2933 307.6131372  +6.4451896      4515.19     7823.435     8452.431     88.97059     178.0819     354.8955      1.851     4.30     1128.812     62.56233     509.1787        31     1.471     1.228 -81.89   0
       245    790.9608    584.4575 307.5910777  +6.4489696     11928.92     20087.37     21006.29     88.97059     177.5889     354.9308      1.808     3.80     1127.611     62.56233     1355.775        46     1.482     1.344 -76.99   0
       246   1007.9050    584.7303 307.5009005  +6.4560825     1013.275     1414.481     1374.874      88.8297     177.5889     354.9661      1.473     4.80      1120.55     62.56233     173.8438        10     1.172     0.736  72.94   0
       247    533.3431    584.6382 307.6981418  +6.4402941     993.3665     1998.017     2566.667     88.97059     177.5889     354.9308      2.302     6.86      1135.18     62.56233     107.2816        14     1.320     0.999  69.45   0
       248    615.0281    582.5652 307.6642624  +6.4438797     2238.151      4003.45     4270.777     88.40569     177.2359     354.6837      1.906     5.04     1132.379     62.56233     229.7604        27     1.463     1.221 -70.20   0
       249    931.9597    578.4199 307.5326777  +6.4561606     928.6122     1574.371     1916.625     88.54726     177.3065     354.6484      1.914     4.04     1122.851     62.56233     129.5564         9     1.045     0.699  62.61   0
       250    227.6814    576.7630 307.8254413  +6.4333120     942.0444     1749.072     1399.704     88.97059     177.5889     354.8955      1.875     6.75     1143.179     62.56233     123.9604        13     1.593     0.802  87.00   0
       251    373.9434    576.1431 307.7646761  +6.4384689     664.2707     1118.863     1282.765     89.11125     177.5183     355.0014      1.559     3.89       1139.2     62.56233     87.53955         6     0.931     0.466  35.61   0
       252    867.0527    567.9128 307.5600082  +6.4583373     2453.222     4045.216     3978.217     88.97059     177.3772      355.072      1.706     3.75     1125.466     62.56233     282.0924        23     1.254     1.118  65.86   0
       253    825.6456    565.1598 307.5773108  +6.4580942     2353.265     4059.828     4570.427      88.8297     177.5183     354.7544      1.866     3.67      1125.95     62.56233     282.4524        20     1.162     1.075  79.80   0
       254    796.6553    561.0554 307.5894981  +6.4588226     2173.835     3820.291     4585.742      89.2517     177.5183     354.9308      1.975     4.13     1126.257     62.56233     261.9313        23     1.247     1.230  -0.64   0
       255    806.3530    556.3301 307.5856264  +6.4610970     135045.5     231140.6       246090     88.97059     177.4478     354.9308      1.855     3.92     1125.744     62.56233     14975.28       123     1.690     1.519 -89.19   0
       256    253.8769    560.2528 307.8151130  +6.4410073     5393.413     10494.08     10518.58     89.11125     177.5183     354.9308      2.015     4.92     1140.957     62.56233     609.6393        39     1.530     1.422  81.35   0
       257    188.1042    554.8202 307.8426318  +6.4410448     40965.38     84606.85     93333.63      88.8297     177.3065     354.7191      2.147     4.83     1143.227     62.56233     4788.733        92     1.813     1.681  88.99   0
       258    112.1417    551.2023 307.8743240  +6.4399894     4619.858     9090.906     10143.95      88.2639     177.2359     354.6484      2.093     4.59     1145.553     62.56233     554.1152        41     1.659     1.443 -75.68   0
       259    977.4156    548.1702 307.5148005  +6.4701644     1405.237     2203.759     2210.084     88.54726     177.2359     354.8603      1.674     4.68       1119.3     62.56233     169.3918        15     1.149     0.963 -16.92   0
       260    998.1420    547.1981 307.5062183  +6.4712555     789.0829     1314.482     1073.774      88.2639     177.1652     354.6484      1.555     2.91     1118.478     62.56233     138.0223         6     0.768     0.526  36.44   0
       261    842.8689    543.6447 307.5708756  +6.4675522     3933.919     6400.483     6931.562     88.97059     177.4478     354.9661      1.728     4.09     1124.259     62.56233     435.7032        28     1.378     1.178 -89.91   0
       262    361.4576    541.9358 307.7710208  +6.4521751     11898.96     24442.42     26452.58     89.11125     177.4478     354.9661      2.124     4.88     1137.886     62.56233     1309.761        57     1.747     1.537  86.55   0
       263    163.4460    540.7835 307.8533548  +6.4460132      1513.73     2960.909     3500.856     88.40569     177.3772     354.6837      2.001     5.62     1143.665     62.56233     166.6882        17     1.165     1.092  -6.29   0
       264    796.9053    536.9897 307.5902037  +6.4687679     4997.514     8688.061     9738.381     88.54726     177.0945     354.6837      1.876     4.00     1124.951     62.56233      537.375        36     1.473     1.268 -84.99   0
       265    527.8124    536.7560 307.7020553  +6.4598801     4817.534     9381.193     9851.431     88.40569     177.3772     354.6484      2.017     4.81     1132.156     62.56233     473.9642        35     1.492     1.364  83.30   0
       266    238.8734    539.0336 307.8220661  +6.4492657     790.1964     1489.282     1474.467      88.8297     177.4478     354.9308      2.015     3.99     1139.961     62.56233      112.746         5     0.846     0.537  32.57   0
       267    100.9277    537.9847 307.8794321  +6.4450703     626.1702     1297.093     1462.637     88.40569     177.3772      354.825      1.909     5.65     1145.367     62.56233     114.9409         6     1.210     0.744  88.09   0
       268    386.2542    533.3510 307.7610049  +6.4565501     1019.473     1847.508     1768.617     88.97059     177.5183     355.0014      1.936     6.32     1135.723     62.56233     117.7043        13     1.134     1.080  14.03   0
       269    572.3983    529.8799 307.6837561  +6.4642097     1693.006     3741.259     3388.716      88.2639     176.8822     354.6837      2.209     6.36      1130.88     62.56233     189.4712        31     1.668     1.382 -67.05   0
       270    174.9035    530.1141 307.8489541  +6.4508030      4993.44     10015.24     10665.15     88.97059     177.9412     355.0014      2.100     4.85     1142.342     62.56233     554.7595        39     1.620     1.404  87.48   0
       271    270.0690    526.4741 307.8095257  +6.4554974     59576.75     124857.3       136542     89.11125     177.6594     354.9308      2.175     5.08     1138.223     62.56233     6853.667       103     1.867     1.683  79.71   0
       272     46.5279    528.8019 307.9023515  +6.4470348     3919.725     7276.614     7451.243     88.40569     177.0238     354.7544      1.938     4.67     1145.444     62.56233     466.2238        33     1.506     1.315 -88.79   0
       273    813.4977    529.0494 307.5835743  +6.4725998     1065.388     1911.791     2330.452     88.97059     177.4478     355.1072      2.070     6.26     1124.072     62.56233     178.3239        11     1.305     0.922 -36.96   0
       274    559.5386    524.2994 307.6892891  +6.4660841     716.4535      1147.37     1384.967     88.68859     177.3772      355.072      1.671     5.75     1130.671     62.56233     89.31274         8     1.160     0.803  11.70   0
       275    253.9287    521.5162 307.8164015  +6.4570034     1074.426     2214.918     2965.121      89.2517     177.8003     354.9661      2.447     6.46     1138.452     62.56233     148.1322        11     1.371     0.854 -74.05   0
       276    793.0818    518.8038 307.5924047  +6.4761497      13268.1     23458.73     24925.27     88.40569     177.0945     354.6131      1.872     4.07     1124.101     62.56233     1417.093        47     1.513     1.383 -83.45   0
       277    969.3450    520.0208 307.5191002  +6.4815191     1439.726     2126.582     2111.959     88.40569     177.5183     354.7191      1.491     3.70     1118.347     62.56233     195.7126        14     1.092     0.868 -52.15   0
       278    496.7762    517.2475 307.7156130  +6.4668976     28234.23     62359.98     69146.03     88.54726     177.5183     354.7897      2.241     5.04     1131.822     62.56233     2721.829        84     1.801     1.776  67.80   0
       279    209.3747    513.7349 307.8351819  +6.4587222     1226.041     2663.491     3266.918     88.54726     177.5183      354.825      2.277     8.15     1139.599     62.56233     140.0729        21     1.591     1.208 -62.73   0
       280     44.0000    514.0662 307.9039015  +6.4530341     828.5395     1852.825     1802.263     88.12189      176.953     354.6131      2.124     4.75     1144.639     62.56233     121.3361         8     1.402     0.455  74.79   2
       281    656.7136    512.1072 307.6493106  +6.4743646     2219.225     4490.049     4815.112     88.97059     178.0116     355.0367      2.123     5.41     1126.869     62.56233      251.348        29     1.607     1.257  55.94   0
       282    667.0783    512.2015 307.6449994  +6.4746717     973.4889     2093.836     2128.288      88.2639     176.8822     354.6837      2.057     7.26      1126.37     62.56233     121.9731        13     1.509     0.977  18.08   0
       283    718.8406    511.3878 307.6235122  +6.4767354     1004.293     1762.232     1824.632      88.2639     177.3065     354.6837      1.791     3.73     1125.922     62.56233     151.1261         9     0.978     0.864 -19.53   0
       284    394.6061    508.0677 307.7583876  +6.4672692     1138.253     2627.399     2849.125     88.40569     177.0945     354.7191      2.140     8.27     1133.459     62.56233     145.0211        21     1.537     1.243 -56.80   0
       285    326.0070    506.1384 307.7869643  +6.4657685     2620.098     5653.397     5975.242      88.2639     177.3065     354.6484      2.150     5.17     1135.374     62.56233     332.6064        33     1.586     1.361  76.57   0
       286    141.2054    504.8762 307.8638137  +6.4600927     18101.09     36989.24      40266.4     88.54726      176.953     354.7544      2.137     4.78     1142.208     62.56233     2165.158        65     1.795     1.551  81.36   0
       287    506.1093    505.4604 307.7121315  +6.4720766     1396.861     2949.564     3187.307      88.8297     177.5889     355.0014      2.166     6.24     1130.934     62.56233     164.5229        21     1.449     1.130 -68.41   0
       288    868.9347    504.6975 307.5613509  +6.4845026     1306.435     1906.354     2063.549     88.97059     177.5889     354.9661      1.638     4.98     1121.509     62.56233     147.2236        14     1.137     0.936 -70.28   0
       289    106.8330    503.0882 307.8781598  +6.4596771     1926.526     3704.447     3894.524     89.11125     177.4478     354.9308      2.075     5.31     1143.448     62.56233     236.5131        23     1.420     1.233 -76.08   0
       290    966.5941    499.3238 307.5209387  +6.4899737     5028.133     7640.234     7908.315     88.54726      176.953     354.7544      1.658     3.37     1117.551     62.56233     586.6925        30     1.313     1.197 -86.61   0
       291    343.6996    500.2044 307.7798114  +6.4688113     767.9474     1312.211     1584.935     88.68859     177.1652     354.5424      1.657     5.53     1134.247     62.56233     102.7128         8     0.968     0.890  42.20   0
       292    540.1475    491.6406 307.6984501  +6.4789210     957.6058     2007.935      2281.44      88.8297     177.5889     354.9308      2.185     7.95     1128.833     62.56233     116.5538        17     1.638     1.079 -89.90   0
       293      5.4892    489.2677 307.9207472  +6.4619791     19383.31     36662.56     39540.84     89.11126     177.7299     330.8974      2.022     4.47     1143.308     62.56233     2310.775        60     1.724     1.490  83.77  24
       294    438.1169    485.9398 307.7410503  +6.4778623     28402.76     60065.15     65692.71     89.11125     177.5889     354.9661      2.169     5.03     1131.398     62.56233     2838.805        81     1.799     1.666  88.44   0
       295    646.1205    485.5038 307.6546098  +6.4849957     8895.348     17423.33     17975.81     88.68859     177.8003     355.0367      2.027     4.62     1125.855     62.56233     870.9623        48     1.637     1.453 -83.13   0
       296    287.6386    486.2816 307.8035824  +6.4726817     556.1047     932.9962      1116.54     88.97059     177.5889     354.8603      2.217     5.19      1135.32     62.56233     105.4894         6     1.186     0.642 -68.43   0
       297    203.3978    483.6025 307.8386856  +6.4709633     13263.27     28419.59      31177.7      88.2639     177.0238     354.6131      2.190     5.08     1137.972     62.56233     1385.216        63     1.828     1.589  61.81   0
       298    980.2411    484.1291 307.5157764  +6.4967021     1123.385     1901.342     2031.193      88.8297     177.5183     355.0014      1.713     5.73     1116.341     62.56233     160.5156        13     1.344     0.850 -40.68   0
       299    568.0065    482.5565 307.6871770  +6.4836031     1955.065     3804.109     4164.633     88.40569     177.2359     354.5778      2.098     5.57     1127.856     62.56233     209.4694        27     1.499     1.226 -72.08   0
       300    168.8672    484.0695 307.8530214  +6.4696120     1089.108     2420.677     2530.013     88.97059     177.5889     354.9308      2.178     7.42     1139.655     62.56233     173.0052        17     1.359     1.133  11.09   0
       301    820.7160    483.1453 307.5821179  +6.4917949     800.5547     1420.186      1277.57     88.97059     177.5183     355.1072      1.888     6.41     1121.352     62.56233     122.6465         9     1.262     0.913 -33.55   0
       302    908.3793    483.2811 307.5456752  +6.4946597      806.629     1308.348     1560.091     88.68859     177.1652     354.8603      1.672     3.49     1119.207     62.56233     127.2214         6     0.733     0.644 -42.49   0
       303    941.7309    479.4075 307.5319424  +6.4973698     4431.371     6765.195     7064.594     88.40569     177.1652      354.825      1.655     3.57     1117.815     62.56233     522.4022        25     1.283     1.107 -85.60   0
       304    614.9443    477.8461 307.6678262  +6.4871164     4683.439     9323.368     10427.52     88.97059     177.5183     355.0014      2.076     4.86     1126.919     62.56233     457.0563        39     1.573     1.402 -67.48   0
       305    964.3129    471.5524 307.5228197  +6.5013651         3242     5320.251     5432.136     88.97059     177.3772     354.9661      1.783     3.79     1116.431     62.56233     443.7909        25     1.426     1.011 -83.23   0
       306    527.1433    469.1107 307.7046151  +6.4877890     4998.852     10031.03     11323.98      88.8297     177.4478      355.072      2.131     4.83     1127.534     62.56233     502.2808        41     1.594     1.438  80.00   0
       307    373.1544    469.6123 307.7686026  +6.4824293     1648.621     3517.318     3406.781     88.40569     177.3065     354.6131      2.065     7.50     1130.845     62.56233     175.4766        26     1.527     1.254 -73.18   0
       308    883.4911    465.1115 307.5566310  +6.5013332     2748.893     4693.453     5343.545     88.97059     178.0819     355.0367      1.837     4.43     1119.015     62.56233     334.3154        25     1.486     1.069  85.97   0
       309    891.0338    459.2886 307.5536915  +6.5039889     1874.186      3031.77     2942.083     89.11125     177.4478     354.9308      1.685     4.36     1118.429     62.56233     239.5792        18     1.309     1.003  80.90   0
       310    930.4150    458.7503 307.5373400  +6.5055227     1225.766     1843.831     2274.356      88.2639     177.5183     354.6131      1.785     4.82      1117.05     62.56233     171.9739        14     1.195     0.991 -31.21   0
       311    714.9435    455.3799 307.6270177  +6.4997317     2173.178     4048.787     4560.167     88.40569     177.5183     354.7191      1.995     5.00     1122.535     62.56233     233.3021        28     1.485     1.283  80.61   0
       312    385.8870    453.7549 307.7638461  +6.4894032     2342.675     5176.013     5305.661     88.97059     177.3772     354.9308      2.209     5.90     1129.137     62.56233     245.1105        31     1.565     1.397 -52.00   0
       313     77.1376    455.0464 307.8921290  +6.4785160      1263.71     2548.961     2593.834      88.8297     177.3772     354.9661      2.046     6.42      1141.84     62.56233     170.5834        19     1.371     1.293 -69.24   0
       314    613.6490    450.1645 307.6692975  +6.4985031     7095.429     14223.13     15980.01      88.8297     177.5183     354.8603      2.134     4.73     1124.345     62.56233     734.4735        49     1.680     1.495 -76.56   0
       315    296.1616    447.2496 307.8013596  +6.4890836     1654.012     3511.797     3363.685     88.68859     177.5183      354.825      2.063     6.75     1131.685     62.56233     208.3857        30     1.635     1.348  71.04   0
       316    776.5156    446.3764 307.6017274  +6.5055034     12924.23     23404.98     26134.47      88.8297     177.2359     354.8603      2.008     4.47     1120.562     62.56233     1394.749        64     2.018     1.426 -51.25   0
       317    379.5221    444.1921 307.7668147  +6.4931385     1179.361     2411.281     2329.208     88.54726      176.953     354.7191      2.039     7.53     1128.458     62.56233     124.2343        19     1.392     1.142 -57.88   0
       318    805.4064    443.7604 307.5898064  +6.5075470     989.9172     1778.703     1691.547     88.12189     177.1652     354.6484      1.820     6.05      1119.67     62.56233     117.9604        11     1.086     0.947  -4.04   0
       319    961.2866    441.8032 307.5250768  +6.5135483     1771.095     2832.268     2971.559      88.2639     177.0945     354.6131      1.762     3.16     1114.847     62.56233     255.0815        15     1.040     0.918  67.23   0
       320    113.9078    438.9070 307.8773931  +6.4864146     3083.606      6504.04     7046.205     88.97059     178.0819     354.9308      2.161     4.97     1139.994     62.56233      368.709        41     1.691     1.475  71.75   0
       321    751.8670    438.0714 307.6122526  +6.5081105     1740.316     3270.402     3352.013     88.97059     177.6594     354.8955      2.026     4.29     1120.844     62.56233     205.6578        22     1.238     1.159 -59.94   0
       322   1015.4333    436.2069 307.5027570  +6.5176610     3891.536     6493.971     6290.158      88.2639     177.3772     354.7191      1.777     3.96     1112.682     62.56233     486.8105        31     1.491     1.135  38.83  16
       323    271.9993    436.2906 307.8117731  +6.4927987     847.3223      2014.88     2086.975     88.12189      176.953     354.6484      2.341     7.41     1131.822     62.56233     132.6619        13     1.427     1.076 -64.92   0
       324    348.3051    434.6020 307.7801140  +6.4960528     1221.291     1990.433     1908.133     88.40569     177.1652     354.5071      1.724     4.66     1129.075     62.56233     213.6224        10     1.227     0.662  54.73   3
       325    350.6090    432.5623 307.7792253  +6.4969722     1800.614     2769.528     2820.563     88.12189     177.2359     354.6484      1.625     5.08     1128.852     62.56233     266.2435        18     1.368     0.926  42.96   3
       326    705.4417    430.9160 307.6317911  +6.5095160     1114.657     2195.899     2432.863     88.97059     177.4478      354.825      2.101     6.88     1121.366     62.56233     122.8654        16     1.464     1.030  20.03   0
       327    448.3022    425.5335 307.7388562  +6.5031451     542.7468     1041.084     869.7119     88.97059     177.5889     354.9661      1.952     5.03     1124.415     62.56233     99.74695         5     1.389     0.515 -44.45   0
       328    547.4786    423.9525 307.6976858  +6.5071149     635.5083     1330.153     1518.908     88.97059     177.5889     354.8603      2.159     6.29     1122.979     62.56233     78.41296         6     1.162     0.956 -86.87   0
       329    831.5721    421.0550 307.5796937  +6.5177947     1113.895     1903.949     1862.192     88.68859     177.5889     354.7544      1.783     7.02     1118.104     62.56233     124.1862        15     1.502     0.919 -89.29   0
       330    469.5620    422.3569 307.7301266  +6.5051680     879.0959     1607.566     1617.827     88.68859     177.5183     354.7897      1.867     5.11     1123.547     62.56233     107.9492         8     1.214     0.609 -46.29   0
       331    817.2781    420.1499 307.5856658  +6.5176919     1529.731     2669.742      2675.38     88.97059     177.5889     354.9308      1.779     5.72     1118.268     62.56233     191.8671        23     1.486     1.214  84.81   0
       332    714.7889    418.4044 307.6283270  +6.5149941     11210.11     21159.84     22951.59     88.54726     177.1652      354.825      2.013     4.40     1120.485     62.56233     1129.571        53     1.621     1.497  83.98   0
       333    635.8352    414.5045 307.6612773  +6.5139684     1851.488      3666.69     4263.065     89.11126     177.3772     355.0367      2.149     5.33      1121.12     62.56233     231.3831        26     1.399     1.351  16.62   0
       334    608.2139    409.5896 307.6729244  +6.5150752      9609.43     23286.04     29198.96     88.54726     177.1652     354.8603      2.615     6.75     1120.839     62.56233     1004.313        80     2.492     1.641  36.53   0
       335    939.9160    408.2041 307.5350889  +6.5267104     3299.909     5348.292     5711.277     88.40569     177.0945     354.6131      1.695     3.39     1113.534     62.56233     460.4899        28     1.391     1.166  87.96   0
       336    379.1920    404.3379 307.7682983  +6.5095833     18518.85     41261.08     44966.96      88.2639     177.3065     354.7191      2.220     5.35     1125.286     62.56233     1951.244        67     1.781     1.650  88.73   0
       337    895.8433    404.0223 307.5535499  +6.5269693     1285.078      2394.01     2782.924     88.40569     177.3772     354.7191      2.154     6.17      1115.12     62.56233     165.8372        16     1.418     0.946  60.74   0
       338    125.4466    403.8814 307.8737835  +6.5012638     1547.815     3247.945     3270.093     88.97059     177.5183     354.9661      2.066     5.58     1137.651     62.56233     194.2386        24     1.485     1.180 -61.13   0
       339     58.9751    399.5095 307.9015599  +6.5008365     947.1043     2225.738     2133.792     89.11125     177.3065     354.7544      2.266     8.00     1140.365     62.56233     128.4663        16     1.579     1.135  60.59   0
       340    908.8000    398.6120 307.5483458  +6.5296349     4368.958     7086.682     5712.536     88.54726     177.1652     354.7191      1.752     3.75     1114.289     62.56233     502.8866        27     1.350     1.112  87.22   0
       341    236.7955    394.9566 307.8278036  +6.5086850     8744.021     19822.66     21528.55      88.2639     177.1652     354.6131      2.244     5.35     1131.174     62.56233     996.8638        56     1.803     1.607  87.18   0
       342    959.5950    386.6658 307.5276321  +6.5362590     828.0914     1260.198     1465.746     88.40569     177.1652     354.7191      1.613     5.06     1111.396     62.56233     127.3938         7     1.001     0.724  87.44   0
       343    137.1351    383.6949 307.8696089  +6.5099911     3448.905     7236.413     7815.812     88.97059     177.6594     354.9661      2.150     5.09     1135.995     62.56233     387.3774        38     1.635     1.440 -78.94   0
       344    183.0236    385.5191 307.8504735  +6.5107780     670.8259     1385.302     971.5898     88.54726     177.1652      354.825      1.683     4.64     1133.636     62.56233     103.4695         5     1.311     0.467  -8.39   0
       345     73.4768    387.8357 307.8959280  +6.5061437     531.5764     1048.049     1593.649      88.8297     177.5889     354.9661      2.044     4.25      1139.35     62.56233     90.74292         5     0.917     0.561  42.86   0
       346    159.0320    379.5588 307.8606474  +6.5124338     1608.954     3570.532     4061.513     88.54726     177.4478     354.7897      2.232     6.93      1134.67     62.56233     201.1869        26     1.653     1.307  84.82   0
       347    822.4565    380.0135 307.5848634  +6.5344373     529.8465      798.386     987.0656      88.2639     177.3772     354.5778      1.860     4.98     1115.368     62.56233     82.53503         6     1.069     0.658 -34.74   0
       348    554.9133    379.0160 307.6961110  +6.5259180     710.3138     1489.622     1710.094     88.54726     177.2359      354.825      2.364     5.93     1119.327     62.56233     97.79358         8     1.477     0.670 -53.45   0
       349    970.1324    374.4270 307.5236628  +6.5416634     665.1546     1749.553     1897.355     88.54726     177.3772      354.825      2.863     7.74     1109.919     62.56233     148.2666        13     2.146     0.782 -66.68   0
       350    382.4983    374.3257 307.7679380  +6.5220861     1312.633     3061.586      2918.03     88.40569     177.6594     354.8955      2.292     7.84     1123.093     62.56233     174.4626        22     1.593     1.079 -50.93   0
       351    270.6652    375.1078 307.8143968  +6.5180162     654.0146       1189.4     294.6328      88.8297     177.7299     354.9308      1.928     5.54     1128.151     62.56233     109.1168         6     1.448     0.599 -40.51   0
       352     32.8367    368.9250 307.9134609  +6.5125863     2082.012     4158.402     4676.004      88.8297     177.5889     354.9661      2.093     4.80     1140.832     62.56233     305.3466        26     1.469     1.261 -55.46   0
       353    436.4055    367.8008 307.7457506  +6.5265849     4762.884     10618.47     11320.78      88.2639     177.1652     354.7191      2.209     5.38     1120.439     62.56233     472.6256        43     1.711     1.501 -86.26   0
       354    776.9142    364.9931 307.6043004  +6.5391208     9851.291     18318.82     19660.38     88.54726     177.1652     354.6837      1.938     4.32      1115.45     62.56233     1049.657        49     1.603     1.424  84.23   0
       355    769.3063    366.6388 307.6074076  +6.5381876     1644.773     2990.185     3366.372     89.11126     177.4478     355.0367      2.006     4.74     1115.818     62.56233     183.9935        21     1.309     1.125  45.76   1
       356   1020.7213    360.1359 307.5031127  +6.5492479      3543.62       5168.6      5005.98      89.2517     176.8822     315.2744      1.537     3.30     1105.365     62.56233     464.7261        23     1.201     1.044  80.01  16
       357    951.4618    355.7545 307.5320515  +6.5487520     562.5474     745.2126     596.2635      88.8297     177.3772     355.0014      1.458     5.03     1109.919     62.56233     94.95447         6     0.986     0.725  74.71   0
       358    484.5852    351.4729 307.7262744  +6.5349389     2185.778     4561.848     4364.687     88.40569     177.2359      354.825      2.016     5.61     1117.179     62.56233      245.249        29     1.461     1.409  69.73   0
       359    456.9711    352.0361 307.7377341  +6.5337825     1543.198     2802.558     2540.457     88.54726     177.2359     354.7191      1.917     5.86     1118.409     62.56233     176.4557        21     1.344     1.093 -50.95   0
       360    842.2265    347.8716 307.5777261  +6.5483681     27031.96     48938.35     52640.18     88.54726     177.3772     354.8603      1.938     4.10     1112.526     62.56233     3025.049        64     1.674     1.437 -87.04   0
       361    987.6114    346.5974 307.5173314  +6.5537364       557.47     902.7693     116.5671     88.54726     177.1652     354.7544      1.496     4.17     1106.571     62.56233     83.40173         5     1.016     0.487  89.17   0
       362    614.0740    340.6622 307.6728119  +6.5437316     1915.082     3952.343     3995.743      89.2517     177.5183     354.9308      2.064     5.98     1115.847     62.56233      209.375        27     1.542     1.283  86.56   0
       363     22.9063    340.9770 307.9185360  +6.5237919     868.2953     1483.561     1224.263     88.97059     177.3065     354.7544      1.826     6.29     1140.789     62.56233     136.8009        10     1.340     0.828 -51.54   0
       364    698.7247    333.8820 307.6378512  +6.5493580     58105.86     113069.5     122364.1      89.2517     177.8708     355.0014      2.059     4.66     1114.363     62.56233     5889.318        93     1.752     1.607  89.26   0
       365    856.5386    335.4627 307.5721938  +6.5539689     1175.749     1854.761     1890.639     88.97059     177.5183     354.9661      1.708     5.23     1111.078     62.56233     150.8591        14     1.184     0.945   9.44   0
       366     77.7660    333.6317 307.8959820  +6.5286680     845.9628     1891.193      1962.19     88.40569     177.2359     354.6484      2.142     8.33     1137.164     62.56233     106.7288        16     1.609     1.204 -73.23   0
       367    561.3506    330.6670 307.6950658  +6.5460968     1810.423      3741.99     3811.844      88.8297     177.3772     354.9661      2.105     5.68     1114.681     62.56233     201.3524        30     1.569     1.323 -89.06   0
       368     98.5796    329.6839 307.8874643  +6.5309971     4366.912     9056.608     10018.08     88.68859     177.1652     354.8603      2.156     5.02     1135.814     62.56233     525.8344        41     1.708     1.459 -86.81   0
       369    544.5389    326.9549 307.7021796  +6.5470675     4939.825     10042.74      10046.7      88.8297     177.3772     355.0367      2.073     5.19     1114.198     62.56233     472.6404        41     1.623     1.433  83.02   0
       370    273.6483    324.5927 307.8148654  +6.5389737     1774.178     3877.098     3451.234     88.40569     177.3065     354.5071      2.107     7.54     1125.398     62.56233     204.7556        28     1.728     1.221  73.06   0
       371    407.4323    322.0654 307.7593388  +6.5444993     16962.38     37534.87     41599.02      88.8297     177.5889     354.8955      2.243     5.38     1118.625     62.56233     1848.547        68     1.806     1.666 -88.41   0
       372    514.7598    320.5651 307.7147742  +6.5487101     901.3805     1820.418     1531.538     88.68859     177.5183     354.7191      2.076     6.60     1114.142     62.56233     119.1525        13     1.416     0.862 -45.99   0
       373    388.4997    320.9069 307.7672481  +6.5443437      784.434     1179.533     1863.928     88.97059     178.0819      354.825      1.464     4.58     1119.615     62.56233     119.4126         6     1.077     0.642 -66.92   0
       374    385.3865    318.2108 307.7686333  +6.5453527     549.3975     1348.406     2234.334     88.68859     177.2359     354.8603      3.232     5.19     1119.615     62.56233     83.54993         5     1.000     0.760  -7.68   0
       375    801.5803    314.1002 307.5957593  +6.5609577     822.5716     1616.507     1138.256     88.97059     177.3772     354.6837      1.723     5.81     1110.924     62.56233     134.0366         8     1.507     0.630 -79.57   0
       376    496.5724    312.4596 307.7226082  +6.5514486     5730.493     12059.18     13340.64     88.54726     177.5889      354.825      2.170     5.14     1113.758     62.56233      572.168        45     1.683     1.477  75.17   0
       377    765.4451    310.9826 307.6108860  +6.5610398     2497.267     4783.687     5844.914     88.54726     177.3772     354.6484      2.168     4.66     1111.359     62.56233     276.9435        28     1.370     1.319   8.17   0
       378    921.4858    311.1147 307.5460129  +6.5661862      881.715      1506.68      1574.95     88.68859     177.6594     355.0014      1.906     4.46      1108.25     62.56233     140.4147         9     1.100     0.740 -14.76   0
       379    323.8417    308.1832 307.7945557  +6.5474314     557.5566     913.7976     1074.384     88.40569     177.3065     354.6837      1.591     4.40     1122.292     62.56233     83.06714         7     1.431     0.385  57.80   0
       380    259.9284    303.6690 307.8212763  +6.5471530     508.9687     1139.975     1186.664     88.97059     177.6594     354.8603      1.554     3.89     1125.035     62.56233     82.66736         5     1.288     0.337 -48.71   0
       381    159.1258    302.9452 307.8632027  +6.5440701     843.7092     1403.555     1838.843      88.8297     177.4478     354.8955      2.004     6.07     1131.592     62.56233     160.6298        12     1.267     1.013  69.63   0
       382    435.6851    299.0956 307.7483702  +6.5549293      5597.68     6194.771     5920.112     88.97059     177.9412     355.0367      1.013     3.61     1115.423     62.56233     1549.968         9     1.012     0.382 -55.31   0
       383    386.4566    296.6440 307.7689172  +6.5542934     4806.802     10464.62     11282.71     88.97059     177.5183     354.9308      2.218     5.32     1118.375     62.56233     497.7904        44     1.736     1.475 -79.49   0
       384    242.2980    297.1130 307.8288268  +6.5492687     1291.026     3076.691      3374.57     88.97059     178.0116     354.9661      2.270     8.56     1125.623     62.56233     125.5791        24     1.489     1.374 -89.42   0
       385    754.1954    292.4501 307.6161866  +6.5683167     40890.85     77288.63     82914.79      88.2639     177.3065     354.5424      1.997     4.43     1109.844     62.56233      3951.78        81     1.707     1.559  88.20   0
       386    426.0381    292.1860 307.7526138  +6.5574594     1606.921      3278.14     3392.645     88.54726     177.3065     354.6131      2.117     5.48     1115.385     62.56233      175.509        23     1.333     1.217 -49.06   0
       387    989.0388    289.5024 307.5186556  +6.5773592     1567.976     2399.401     2206.607     88.97059     177.3772     355.1778      1.629     5.51       1102.3     62.56233     194.3698        17     1.455     0.945  82.09   0
       388    929.9659    288.5116 307.5432472  +6.5758017     2060.405     3353.822     3691.329     89.11125     177.4478     354.9308      1.827     4.02     1106.423     62.56233     248.5991        20     1.278     1.046  63.80   0
       389    462.8382    288.5876 307.7374374  +6.5601768      752.656     1542.706     2276.799     88.54726     177.3065     354.6131      2.279     5.10     1113.346     62.56233     89.55151         8     0.997     0.736  76.74   0
       390    412.6099    287.5265 307.7583533  +6.5589337      1333.88     2876.708      3276.75     88.40569     177.0945     354.7897      2.192     7.61      1115.85     62.56233     152.6858        23     1.409     1.337  50.98   0
       391    834.1202    282.2416 307.5833037  +6.5751973     1051.719     1916.505     1473.807     88.97059     177.5183     354.8955      1.800     6.22     1107.724     62.56233     122.3796        11     1.163     0.953  89.84   0
       392    752.6841    277.0956 307.6173318  +6.5746063     4552.995     8808.946     9742.164     88.97059     177.9412     355.0367      2.104     4.69     1108.958     62.56233     488.2155        37     1.593     1.343 -89.52   0
       393    443.1331    279.4258 307.7459383  +6.5633003     733.3444     1470.847     2397.099     88.54726     177.3772      354.825      2.675     5.93     1113.575     62.56233     91.98694         8     1.269     0.779 -53.70   0
       394    187.5089    279.9689 307.8521823  +6.5545094     934.0621     1423.032     1914.434     89.11125     177.3065     354.8955      1.428     4.50     1128.868     62.56233     150.4399         8     1.032     0.558  45.48   3
       395    190.2860    278.6724 307.8510717  +6.5551379      1434.38     2340.387     2924.957     89.11126     177.8004     354.9308      2.001     5.93     1128.707     62.56233     163.9889        16     1.353     0.959  56.46   2
       396    768.9933    274.9739 307.6106231  +6.5760265     2118.523     3946.674     4394.589     88.40569     177.3772     354.7191      2.016     4.85     1108.711     62.56233     243.8014        24     1.334     1.213  89.75   0
       397    359.1336    270.4662 307.7811600  +6.5641871     1155.198     2946.101     3595.435     88.97059     177.5183     354.9661      2.600     6.61     1118.583     62.56233     166.6943        22     1.740     1.209 -22.85   2
       398     72.8313    270.2428 307.9001815  +6.5546748     924.8645     1777.354     2326.764     88.40569     177.4478     354.7544      2.310     7.05     1136.039     62.56233     105.6677        13     1.248     1.117  42.93   0
       399   1007.1964    265.8704 307.5119006  +6.5877214     5669.091      8770.56     9714.657     88.40569     177.0945     354.7544      1.628     3.35     1099.622     62.56233     802.4844        32     1.329     1.179  79.20   0
       400    485.4342    266.1573 307.7288013  +6.5701943      1324.68      3074.46     3378.832     88.68859     177.5183     354.7191      2.304     8.18     1109.735     62.56233      135.828        26     1.732     1.221 -44.09   0
       401    248.1430    261.6072 307.8275985  +6.5641248     3983.785     8733.607     10071.18      88.2639     177.3772     354.6484      2.252     5.63     1124.716     62.56233     428.0809        40     1.742     1.444 -80.68   0
       402    767.7986    255.1285 307.6117878  +6.5841810     643.5239     976.0484     1144.143     88.40569     177.0238     354.7544      1.550     5.46     1107.721     62.56233     90.68372         6     1.358     0.620  74.35   0
       403    381.2025    252.8601 307.7725808  +6.5721958     949.6519     1557.542      1418.79      88.2639     177.2359     354.6131      1.655     5.96     1116.025     62.56233     137.0448        11     1.503     0.696  44.71   2
       404    383.7489    252.0997 307.7715479  +6.5725950     676.9235     1176.161     908.2643     88.97059     177.5183     355.1778      1.148     3.34      1115.78     62.56233     140.8756         5     1.066     0.321  77.26   3
       405    968.9855    251.2155 307.5282786  +6.5925009     1057.281     1542.705     1809.792     88.68859     177.1652     354.8603      1.472     4.03      1101.21     62.56233     158.6104         9     0.961     0.696  33.02   0
       406    304.2661    248.8751 307.8046986  +6.5712635     881.4058     1596.394     914.8174     89.11125     177.5183     354.8955      1.933     6.20     1121.491     62.56233     115.2914        10     1.089     0.992  74.84   0
       407    151.7639    248.2765 307.8681143  +6.5663952     1276.558     2521.283     2324.983      88.8297     177.5889     354.9661      1.987     6.87     1131.342     62.56233     145.2103        21     1.413     1.159 -69.25   0
       408    561.4440    244.0043 307.6979502  +6.5818833     1562.346     3161.185     3231.199      88.2639     177.0945     354.5778      2.063     5.76     1106.331     62.56233     153.9027        25     1.414     1.239 -35.35   0
       409    905.1285    242.8813 307.5551067  +6.5938158     1474.209     2431.816     2383.287      89.2517     177.8708     354.9661      1.765     4.95     1104.053     62.56233     201.0034        15     1.181     0.932  67.30   0
       410    724.9711    241.2150 307.6300611  +6.5884970     3762.442     7108.921     7348.756     88.54726     177.2359      354.825      1.996     4.67      1107.12     62.56233     392.8854        34     1.510     1.337  59.25   0
       411    665.9205    241.1562 307.6546124  +6.5865499     1740.406     3500.488     3692.284     88.97059     177.5183     354.9308      2.101     6.27     1107.026     62.56233     182.3787        27     1.523     1.347  88.23   0
       412    382.2629    234.6744 307.7727545  +6.5797401     622.6042     1189.053      1038.69      89.2517     177.5183     354.9308      2.153     4.36     1114.834     62.56233     92.07349         5     0.963     0.561  51.89   0
       413    921.1431    233.3320 307.5487698  +6.5982922     1011.831      1406.03     1000.993     89.11125     177.4478     354.8603      1.494     5.22     1102.834     62.56233     134.4561        13     1.336     0.807  72.13   0
       414    224.7290    226.6125 307.8385160  +6.5777886     1499.959     3402.714     3546.647     88.40569     177.2359     354.7544      2.192     8.46     1125.438     62.56233     173.8994        27     1.527     1.375 -71.53   0
       415    867.2234    225.4344 307.5714522  +6.5997569     1502.624     2563.674     2465.086     88.40569     177.2359     354.6837      1.855     5.45     1104.733     62.56233     241.1896        17     1.390     0.938  84.79   0
       416    757.7388    224.9669 307.6169855  +6.5962993     1306.047     2346.103      2425.49     88.68859     177.5889     354.8603      1.950     5.28     1106.232     62.56233     158.0959        16     1.270     1.150 -11.31   0
       417    458.8153    216.2911 307.7415509  +6.5898934     14841.68     32645.59     37180.21     88.68859     177.3065     354.7897      2.280     5.41     1107.339     62.56233     1552.584        85     2.290     1.687 -49.14   0
       418    784.4786    215.5046 307.6061871  +6.6010984     10625.14     19497.64     21560.45     88.68859     177.8004     354.9661      1.976     4.28     1105.604     62.56233     1135.158        55     1.613     1.513 -78.07   0
       419    146.8999    209.6736 307.8714438  +6.5821707     1544.779     3412.885     3865.587     88.40569     177.6594     354.8955      2.284     6.78     1130.776     62.56233     212.1355        28     1.637     1.350  58.14   0
       420    122.1064    208.8734 307.8817778  +6.5816686     814.5237     1595.373     1730.707      88.8297     177.6594     354.9308      2.037     6.23     1132.018     62.56233      102.257        11     1.385     0.788  81.66   0
       421    920.8796    205.9641 307.5497993  +6.6095839     1313.406     2186.427     2268.463      88.8297     177.5889     354.9308      1.634     6.61      1100.86     62.56233      156.016        14     1.396     0.879  89.64   0
       422    582.7217    202.1999 307.6905144  +6.5998556     3119.151     6595.083      7036.71     88.12189     176.8114     354.6131      2.124     5.05     1104.586     62.56233     338.2467        37     1.633     1.421 -34.89   0
       423    545.3044    202.1163 307.7060730  +6.5986393     1450.767     3296.924     3664.808      88.8297     177.9412     355.0367      2.272     8.19     1104.257     62.56233     155.3793        23     1.556     1.258 -35.11   0
       424    385.7740    201.5667 307.7724136  +6.5935278     836.9723     2133.662     1892.921     88.40569     177.3065     354.6837      2.143     5.39     1112.787     62.56233     129.6934         9     1.405     0.582 -86.46   2
       425    889.5435    198.7132 307.5630712  +6.6115340     9745.063     15810.77     16286.39     88.97059     177.5183      355.072      1.779     3.71     1101.686     62.56233     1220.636        39     1.416     1.285  75.15   0
       426    943.5832    199.0286 307.5405932  +6.6132038      2514.35     4117.154     4380.105     88.54726     177.2359     354.8603      1.779     3.76     1099.241     62.56233     327.5343        22     1.262     1.103  79.74   0
       427    564.6437    199.3419 307.6981266  +6.6004314     738.2413     1118.509      1197.68      88.8297     177.4478     355.0014      1.663     5.84     1104.357     62.56233     94.71936         8     1.332     0.720 -68.36   0
       428    976.2164    196.3868 307.5271144  +6.6153810     9031.263     14352.94        14677     88.68859     177.1652     354.8603      1.699     3.43     1097.498     62.56233     1221.385        35     1.395     1.223 -83.70   0
       429     15.8940    195.4555 307.9263856  +6.5836399     18172.76     37536.95     41230.35      88.8297     177.5183     355.1425      2.128     5.02     1138.249     62.56233     2208.613        66     1.778     1.587 -88.17   0
       430    687.6003    196.6042 307.6471004  +6.6056696     1953.576     3855.116     4511.043      88.2639     177.0238     354.6484      2.152     4.82     1105.059     62.56233     211.8346        27     1.427     1.272 -79.17   0
       431    262.2751    197.0123 307.8239092  +6.5912696     797.8458     1751.918     1628.841     88.40569     177.1652     354.7191      2.279     6.02     1124.115     62.56233     107.4623        10     1.357     0.750 -67.50   0
       432    496.4862    191.1343 307.7267393  +6.6015411      1321.62     2567.176     2448.514     88.97059     177.7299     355.0014      1.994     6.82     1104.707     62.56233     188.9568        21     1.379     1.243 -51.17   0
       433    508.2461    187.4339 307.7219751  +6.6034623     1726.426     3617.913     3368.545     88.54726     177.5183     354.8603      2.127     5.94     1104.481     62.56233     171.0178        30     1.634     1.350 -84.58   0
       434    880.3532    187.1705 307.5672803  +6.6159939     1865.129       2892.8     3574.441     88.54726     177.6594      354.825      1.789     4.13      1101.19     62.56233     240.8885        19     1.264     0.998 -83.14   0
       435    828.1780    188.1109 307.5889409  +6.6138666      1746.71     2995.152      2688.36     88.97059     177.3065     354.7896      1.792     4.38      1102.77     62.56233     211.6569        19     1.207     1.062  85.07   0
       436    739.7700    184.5817 307.6258158  +6.6123751     30351.97     57700.94     61971.85     88.54726     177.3065      354.825      1.999     4.49     1104.428     62.56233     3152.948        71     1.683     1.539  78.58   0
       437    342.9155    183.9533 307.7908265  +6.5993646     4357.953     10893.02     12673.54     88.97059     177.5183     354.9661      2.522     6.35     1116.878     62.56233     447.2714        56     2.154     1.563 -82.02   0
       438    973.5591    183.4653 307.5286534  +6.6206280      2880.25     4302.308     4620.687     88.97059     177.4478     355.0367      1.637     3.43     1096.855     62.56233     379.3324        23     1.221     1.138  37.44   0
       439    907.6627    181.6407 307.5561120  +6.6191870     6688.971     11283.22     12175.89     88.97059     177.4478     355.0014      1.827     3.83     1099.598     62.56233     825.8728        39     1.484     1.300  85.71   0
       440   1011.9355    181.8735 307.5127513  +6.6225625     1803.497     2499.339     2767.472     89.11125     177.5183     354.9308      1.539     3.93     1095.196     62.56233     286.3702        17     1.253     0.928  69.63   0
       441    451.2462    180.9833 307.7458900  +6.6042186     3384.542     7336.427     7891.829     88.40569     177.3772     354.6837      2.184     5.16     1106.286     62.56233     330.6152        37     1.536     1.496 -17.74   0
       442    108.7918    172.4078 307.8885484  +6.5962776     3434.794     7083.476     8023.246      88.2639     177.3065     354.7897      2.151     5.25     1131.132     62.56233     413.0481        31     1.513     1.330  84.50   0
       443    278.9471    168.9821 307.8179266  +6.6034021     21594.79     49310.58     54030.82     88.40569     177.5889     354.6837      2.248     5.33     1124.006     62.56233     2308.275        71     1.823     1.656 -79.36   0
       444    928.2104    171.9018 307.5478964  +6.6238927     743.5724     1384.034     2091.384     88.68859     177.0945     354.7191      2.534     5.22     1097.983     62.56233     82.99255         9     1.011     0.763  -1.40   0
       445    254.2706    169.9337 307.8281531  +6.6021817     4241.654     9193.907     10011.59     88.97059     177.5889     354.9308      2.177     5.40     1124.529     62.56233     510.1707        40     1.637     1.509 -84.68   0
       446    402.9802    164.3782 307.7665171  +6.6094590     32208.37     72034.45     78879.12     88.68859     177.4478     354.8603      2.241     5.34     1108.258     62.56233     3165.878        83     1.843     1.700  86.49   0
       447    159.1879    165.7790 307.8678222  +6.6007067     2704.448     5965.677     6806.949     88.54726     177.1652      354.825      2.243     5.77     1128.056     62.56233     323.9852        32     1.602     1.341 -88.89   0
       448    420.8560    164.8800 307.7590684  +6.6098504     867.6949       1831.7     1984.444     89.11125     177.5183     354.9661      2.158     7.92     1106.191     62.56233     124.3335        12     1.591     1.103 -86.90   0
       449    307.0695    162.1670 307.8064656  +6.6071587     11593.15     26185.52     28554.76      88.8297     177.5183     354.9661      2.236     5.34     1121.599     62.56233     1222.567        60     1.771     1.624 -76.63   2
       450    314.5830    162.0262 307.8033468  +6.6074687      1432.47     3188.795     3692.845     88.54726     177.3065      354.825      2.329     7.79     1120.565     62.56233     163.5701        27     1.544     1.380  79.21   3
       451    742.2009    160.5199 307.6256155  +6.6223915     25175.89     47416.49     50383.21     88.12189     176.8822     354.6484      1.965     4.40     1103.272     62.56233     2606.404        66     1.660     1.522  81.05   0
       452    690.6220    162.6343 307.6469887  +6.6197968     757.5796     1463.914     1804.084     88.40569     177.3065     354.6484      2.158     6.14     1103.609     62.56233     82.98486         8     1.175     0.901 -56.84   0
       453    791.0399    161.1066 307.6052903  +6.6237785     986.5703     1787.879     1764.758     89.11125     177.4478     355.0367      1.976     6.90     1101.674     62.56233     119.5713        14     1.236     1.080 -44.07   0
       454     59.1756    158.0464 307.9096615  +6.6005403     6290.896      13102.2     13488.36     88.54726     177.5183     354.7896      2.108     4.82     1134.472     62.56233     716.1582        46     1.679     1.480 -89.31   0
       455     93.7828    156.2575 307.8953353  +6.6024417     989.2802     1980.296     1948.791     88.40569     177.4478     354.6484      2.143     7.61     1131.407     62.56233     128.0774        16     1.408     1.150 -53.57   0
       456   1000.7284    154.9110 307.5183165  +6.6333227     1070.815     1310.378     1348.962     88.97059     177.8003     354.9308      1.344     4.72     1094.369     62.56233     159.9294         9     0.969     0.704  81.61   0
       457   1001.6477    140.8802 307.5184056  +6.6391467     1984.308     3347.194     3817.002     88.97059     177.5183     354.9661      1.823     4.29     1093.554     62.56233      237.585        24     1.378     1.140  58.36   0
       458    277.8221    135.2188 307.8195365  +6.6173049     19607.79     44037.36     48725.25     88.68859     177.4478     354.8603      2.255     5.34     1124.126     62.56233     2049.839        73     1.817     1.686 -86.95   0
       459    592.9364    136.8886 307.6884705  +6.6271642     1312.789     2588.821     3066.371      88.8297     177.7299     354.9661      2.259     5.36     1102.774     62.56233     146.9984        19     1.309     1.190 -42.25   0
       460     23.3015    133.9062 307.9253938  +6.6093016     3070.731     6435.881     6475.873     88.97059     178.1522     354.7897      2.099     5.10     1137.652     62.56233     368.9583        36     1.635     1.393 -86.94   0
       461    709.4430    131.7208 307.6402052  +6.6331895     6226.486     11596.48     12591.89     88.97059     177.5183     354.8955      1.969     4.40     1101.726     62.56233     634.5361        39     1.521     1.407 -80.03   0
       462    120.3699    129.0513 307.8852042  +6.6145677     3327.864     7005.676     7867.783     88.68859     177.6594      354.825      2.158     5.11     1128.921     62.56233     380.2372        39     1.714     1.384 -62.45   0
       463    459.0269    127.0269 307.7444775  +6.6267575     803.4026     1679.181     1862.791     88.40569     177.3065     354.7896      2.153     5.12     1104.143     62.56233     109.3789         7     1.241     0.597  60.68   2
       464    391.0867    124.8524 307.7727975  +6.6253807     2474.086     5990.397     6137.887     88.97059     177.3772      355.072      2.387     6.72     1109.241     62.56233     262.4331        40     1.866     1.514  88.24   0
       465    566.7471    124.9677 307.6997611  +6.6312109     611.9451     1296.275     1810.535      88.8297     177.5183      354.825      2.514     5.45     1102.494     62.56233     99.06921         7     1.336     0.892  60.90   0
       466    355.5276    123.7929 307.7876171  +6.6246270     2197.284     4547.689     5173.775     88.54726     177.0238     354.8603      2.160     5.36     1113.727     62.56233     260.1136        30     1.600     1.311  70.84   0
       467    109.7730    123.6477 307.8897929  +6.6164429     1322.898     2685.948     3130.499     88.54726     177.5889     354.8603      2.219     5.84     1129.218     62.56233     183.9961        16     1.186     1.116 -43.78   0
       468   1001.9421    118.0872 307.5190488  +6.6485680     1433.895     2089.964     2094.325     88.97059     177.5183      355.072      1.487     4.04     1092.273     62.56233     200.1033        13     1.086     0.863  89.54   0
       469    207.3197    112.8259 307.8496054  +6.6241859     3850.803     8296.112     9369.003      88.8297     177.3065     354.9308      2.199     5.08     1125.358     62.56233     441.3979        40     1.646     1.501  75.69   0
       470    669.0389    111.5144 307.6576850  +6.6401837     4619.022      8823.57     9380.362     88.97059     177.5183     354.9308      2.023     4.76     1101.028     62.56233     508.3666        37     1.612     1.418  77.91   0
       471     90.1376    112.7540 307.8983252  +6.6202811     1524.461     3229.113     3602.448      88.8297     177.3772     355.0014      2.193     6.92     1130.172     62.56233      161.995        24     1.477     1.336  74.53   0
       472    817.3488    111.6527 307.5960163  +6.6450757     826.2112     1438.718     1473.293     89.11126     177.3772     354.9661      1.755     6.34     1097.978     62.56233     95.42285        10     1.134     0.997 -31.92   0
       473    621.1966    108.8217 307.6776673  +6.6396974     6895.262     13753.65     14768.54     88.54726     177.1652     354.6837      2.065     4.84     1101.626     62.56233     690.8831        44     1.609     1.473 -88.34   3
       474    624.6818    100.2699 307.6765066  +6.6433449     39229.25     77577.14     84272.36      89.2517     177.8003     354.9661      2.091     4.80     1101.218     62.56233     3912.872        82     1.743     1.615  84.08   2
       475     19.9320    107.7166 307.9276829  +6.6200015      724.663     1686.911     2062.421      89.2517     177.8003     354.9661      2.312     6.42     1138.118     62.56233     91.21155         7     1.316     0.881  68.27   0
       476    348.1647    104.9196 307.7913163  +6.6321730     2361.595     5575.587     6218.055      88.8297     177.5889     354.9661      2.320     5.87     1114.153     62.56233     294.5946        39     1.727     1.535 -66.57   0
       477    530.2070    103.8921 307.7156645  +6.6386912     1276.604     2283.551     2191.437     88.54726     177.1652     354.7191      1.867     6.98     1102.142     62.56233     157.6799        19     1.331     1.108  72.40   0
       478    993.9644    103.4738 307.5228568  +6.6543365     883.8098     1368.795      1697.42      88.8297     177.5889     354.8955      1.641     6.00     1091.825     62.56233     103.0778        12     1.121     0.903  83.11   0
       479    303.9064     94.0917 307.8100833  +6.6351604     2429.775     5448.058     6163.598     88.97059     178.0819     354.9308      2.320     6.43      1121.31     62.56233      286.631        31     1.507     1.460  14.10   0
       480    704.5637     88.4903 307.6436904  +6.6508766     750.9756     1169.951      1025.37     89.11126     177.4478     354.9661      1.784     6.73     1099.142     62.56233     99.97327         9     1.324     0.959  -5.44   0
       481    675.2814     87.6983 307.6558922  +6.6502259     958.8093     1778.142     1484.667      88.8297     177.9412     355.0367      1.904     6.40     1099.887     62.56233     116.7314        13     1.392     0.827 -60.47   0
       482      2.4154     77.3110 307.9359967  +6.6319665     732097.7      1362337      1450906     88.68859      158.034     286.4672      1.978     6.75     1138.337     62.56233     63945.38       219     2.128     1.378 -84.98  28
       483    689.0115     84.3658 307.6502957  +6.6520604     2425.305     4439.697     4730.939     88.40569     177.3065     354.7191      1.932     4.36     1099.371     62.56233     271.9048        25     1.328     1.209 -57.37   0
       484    430.9597     75.1505 307.7578992  +6.6472376     2726.959     5994.435     6360.757     89.11125     177.5183     354.8603      2.210     5.71     1105.299     62.56233     284.0992        36     1.699     1.406  82.54   0
       485    903.3170     70.6083 307.5616523  +6.6648885     3645.062     5930.678     5730.167     88.54726     177.1652     354.7544      1.768     3.77     1093.213     62.56233     498.0864        28     1.382     1.174  64.89   0
       486    885.4731     71.5407 307.5690404  +6.6639089     1836.772     2684.595     2152.246     89.11126     177.5183     354.9308      1.684     3.78     1093.371     62.56233     263.5779        17     1.123     1.016  18.10   0
       487    595.7670     69.1491 307.6895784  +6.6552284     1350.193     2625.953     2914.359      88.8297     177.5889     354.8603      2.024     6.77     1100.475     62.56233     152.7347        20     1.385     1.163  19.18   0
       488    394.3853     67.1508 307.7733762  +6.6493159     1155.723     2714.805     2762.224      88.2639     177.4478     354.6131      2.189     8.07     1108.728     62.56233     145.2837        22     1.629     1.226 -89.40   0
       489    142.4261     64.3763 307.8782259  +6.6420118     2248.577      4594.57     4633.201     88.40569     177.3772     354.7897      2.097     5.41     1126.042     62.56233     254.9335        32     1.613     1.414 -34.77   0
       490     24.1134     62.0414 307.9274938  +6.6390006      9264.51     18614.95     20926.95     88.97059     177.4478     354.9661      2.137     4.73     1134.596     62.56233     1027.769        53     1.736     1.527  88.29   0
       491    291.0337     62.9825 307.8164877  +6.6475736     1085.423     1920.083     2763.629     88.54726     177.3065     354.7544      2.302     6.31     1122.627     62.56233     129.7661        13     1.211     0.946 -35.14   0
       492    825.7381     56.3004 307.5943909  +6.6682106     5267.455     9145.873     9812.395     88.68859     177.5183      355.072      1.870     4.09     1093.406     62.56233     613.1182        38     1.500     1.351  89.99   0
       493    770.8217     56.7141 307.6172112  +6.6662083     2548.183     4660.858     5330.033     88.97059     177.2359      354.825      1.976     4.50     1094.809     62.56233     280.9325        27     1.351     1.279  66.95   0
       494    416.3414     57.6829 307.7645673  +6.6539604     696.5642     1305.637      1259.28     89.11126     177.5183     355.0014      2.105     5.78     1106.598     62.56233     123.7616         6     1.532     0.614  15.95   0
       495    532.9920     54.8409 307.7161621  +6.6590375     648.1935     1208.613     1467.926      88.2639     177.3065     354.6131      1.902     3.93     1101.167     62.56233     84.71497         5     0.844     0.525 -58.84   0
       496     64.5411     53.9298 307.9109611  +6.6437086     2337.479     4443.494     4438.441     89.11125     177.5183     354.9308      2.006     5.21     1130.018     62.56233     262.9309        24     1.327     1.270 -87.02   0
       497     49.5195     54.4287 307.9171894  +6.6429977     760.3172     1308.161     1041.772      88.8297     177.3772     354.8603      1.674     5.50     1131.433     62.56233     101.5654         8     1.225     0.695 -56.87   0
       498    425.8661     54.1943 307.7607250  +6.6557197     731.1277     1176.548     1377.101     88.40569     177.2359     354.7191      1.698     4.00     1105.917     62.56233     109.6747         6     0.946     0.483 -34.01   0
       499    588.1878     50.5711 307.6933564  +6.6626459     926.0172     1486.327     903.2992     88.40569     177.3065      354.825      1.768     5.93     1099.972     62.56233     110.0569         9     1.320     0.750  43.09   0
       500      6.9723     49.3520 307.9350507  +6.6436634     2065.274     3825.412     4600.848     88.54726     177.5183     346.0687      2.037     5.27     1134.992     62.56233     226.4438        24     1.370     1.209 -88.93  16
       501    406.3237     46.1509 307.7691222  +6.6583864     635.0077     1002.752     733.2974      88.8297     177.5889     354.9308      1.659     5.47     1107.761     62.56233     80.64905         7     1.303     0.648 -45.62   0
       502    765.3437     44.2291 307.6199094  +6.6711806     1585.296     2785.705     3088.913     88.54726     177.5889      354.825      1.869     5.17     1093.785     62.56233     187.7655        21     1.344     1.153 -36.57   0
       503    565.4985     40.6289 307.7031259  +6.6659926     5721.983     5671.045     4878.126     89.11126     177.2359     354.9308      0.798     1.30     1100.175     62.56233     2086.044         5     0.581     0.412 -46.22   0
       504     92.2535     38.1415 307.8999747  +6.6511585     6864.572     13871.16      14597.7     89.11125     177.5183     354.9308      2.097     4.86     1126.775     62.56233     784.7036        45     1.668     1.459 -83.83   0
       505    421.1477     37.8792 307.7632382  +6.6622981     1644.589     3525.055     3778.134     88.97059     177.5183     354.9308      2.146     6.44     1106.512     62.56233     174.4541        23     1.450     1.171 -71.19   0
       506    259.3679     32.6564 307.8306796  +6.6590330     915.4299     1934.023     3236.822      88.8297     177.5183     354.8955      2.276     5.72     1122.941     62.56233     133.9484        11     1.682     0.547 -45.61   0
       507    964.1997   1020.6544 307.5044326  +6.2746272     726.4775     1027.645     1249.811     88.12189     176.5987     315.9094      1.334     3.92     1146.451     62.56233      112.933         7     0.836     0.628  31.63  16
       508    962.5154     30.1108 307.5383986  +6.6835817     3012.397     3062.386     2826.921     88.68859     177.8003     355.0367      0.670    -0.17     1086.884     62.56233      1517.62         5     0.577     0.309  -6.25   0
       509    534.5837     26.1445 307.7164689  +6.6709394     3706.012      7895.83     8493.454      88.2639     177.4478     354.6484      2.135     5.21     1100.572     62.56233     342.9956        39     1.690     1.392 -85.20   0
       510    253.1544     26.3511 307.8334764  +6.6614280     1465.623     2974.116     4897.235     88.97059     177.3772     354.9661      2.683     6.27     1122.974     62.56233      156.428        21     1.322     1.187 -52.60   1
       511    792.8951   1018.1829 307.5756896  +6.2699425     7497.905     10107.16     10801.54      88.8297     177.3065     344.7996      1.393     2.65     1151.367     62.56233     1279.854        29     1.180     1.050  87.21  16
       512    436.0122     16.2796 307.7577875  +6.6717141     9985.094     10039.31     9995.711     88.54726     177.1652     354.7544      0.649     1.44     1105.624     62.56233     4858.296         9     0.556     0.410  88.59   3
       513    832.9674   1016.1873 307.5591074  +6.2721020     473.2983     676.0883     425.4478     88.40569     177.2359      354.825      1.530     5.28     1151.022     62.56233     103.2946         5     1.497     0.525  77.93  16
       514      2.9046     24.5182 307.9375845  +6.6537799     836.4056     1309.808     1365.023     88.68859     164.6329     294.5723      1.727     5.84     1132.894     62.56233     123.1887         8     1.169     0.822 -52.48  24
       515    917.9864     21.7269 307.5571964  +6.6855605     1820.717     2895.032     2513.205     88.40569     177.2359     354.6837      1.629     4.33     1089.961     62.56233     250.1443        17     1.253     0.991  88.67   0
       516    890.8322   1015.0616 307.5351034  +6.2744943     1749.571     2247.653     2071.775     88.68859     177.5889     354.8603      1.289     2.69     1149.575     62.56233     290.0748        11     0.879     0.783  71.41   0
       517     26.2566     21.8811 307.9279651  +6.6556540     1603.798     3187.204     3220.968     89.11125     177.5183     354.9308      2.070     4.76     1130.905     62.56233     218.4238        22     1.307     1.272 -89.29   0
       518    321.2905     22.0222 307.8052933  +6.6655000     670.3508     1563.894     904.8765     88.97059     177.3065     354.7897      2.115     5.77     1117.317     62.56233      87.8197         8     1.369     0.685   2.04   0
       519    213.5726   1013.5903 307.8165321  +6.2524737     2395.381      3423.29     2521.475     88.54726     177.3065     354.7897      1.513     3.47     1159.039     62.56233      308.465        15     1.107     0.854  67.01   0
       520    302.0847     17.4553 307.8134332  +6.6667418     718.4639     1339.327     721.9708     88.97059     177.5183      355.072      1.791     6.02     1119.815     62.56233     88.49341         9     1.524     0.668   2.93   0
       521    431.7487   1010.8531 307.7259822  +6.2609098     4162.052     6723.509     7663.381     89.11125     177.3772     354.9661      1.779     3.28     1154.841     62.56233     599.0879        31     1.458     1.213 -71.60   0
       522    716.7635   1010.5911 307.6075758  +6.2705387     8082.142     11042.11      11381.7     88.40569     177.2359     354.6837      1.434     2.79     1153.034     62.56233     1222.674        28     1.225     1.007 -86.01   0
       523    572.8608   1009.7927 307.6673906  +6.2660647     4441.326     6646.953     7929.746      88.2639     177.3065     354.6837      1.602     3.10     1153.703     62.56233      637.348        28     1.362     1.049  77.19   0
       524    709.0493   1009.8722 307.6108051  +6.2705782     1187.399     1711.781      1986.67     88.97059     177.5889     354.9661      1.434     3.19     1152.931     62.56233     226.6516        11     1.052     0.731 -61.79   0
       525    748.8639   1006.1332 307.5943888  +6.2734500     1555.087     2236.438     2738.679     88.97059     177.5183     354.9661      1.753     3.46     1152.411     62.56233     221.8296        12     1.098     0.699 -80.96   0
       526    956.2144   1000.1474 307.5084386  +6.2828291     8031.316     10587.68     10142.35      88.2639     177.4478     354.6484      1.324     2.59     1145.616     62.56233     1323.165        25     1.176     0.915  81.36   0
