#   1 NUMBER                 Running object number                                     
#   2 X_IMAGE                Object position along x                                    [pixel]
#   3 Y_IMAGE                Object position along y                                    [pixel]
#   4 ALPHA_J2000            Right ascension of barycenter (J2000)                      [deg]
#   5 DELTA_J2000            Declination of barycenter (J2000)                          [deg]
#   6 FLUX_APER              Flux vector within fixed circular aperture(s)              [count]
#   9 FLUXERR_APER           RMS error vector for aperture flux(es)                     [count]
#  12 FLUX_RADIUS            Fraction-of-light radii                                    [pixel]
#  13 FWHM_IMAGE             FWHM assuming a gaussian core                              [pixel]
#  14 BACKGROUND             Background at centroid position                            [count]
#  15 THRESHOLD              Detection threshold above background                       [count]
#  16 FLUX_MAX               Peak flux above background                                 [count]
#  17 ISOAREA_IMAGE          Isophotal area above Analysis threshold                    [pixel**2]
#  18 A_IMAGE                Profile RMS along major axis                               [pixel]
#  19 B_IMAGE                Profile RMS along minor axis                               [pixel]
#  20 THETA_IMAGE            Position angle (CCW/x)                                     [deg]
#  21 FLAGS                  Extraction flags                                          
         1      2.2126     53.3415 307.9345322  +6.6325477     10439.99     21369.11     30342.21     90.55453     161.5204     293.8219      2.938     7.36     1235.604     65.02776     1897.442       100     3.474     1.551 -89.22  24
         2     86.3378     15.2259 307.9007822  +6.6511251     3369.767     11980.25     14426.23     92.03669     184.4406     368.8078      2.864     7.66     1229.531     65.02776     565.7272        63     2.196     1.927 -66.93   0
         3    415.8413     14.0787 307.7635234  +6.6626481     795.8752     2935.444     3220.344     92.33027     184.5139     368.9178      2.741    10.32     1214.015     65.02776     122.5271        16     2.038     1.456  42.96   0
         4    627.9966      8.2130 307.6753179  +6.6721661     7094.537     16394.29     20170.78     92.03669     184.1469     368.1468      2.405    10.40     1200.632     65.02776      728.606        50     2.422     1.309  73.14  19
         5    631.0000      7.0022 307.6741075  +6.6727668     5845.394     10165.26     11853.67     91.59456     183.9263     359.8192      1.893     6.69     1200.628     65.02776     847.4153        26     2.015     0.931  80.95  19
         6    528.7031      3.5207 307.7168533  +6.6707870     1820.866     5908.671      6983.07      92.1836     178.2473     316.1821      2.722     9.34      1202.46     65.02776     277.3905        48     2.191     1.646 -22.97  24
         7    253.6462      1.7595 307.8315278  +6.6623049     2614.027     4616.861     6597.045     86.11209     153.7958     285.5541      2.369     7.63      1226.23     65.02776     372.8463        26     2.310     0.801  -8.27  24
         8    433.6905      1.5774 307.7565111  +6.6684117     5321.492     7734.222     8121.904     84.04446     150.8644     281.9777      1.530     4.94     1212.807     65.02776     827.2509        21     1.666     0.698  -1.22  24
         9     20.4137      1.6888 307.9287130  +6.6545040     565.9958     464.0796    -58.51994     85.16404     152.8249     284.1289      1.088     3.50     1233.784     65.02776     106.2173         5     0.762     0.463 -73.94  24
        10     63.9111   1007.7991 307.8762640  +6.2402004     5313.362     11127.32     11982.48     91.59456     183.9263     368.6243      2.136     4.80     1254.702     65.02776     708.5996        46     1.675     1.523 -79.84   0
        11    576.4667    997.8407 307.6631981  +6.2614749     108595.4     229426.3     253626.8     92.47671     184.4406     369.0278      2.191     5.00      1257.88     65.02776     11333.79       101     1.922     1.614 -51.66   3
        12    578.1537    990.7076 307.6627376  +6.2644790     49446.16       104968     114189.8     92.47671     184.4406     369.0645      2.163     5.37     1257.413     65.02776     5039.421        79     1.855     1.536 -31.24   3
        13    210.5889   1000.8718 307.8154318  +6.2479823     2381.233     5157.281     5698.418     91.88955     184.0734     368.7344      2.198     5.44      1258.06     65.02776     285.3182        30     1.511     1.349 -43.17   0
        14    957.4707    996.6017 307.5045982  +6.2746862     748.6135     1211.217     980.8998     91.88955     183.9999     368.6977      1.677     3.75      1253.26     65.02776     97.80042         6     1.016     0.397 -71.14   0
        15    787.3897    994.7618 307.5754792  +6.2697835     5318.289     9983.099        11175     91.74217     184.2938     368.5876      2.031     4.26     1254.775     65.02776     614.5261        41     1.595     1.489 -23.71   0
        16    885.2787    990.6862 307.5348578  +6.2747283     1319.495     2187.309     2177.656     92.33027     184.8802     369.0278      1.777     5.74     1254.023     65.02776     155.7085        15     1.226     0.955 -48.00   0
        17    208.6748    989.5789 307.8166132  +6.2525849     1577.224     3006.648     3465.232      92.0367     184.3672     368.8445      2.073     6.43     1257.605     65.02776      197.509        18     1.479     1.040  74.35   2
        18    711.1625    987.2042 307.6074746  +6.2703655     5250.957     10719.62     12110.87     91.44671     184.2204     368.6977      2.105     4.81     1255.871     65.02776     579.0701        40     1.668     1.360 -62.58   0
        19    425.8969    987.3374 307.7262470  +6.2607836     2355.033     5859.905     7141.748      92.1836     184.6605     368.9912      2.402     6.75     1257.813     65.02776     274.1199        40     1.788     1.569 -31.61   0
        20    703.1449    985.6448 307.6108658  +6.2707426     1077.445     1803.566     2893.555     92.47671     184.5139     368.9178      1.939     6.03     1255.936     65.02776     154.9299         9     1.157     0.885 -12.12   0
        21    743.3860    982.2992 307.5942235  +6.2734671     950.9547     1550.414     2128.133     92.33027     184.2204     368.6243      1.880     7.51     1255.105     65.02776      131.663        12     1.384     1.142 -11.87   0
        22    950.6528    976.5051 307.5081162  +6.2827646     6245.891     10344.65     10710.99     92.33028     184.4406     369.2112      1.781     3.90     1252.315     65.02776     722.3956        37     1.562     1.173 -50.47   0
        23    234.5714    977.3787 307.8062463  +6.2584944      528.877     1475.036     1633.242     91.74217     184.2204     368.8078      1.613     3.71     1257.769     65.02776     82.17261         5     1.420     0.279  44.86   0
        24    710.2385    974.4848 307.6082902  +6.2755912     2030.374     4210.785     5373.213     92.47672     184.4406     368.8811      2.513     5.59     1255.157     65.02776     229.1216        29     1.711     1.163 -36.83   0
        25    567.4611    986.2668 307.6673403  +6.2659571     2879.737     6505.643     7333.046     92.47672     184.4406     368.9178      2.355     5.74     1257.357     65.02776     332.4702        37     1.671     1.485 -39.19   0
        26    357.3641    972.6412 307.7552811  +6.2645640     1070.232     2755.306     3186.335      92.1836     184.5139     368.7344      2.484     8.83      1257.72     65.02776     123.6462        21     1.834     1.188 -65.15   0
        27    726.4538    973.3782 307.6015759  +6.2765892     863.4922     1757.436     1925.031     91.88955     184.5139     368.6977      2.069     6.70     1254.914     65.02776     128.2529        11     1.307     0.962  -1.21   0
        28    743.8952    961.7966 307.5947057  +6.2819569     5626.368     11409.25     12176.11      92.1836     184.1469     368.6243      2.086     4.91      1254.12     65.02776     576.4718        42     1.698     1.378 -48.46   0
        29    539.5370    962.4065 307.6797768  +6.2748848     2644.353     5835.556     7027.316     91.74217     184.2204      368.661      2.390     5.99     1256.491     65.02776     279.8735        38     1.733     1.545 -81.75   3
        30    536.6419    954.7401 307.6812424  +6.2779563     5169.465     12058.63     14390.16     92.47672     184.5139     368.9912      2.407     5.82     1256.134     65.02776     535.0171        48     1.779     1.567 -51.80   3
        31    289.8162    961.4099 307.7837877  +6.2669440     9014.969     21246.68     24461.15      92.1836     184.2204     368.7711      2.355     5.70     1258.033     65.02776     990.5833        64     2.015     1.615 -38.28   0
        32    804.9905    960.6052 307.5693065  +6.2844856     948.0461     1892.355     2244.406     91.74217     184.2204     368.7344      2.098     6.41      1253.06     65.02776     122.8801         9     1.413     0.824 -47.90   0
        33    905.2977    955.0403 307.5277274  +6.2901259     7568.416     12917.76     13363.28     92.47671     184.3672     369.1745      1.835     4.11     1251.986     65.02776     880.5055        39     1.547     1.243 -55.58   0
        34    878.7842    951.3878 307.5388910  +6.2907526       9975.3     18707.72     20402.99     92.33027     184.1469     368.8445      2.008     4.53     1252.346     65.02776     1180.679        52     1.704     1.433 -45.64   0
        35   1000.4816    950.6495 307.4882411  +6.2951073     4708.454     7801.123     7864.236     92.47672     184.5139     368.9545      1.784     3.80     1250.242     65.02776     622.0048        32     1.493     1.163 -70.26   0
        36    523.0151    950.5049 307.6870600  +6.2792512     2534.477     6309.746     7181.026      92.1836     184.2204     368.6977      2.392     6.68     1256.131     65.02776      295.578        43     1.863     1.600 -24.27   0
        37    591.9678    951.7449 307.6583071  +6.2810419     955.9557     1875.165     1517.192     92.33027     184.5139     368.8445      1.964     6.58     1254.723     65.02776     151.2852        11     1.381     0.878 -13.18   0
        38    632.7082    949.3087 307.6414259  +6.2834087     910.9669     1924.658     2451.484     92.47672     185.0997     368.9912      2.441     7.05     1254.068     65.02776     144.3036        12     1.368     1.019 -25.11   0
        39    476.7773    946.6949 307.7064420  +6.2792804     1128.825     2544.177     2454.795     92.47672     184.2938     368.7344      2.234     8.31     1256.681     65.02776     145.4421        17     1.626     1.186  77.49   0
        40    910.5779    938.8381 307.5260764  +6.2969974     35769.35     65372.39      69978.2     92.03669     184.2204     368.6977      1.956     4.28     1251.065     65.02776     4223.481        71     1.740     1.400 -51.44   0
        41    218.3915    937.1664 307.8143517  +6.2745697     1039.699     2235.963     2449.013     91.88955     184.2938     368.7344      2.178     5.68     1255.932     65.02776     170.2173        16     1.478     1.129  25.43   0
        42    756.7780    930.6348 307.5903966  +6.2952644     4504.407     9553.052      11008.8     91.88955     184.2204     368.6243      2.222     5.06      1252.44     65.02776     493.9095        46     1.865     1.411 -59.43   0
        43    808.8273    932.4409 307.5686621  +6.2962527     1716.534     3309.546     3730.245     92.03669     184.2938     368.7344      2.062     5.82     1251.857     65.02776     208.0419        23     1.597     1.043 -33.44   0
        44     51.2717    928.3642 307.8842346  +6.2726019     1822.725     4255.975     4972.856     92.33027     184.5139     368.9178      2.300     6.92     1253.845     65.02776      241.786        28     1.581     1.309 -45.56   0
        45    542.5812    929.2778 307.6796333  +6.2886771     726.1006     1321.136     1129.142     91.88955     184.1469     368.8811      1.866     3.36     1254.532     65.02776     106.1473         5     0.740     0.442 -68.33   0
        46    227.0506    928.8608 307.8110290  +6.2782922     786.9095     1436.858     1868.669     92.47671     184.4406     368.9178      2.033     4.95     1255.718     65.02776     110.8684         8     1.091     0.634  52.38   0
        47    944.8716    925.5902 307.5122441  +6.3036135     5811.952     10478.07     10602.22     91.88955     184.0734     368.6977      1.902     4.37     1249.763     65.02776     680.9506        36     1.616     1.175 -57.24   0
        48    918.7250    917.5114 307.5234049  +6.3060821      1624.15     3095.207     2941.484     92.47672     184.8802     369.0278      1.944     6.53     1249.875     65.02776     251.3787        21     1.572     1.066 -52.39   0
        49    251.8814    913.8760 307.8012001  +6.2853166     2394.072     6045.716     6703.078      92.7689      184.807     369.0278      2.350     6.58     1256.342     65.02776     297.6666        40     1.758     1.598 -50.74   0
        50    639.4781    913.3648 307.6398255  +6.2984888     2731.229     6382.108     7265.696     92.33028     184.5872     368.9545      2.375     5.61     1252.539     65.02776     329.0676        41     1.742     1.553 -51.95   0
        51    778.1829    913.1409 307.5820758  +6.3032074     1029.347     1871.082     1530.637     92.03669     184.3672     368.6243      1.858     5.79     1251.448     65.02776     139.6602        14     1.336     0.988 -52.11   0
        52     20.7742    911.6530 307.8975026  +6.2784837     1296.518      3015.71     3365.344     92.03669     184.6605     368.8078      2.343     7.55     1253.887     65.02776     177.8458        23     1.490     1.456 -56.85   0
        53    942.3300    907.3824 307.5139179  +6.3110536     709.5683     1036.589      445.069     91.88955     184.3672     368.8445      1.611     3.96     1249.004     65.02776     111.8885         5     0.955     0.481   5.03   0
        54    564.0551    905.6398 307.6714937  +6.2991630     1003.352     2236.407     2220.079     92.47671     184.5872     368.8811      2.115     7.59      1253.44     65.02776     126.9182        16     1.518     1.061 -48.54   0
        55    994.9922    904.5687 307.4920835  +6.3139683     684.2483     1392.953     1191.943     91.88955     184.2938      368.661      2.996     6.74     1248.065     65.02776     114.5968         7     1.810     0.703 -56.31   0
        56     54.1525    903.1273 307.8838957  +6.2831275     528.7216     1212.315     1531.342     92.47671     184.5872     368.9178      2.312     4.88      1253.74     65.02776      86.5343         5     1.297     0.520  61.44   0
        57    604.7462    902.4283 307.6546588  +6.3018490     637.1097     1247.455      1187.85      92.1836     184.5872     368.8078      1.794     3.92      1252.65     65.02776     105.2743         5     1.050     0.420  83.21   0
        58    283.4576    899.0679 307.7885561  +6.2924938     782.7325     1786.004     2068.988     92.62292     184.4406     368.8811      2.805     4.26     1256.923     65.02776     102.0632         6     0.988     0.524 -13.09   0
        59    887.5789    892.4963 307.5372204  +6.3153831      5426.45     9918.267     10185.01     92.33028     184.2938     368.6977      1.956     4.58     1249.104     65.02776      649.187        35     1.669     1.208 -45.96   0
        60    425.6909    889.6887 307.7296501  +6.3011302     780.6027     1554.806      1566.08     92.47672     185.0997     369.0278      1.952     7.37     1255.319     65.02776     121.2108        10     2.061     0.739 -66.54   2
        61    422.5676    888.9673 307.7309751  +6.3013239     885.1249     1322.166     669.6429     91.88955     184.2204     368.6243      1.426     4.93     1255.303     65.02776     148.1058         8     1.104     0.659  79.47   3
        62    325.3346    888.5491 307.7714768  +6.2982430     5012.449     13229.39     14774.08     92.33027     184.4406     368.9178      2.434     6.36     1256.665     65.02776     591.2169        51     1.841     1.689 -70.95   0
        63    245.4516    887.5718 307.8047725  +6.2959714     3783.102     10249.46     11661.58      92.0367     184.6605     368.8078      2.475     6.59     1255.878     65.02776     491.8737        51     1.887     1.683 -61.45   0
        64    572.1602    881.5833 307.6689348  +6.3093752     661.6216     1580.302     1410.433     92.03669     184.3672      368.661      2.205     6.19     1252.754     65.02776     121.1986         6     1.679     0.641 -58.97   0
        65    902.4867    877.9853 307.5315032  +6.3218763     745.4479     1453.453     1767.091     92.03669     184.2204     368.7711      1.774     4.34     1248.226     65.02776     101.9965         8     1.197     0.448 -78.49   0
        66    739.7820    871.0197 307.5994928  +6.3193343     1189.547     2588.932      2624.65      92.1836     184.2938     368.8445      2.177     7.43     1250.522     65.02776     139.2157        19     1.538     1.195 -55.97   0
        67    970.6810    866.3297 307.5034992  +6.3289625     1005.219     1680.095     1746.035      92.7689     184.8802     368.9545      1.731     5.95     1246.691     65.02776     135.5992        11     1.162     0.857 -51.53   0
        68    658.2389    864.0262 307.6336859  +6.3195045      1409.29     3195.658     3447.675     92.03669     184.2938     368.7344      2.243     7.75      1251.52     65.02776     206.6135        25     1.640     1.311 -43.22   0
        69    525.0322    865.5662 307.6891030  +6.3144200     686.9319     1210.462     1431.463     91.88955     184.2204     368.6243      1.672     4.14     1253.113     65.02776     123.2531         5     1.074     0.457  64.20   0
        70    199.5686    859.7276 307.8248257  +6.3059402     1188.983     2881.506     2847.794     92.33027     184.5139     368.9178      2.508     8.87     1254.683     65.02776     170.9854        18     1.943     1.131 -66.31   2
        71     54.9145    860.6323 307.8850274  +6.3007138      1766.99     4210.853     4557.363     92.47671     184.2938     368.8445      2.349     6.94      1253.38     65.02776      212.465        31     1.631     1.473 -47.98   0
        72     72.8683    860.0994 307.8775699  +6.3015366     1169.872     2561.655     2775.156     92.47671     184.6605     368.8811      2.174     8.36     1253.122     65.02776     148.9912        20     1.607     1.215 -32.70   0
        73    655.0000    852.9430 307.6354103  +6.3239766     2470.379     3728.714     4490.086     91.59456     184.0734     368.5141      1.577     4.87     1250.682     65.02776     414.5587        14     1.591     0.590 -75.27   3
        74    651.9736    852.5850 307.6366827  +6.3240236     3533.714     6434.566     7303.794     92.03669     184.3672     368.8445      2.021     6.50     1250.723     65.02776     425.0841        29     1.914     1.054 -81.19   3
        75    789.5157    853.4390 307.5793778  +6.3282576     662.2579      1193.91     1116.657     92.47672     184.4406     368.8445      2.025     5.22     1248.419     65.02776     96.38171         5     1.105     0.696 -23.75   0
        76     14.4739    852.0504 307.9021590  +6.3029023     643.7345     1171.955     1633.709     92.47671     184.5872     368.9545      1.905     3.79     1253.373     65.02776     87.09229         6     1.354     0.305 -72.55   0
        77     26.0110    851.0944 307.8973877  +6.3036848     605.8847     1454.457     1149.424     92.03669     184.1469      368.661      2.382     6.30     1253.199     65.02776      88.3551         8     1.767     0.630 -49.18   0
        78    890.6808    849.4233 307.5373854  +6.3332870      2144.43     4319.091     4434.386      92.0367     184.1469     368.8445      2.060     5.15     1246.529     65.02776      224.911        29     1.461     1.333 -35.64   0
        79    336.0223    846.8709 307.7684437  +6.3158243     7660.208     21900.13      25126.4     92.03669     184.2938     368.9178      2.515     6.79     1255.682     65.02776     1013.287        61     1.939     1.761 -52.20   0
        80    935.9512    859.4736 307.5181935  +6.3306404     762.9745     1135.248     681.4459     92.47671     184.5872     368.9545      1.666     3.75     1246.931     65.02776     104.5646         6     0.808     0.499   0.10   0
        81    100.0865    837.4496 307.8670086  +6.3118100     965.4902     2244.036     2468.661     92.47671     184.4406     369.0278      2.445     8.19     1252.024     65.02776     121.0846        14     1.593     1.178  66.75   0
        82    415.8838    837.7664 307.7354980  +6.3222593     496.9748     1046.847     1441.555     92.47671     184.3672     368.8811      2.408     3.99     1253.461     65.02776     107.2542         5     1.043     0.436  14.63   2
        83     83.5364    830.6522 307.8741317  +6.3140636     1505.028     3285.782     4354.421     92.47672     184.4406     368.8811      2.695     7.23     1251.801     65.02776     225.4528        23     1.656     1.352  54.21   0
        84    880.8328    830.8409 307.5421150  +6.3406385     1447.304     2654.117     2829.621     92.18359     184.4406     368.7344      1.948     5.18     1245.374     65.02776     206.5294        20     1.447     1.038 -35.09   0
        85    815.2019    829.9324 307.5694769  +6.3388280     2116.968     4465.031     5334.528     91.88955     183.9998     368.6977      2.187     5.76     1246.152     65.02776     246.8147        30     1.632     1.273 -47.06   0
        86    851.5032    830.3808 307.5543445  +6.3398519     1449.972     2739.076     2994.274     92.33028     184.3672      368.661      2.013     4.65     1245.589     65.02776     199.8369        17     1.325     1.001 -33.88   0
        87    551.0273    821.8312 307.6797624  +6.3333623       160938     450490.3     512420.4     91.88955     184.2204     368.6977      2.499     6.54     1250.045     65.02776     17319.21       163     2.116     1.909 -54.28   0
        88    395.2434    824.6124 307.7445400  +6.3270047     3540.929     10457.62     11766.65     91.88955     184.3672     368.6243      2.555     7.41     1253.645     65.02776      429.899        52     1.938     1.727 -54.65   0
        89    338.6100    823.0367 307.7681767  +6.3257604     5570.538     16413.19     19397.85     91.88955     184.2938     368.6243      2.629     6.91     1255.125     65.02776      685.757        62     2.039     1.755 -52.75   0
        90    657.1271    818.6068 307.6356885  +6.3382374     1961.934         4652     5115.193     92.03669     183.9998     368.8445      2.218     7.15     1247.943     65.02776     227.2455        30     1.653     1.334 -44.16   0
        91    889.1334    817.6281 307.5391052  +6.3463753     3650.313     7923.983     9274.516      92.1836     184.4406     368.8811      2.240     5.63     1244.463     65.02776     393.1428        40     1.770     1.422 -45.11   0
        92    631.5715    813.3038 307.6465106  +6.3395760      1785.56     4440.726     5418.345     92.62292     184.2204     368.8811      2.478     8.04     1248.025     65.02776     187.0972        33     1.772     1.371 -44.93   0
        93   1022.4193    811.8347 307.4837945  +6.3532042      3756.15     6254.146     6362.462     91.88955     166.3898     300.3354      1.797     4.76     1241.427     65.02776     470.8466        26     1.522     1.030 -71.11  24
        94    819.2408    811.9373 307.5684040  +6.3463992     1026.957      2096.05     2005.029     92.47671     184.4406     369.0278      2.228     7.08     1244.706     65.02776     152.7104        14     1.618     0.867 -74.44   0
        95    624.6440    806.9227 307.6496118  +6.3419818     1054.092      2902.24     4511.439     92.33027     184.5139     368.9545      3.274     7.54     1247.744     65.02776     131.3265        14     1.616     0.986 -12.58   2
        96    908.2560    805.3382 307.5315573  +6.3520909      2201.64     4341.607     4436.018     92.62292     184.5139     368.9545      2.029     5.64     1243.461     65.02776     267.5623        27     1.668     1.112 -33.76   0
        97    366.2054    801.8222 307.7574068  +6.3354511     1110.748     3558.626     4244.394     92.03669     184.2204     368.7344      2.752    10.80     1253.973     65.02776     160.4427        30     1.961     1.658 -16.29   0
        98    502.5766    791.6083 307.7009647  +6.3442331     1432.725     4165.645     4767.877      92.0367     184.2204     368.7344      2.577     9.22     1250.046     65.02776     172.0315        34     2.022     1.517 -54.69   0
        99    549.8195    787.6904 307.6814240  +6.3474309     2918.587     8484.723     10591.63     92.33027     184.2204     368.7344      2.748     9.10     1248.109     65.02776     318.4205        55     2.330     1.743   1.50   0
       100    847.2117    789.3610 307.5575196  +6.3566610      827.396     1266.249     1790.583     91.88955     184.2938     368.6243      1.720     4.75     1243.079     65.02776      115.006         6     0.885     0.723  68.08   0
       101    107.6086    786.9229 307.8655986  +6.3329422     636.9841     1410.011     1644.564     92.03669     183.9263     368.7344      2.308     6.49     1250.673     65.02776      94.0459         9     1.468     0.806  79.18   0
       102    884.8895    785.4013 307.5419625  +6.3595522     901.4038     1752.287     1283.062     91.59456     183.9998      368.661      1.871     6.20     1242.616     65.02776     136.2572        10     1.331     0.810  -0.39   0
       103    520.1072    781.6058 307.6940039  +6.3489526     8795.659     25863.33     28797.76     92.03669     184.1469     368.6977      2.554     6.92     1248.756     65.02776     975.6221        68     2.056     1.782 -53.89   0
       104    469.3615    785.9965 307.7149872  +6.3454418     753.5719       1352.7     1119.326     91.44671     184.2204     368.6243      1.780     7.84     1250.617     65.02776     118.1002         8     2.360     0.729 -10.71   2
       105    466.7019    785.0002 307.7161286  +6.3457646     644.9539     1187.977     1480.449     91.88955     184.0734     368.4774      2.141     5.99     1250.577     65.02776     134.3716         7     1.211     0.857  80.62   2
       106    933.5637    779.3433 307.5218967  +6.3636760     2826.341      5617.71     5157.003     92.33027     184.5139     368.9545      2.049     5.07     1241.952     65.02776     315.7008        31     1.566     1.282 -57.69   0
       107    312.9826    770.0612 307.7806504  +6.3467946     1449.803     4089.565     3720.456     92.03669     184.4406     368.6977      2.441     9.14      1252.88     65.02776     217.5917        31     1.654     1.489  33.17   0
       108    778.1357    765.8898 307.5870811  +6.3640591      30626.5     75037.42     83117.48     92.33027     184.7338     368.9545      2.343     5.85     1242.744     65.02776     3263.846        80     1.946     1.688 -54.55   0
       109     13.5745    768.0795 307.9053982  +6.3375723      1062.86     2246.734     2915.693     92.18359     184.3672     368.8811      2.397     7.92     1249.236     65.02776     133.7482        15     1.685     1.041  47.61   0
       110    235.0112    742.8279 307.8140472  +6.3554367     750293.6      2586487      3169238     92.03669     184.2938     368.7711      2.894     5.69     1250.285     65.02776     64672.49       588     2.753     2.299 -85.03   4
       111    903.4404    761.1107 307.5350584  +6.3702082      5555.15     12174.53     12617.96     92.47671     184.5139     368.9545      2.204     5.25     1241.448     65.02776      603.302        48     1.826     1.466 -49.79   0
       112    706.3165    759.9013 307.6171936  +6.3641392     11366.53     30522.14     35847.52     92.47671     185.0266     369.0278      2.570     6.97     1242.976     65.02776     1190.652        57     1.937     1.766 -59.33   3
       113    700.0870    757.0715 307.6198838  +6.3651008      44525.8     119424.8     136096.5     92.62292      184.807     368.9178      2.479     6.45     1242.797     65.02776     4775.701       104     2.091     1.864 -53.93   3
       114    345.1650    758.2058 307.7676517  +6.3527714     8213.235     26503.82     30764.05     91.59456     184.2204      368.661      2.664     7.47     1251.858     65.02776     1022.403        72     2.072     1.904 -54.73   0
       115    406.9967    756.0425 307.7419761  +6.3557346     8875.497     28830.96     34079.79     91.74217     184.1469     368.5508      2.705     7.66     1250.149     65.02776     1125.908        77     2.131     1.905 -61.99   0
       116    943.7703    754.4373 307.5184881  +6.3743084     1472.759      2981.26     3155.433     92.03669     184.2204     368.7711      2.172     5.52      1240.48     65.02776     191.3013        19     1.466     0.935 -36.46   0
       117    900.2542    752.4546 307.5366781  +6.3736794     4402.154     9642.307     10002.54      92.7689     184.5139     368.9178      2.211     5.30     1241.056     65.02776     461.9441        45     1.738     1.505 -46.09   0
       118    639.5910    751.7738 307.6452573  +6.3652715     2789.605     5930.553     6986.963     92.03669     184.2938     368.7711      2.277     6.96     1243.883     65.02776     333.4196        30     1.862     1.200  81.24   3
       119    642.7271    751.0644 307.6439753  +6.3656693     2537.388      3908.83     4756.812     92.47671     184.5139     368.9178      1.642     4.10     1243.682     65.02776     339.9711        13     1.237     0.712  79.67   3
       120    430.9768    749.9498 307.7321968  +6.3590547      752.695      1771.44     2599.099     92.03669     184.5872     368.8078      3.076     6.46     1249.215     65.02776     168.9385        10     1.498     1.039 -84.14   0
       121    409.9486    738.7161 307.7413357  +6.3629936     22029.23     69734.38     82912.66     92.47671     184.4406     369.0278      2.706     7.53     1249.234     65.02776     2692.632        99     2.163     1.975 -57.40   0
       122    527.6168    737.5482 307.6923722  +6.3674107     2964.744     9197.336     10402.92     91.88955     184.5872     368.6243      2.633     7.01     1245.723     65.02776     343.7803        57     2.046     1.795 -59.67   0
       123    440.1196    729.1246 307.7290969  +6.3679666     1076.757     2872.958     3297.701      92.7689      184.807     369.0278      2.591     7.58     1247.691     65.02776     153.8058        15     1.852     0.867 -87.28   3
       124    442.0000    737.0120 307.7280458  +6.3647700     1252.176     1972.106     3643.884     91.88955     184.0734      368.661      2.602     5.74     1248.193     65.02776     167.1476        13     1.338     0.807  86.25   3
       125    445.6019    735.3612 307.7266019  +6.3655726     1937.977     4366.492      6623.23     91.44671     184.2204     368.6243      3.081     9.24     1247.933     65.02776      239.052        36     2.056     1.634  60.51   3
       126    772.7887    734.0212 307.5903871  +6.3770510     5991.487     15628.81     16863.07     92.03669     184.2204     368.7711      2.365     6.04     1241.423     65.02776     654.6343        54     1.855     1.658 -37.05   0
       127      3.7235    730.5440 307.9107811  +6.3527526      703.921     1322.688     1460.343     92.47672     179.7591     319.2486      2.064     4.71     1247.598     65.02776     111.1407         6     0.962     0.654 -62.59  16
       128    130.9217    726.5448 307.8579484  +6.3586753      5000.02     15329.58     18805.42     92.62292     184.5139     368.9545      2.792     6.92     1248.859     65.02776     679.5643        66     2.023     1.934 -71.75   3
       129    139.3572    726.4798 307.8544378  +6.3589851     1275.462     3704.662     4465.291     92.47672     184.5139     368.8811      2.706     9.94     1248.786     65.02776     209.8613        33     1.886     1.637  44.01   3
       130    123.3681    722.3047 307.8612385  +6.3601741     1492.553     4341.434     8254.509     92.62292     184.2938     368.9912      4.105    14.63     1248.461     65.02776     220.6991        49     3.309     1.798  88.49   3
       131    793.1010    727.9817 307.5821322  +6.3802239     613.7756     1193.552     1420.534     92.47671     184.3672     368.6243      2.184     5.74     1240.784     65.02776     124.3868         7     1.544     0.602 -84.16   0
       132    918.1771    722.4279 307.5302292  +6.3866850     4371.958     9592.451     10438.55     91.88955     184.2938     368.7344      2.215     5.32     1239.249     65.02776     528.9606        41     1.779     1.417 -47.07   0
       133    966.8845    722.4596 307.5099426  +6.3882929     1129.767     2262.135      2190.57     92.62292     184.5872     369.0278      2.104     6.28     1237.844     65.02776     139.2986        15     1.269     0.962 -64.18   0
       134    560.9122    719.3994 307.6791221  +6.3760232     1033.244      2955.07     3778.954     91.59456     183.9263     368.5876      2.707     9.98     1243.705     65.02776     145.0046        25     1.839     1.544 -66.24   0
       135    673.4797    719.4604 307.6322395  +6.3797563     882.3457      2201.03     3382.335     92.62292     184.5139     368.8811      2.877     7.75     1240.592     65.02776     135.8629        12     1.814     0.927 -32.93   0
       136    676.2228    741.7339 307.6303421  +6.3706431     1249.596     3367.248     3624.443     92.03669     184.5139     368.8078      2.433     8.76     1241.647     65.02776     160.9231        24     1.520     1.409  -6.39   0
       137    941.7320    714.2083 307.5206971  +6.3908659     2000.127     4343.333     4186.393     91.88955     184.2204     368.8078      2.101     6.04     1238.143     65.02776     213.2482        29     1.648     1.206 -44.07   0
       138    912.2776    714.3563 307.5329592  +6.3898244      1786.93     3984.682     4520.585     92.33027     184.5139     368.9178      2.241     6.46     1238.717     65.02776     217.7428        31     1.742     1.297 -35.88   0
       139    972.5834    713.8370 307.5078606  +6.3920459     1359.006     2416.918     2481.113     91.88955     184.3672     368.6243      1.874     7.08     1237.212     65.02776     146.1454        17     1.309     1.091 -31.82   0
       140    665.9491    712.8858 307.6355987  +6.3822220     642.9161     1838.723     2762.535     92.47671     184.3672     368.9912      3.162     5.22     1240.658     65.02776     120.0413         6     1.945     0.396  46.42   0
       141    240.0000    708.8442 307.8131266  +6.3696476     801.8631     1541.119       3047.6     91.59456     184.0734     368.4407      2.093     4.41     1248.013     65.02776     168.1095         5     1.101     0.503 -80.30   2
       142    236.1240    707.6020 307.8147831  +6.3700310     1001.944     2141.049     3578.226     91.74217     183.9263     368.8078      2.751     5.80      1247.91     65.02776     127.3049        11     1.374     0.688 -17.59   2
       143    956.6862    701.6659 307.5148929  +6.3965469     1506.782     3086.523     3326.416     92.47672     184.7338     368.9912      2.085     6.42     1236.943     65.02776     181.5306        24     1.550     1.185 -47.70   0
       144    902.9992    702.5638 307.5372223  +6.3943889     705.4784     1423.697     1968.253     91.44671     184.2938     368.6977      2.309     3.57     1238.063     65.02776      132.592         5     0.958     0.524 -75.15   0
       145    998.4125    695.1657 307.4977341  +6.4006213     1129.426     2132.083     2076.508     91.88955     184.2938     368.7711      1.888     5.07     1235.742     65.02776     182.9006        12     1.218     1.065  19.17   0
       146    885.3740    690.3392 307.5449765  +6.3988541     789.6819     1911.781     2780.372     92.03669     184.5139     368.7711      2.500     5.84     1237.554     65.02776      121.514         8     1.423     0.675 -44.71   0
       147     42.9708    681.8293 307.8960993  +6.3742016     1296.054     3291.988     3879.963     91.88955     184.2204     368.6243      2.538     7.26     1245.734     65.02776     183.4631        24     1.658     1.520  -4.28   0
       148    841.8521    681.9619 307.5633863  +6.4008667     780.3562     1532.013     1751.519      92.1836     184.5872     368.9178      2.546     5.64     1237.641     65.02776     99.33875         8     0.974     0.919 -64.71   0
       149    654.9943    670.0204 307.6416145  +6.3995710     2713.597     8022.882     8571.458     92.03669     184.1469     368.6977      2.493     7.02     1239.099     65.02776     276.0035        47     1.923     1.652 -52.40   0
       150    119.1144    666.5291 307.8649111  +6.3830803     1556.826       3572.2     4697.484     92.62292      184.807     368.9545      2.619     8.30     1244.444     65.02776     231.7363        33     1.952     1.555 -38.84   2
       151    116.0000    664.9838 307.8662608  +6.3836144     795.0685     1442.204     2189.851     91.88955     183.9263     368.5876      1.968     3.90     1244.385     65.02776     129.3019         5     1.092     0.399 -89.86   3
       152    627.5764    666.0470 307.6531683  +6.4002978     859.5591     2156.058     2624.583     92.03669     184.5139     368.7711      2.820     7.35     1239.346     65.02776     127.4519        11     1.663     0.910  79.85   0
       153    990.8869    665.5823 307.5018683  +6.4125968     1650.153     3541.452     3994.691      92.1836     184.2204     368.7711      2.189     6.61      1234.57     65.02776     253.9512        18     1.603     1.016  85.97   2
       154    771.7244    662.0901 307.5932666  +6.4067420     9840.688     26728.35     30127.16     92.47671      184.807     368.9545      2.488     6.36     1237.039     65.02776     1031.611        68     2.035     1.721 -51.03   0
       155    631.3792    665.3917 307.6516068  +6.4006956     671.0906     1275.657     1972.922      92.0367     184.2204      368.661      2.153     3.48     1239.212     65.02776     101.5071         5     1.033     0.339 -69.13   0
       156    901.7404    661.7319 307.5391278  +6.4112215     2050.335     5254.648     5538.232     92.62292     184.4406     368.9178      2.410     6.02     1235.356     65.02776      264.231        39     1.839     1.492 -48.06   0
       157    245.2816    656.0452 307.8127247  +6.3916437     2422.663     8321.363     10438.84     92.47671     184.5139     368.8811      2.940     7.94     1244.514     65.02776     297.5081        53     1.990     1.913 -86.34   0
       158    651.1804    655.3448 307.6437006  +6.4055085     2827.003     6480.972     6904.059     91.88955     184.5139     368.6977      2.267     8.03     1238.091     65.02776     280.3199        35     1.988     1.230 -77.76   3
       159    654.4427    654.7780 307.6423611  +6.4058517     2146.429     3036.356     3081.127     91.88955     184.3672     368.7344      1.467     3.96     1238.034     65.02776     305.3033        13     1.285     0.643 -84.36   3
       160    911.7596    646.9913 307.5354534  +6.4176468     767.2721     1504.143     1402.335     91.74217     184.2938     368.5876      2.007     5.46     1234.169     65.02776     90.46167         9     1.261     0.666 -28.13   0
       161    725.6631    643.3471 307.6130858  +6.4129518      1619.95     3188.603     5431.716     92.47672     184.4406     368.8811      3.020     8.28     1236.506     65.02776     162.2512        25     1.777     1.078 -79.90   2
       162    722.4985    642.8497 307.6144207  +6.4130518     1398.956     3043.788     3931.803     92.47672     184.4406     369.1378      2.420     6.55      1236.53     65.02776      210.038        14     1.859     0.648 -81.30   3
       163    990.1153    639.7859 307.5030615  +6.4232319     5870.556        12440     13494.74     92.03669     184.2204     368.7711      2.167     5.06     1233.174     65.02776     713.0739        43     1.754     1.412 -56.88   0
       164     11.6803    639.8025 307.9105642  +6.3905180     1019.038     2285.606     3379.626     91.74217     183.9263     368.6243      3.174     7.03     1244.074     65.02776     148.0172        14     1.600     0.874 -59.44   2
       165    928.4939    640.0068 307.5287197  +6.4210903     1358.956     3424.755     3762.358     92.03669     184.1469     368.6977      2.382     8.80     1233.359     65.02776     151.3993        26     1.779     1.216 -38.10   0
       166     67.9062    635.2723 307.8873030  +6.3942782     9755.246     33392.77      39815.3     92.33027     184.5872     368.9545      2.748     7.53     1243.557     65.02776     1586.048        82     2.166     1.987 -82.14   0
       167    527.0297    635.8423 307.6960697  +6.4094217     697.6482     1661.068     2392.262     92.03669     184.4406     368.7344      2.565     9.74      1239.87     65.02776     110.6621        11     1.898     1.394  45.17   2
       168    531.0734    635.2184 307.6944068  +6.4098147     789.3982     1297.054     2451.267     91.88955     184.4406     368.8078      2.677     4.58     1239.674     65.02776     106.3921         7     0.878     0.764  83.37   3
       169    735.6980    625.2357 307.6095200  +6.4207713     1807.765     5134.979     6128.951     92.47672     184.3672     369.1012      2.594     8.92     1235.218     65.02776     211.4731        41     1.972     1.553 -51.46   0
       170    713.4902    627.0531 307.6187080  +6.4192795     1514.189     4590.628     5664.657     92.47671     184.2938     369.0645      2.675     8.44     1235.478     65.02776     177.3884        40     1.860     1.637 -26.53   0
       171    536.5825    628.8227 307.6923294  +6.4126418     517.3742     930.7451     1418.397      92.1836     184.3672     368.8445      3.441     4.60     1239.229     65.02776     76.32275         5     1.165     0.517 -31.65   0
       172    565.8827    625.0571 307.6802539  +6.4151770     1188.364     2137.755       2265.1     92.47671     184.5139     368.9912      1.876     5.13     1238.078     65.02776     181.0525        11     1.194     0.691  35.64   3
       173    569.0157    623.1097 307.6790151  +6.4160864     1127.309     2171.208      2855.99      92.1836     184.2938     368.7344      2.178     6.97     1237.879     65.02776     149.7767        14     1.695     0.802  78.78   3
       174    565.5733    621.9880 307.6804870  +6.4164350     1143.731     1867.443     2083.717     92.03669     184.2938     368.8445      1.844     5.52     1237.938     65.02776     162.7815        10     1.016     0.942 -10.17   3
       175    229.6202    623.9526 307.8203400  +6.4043810     850.4427     1791.155     2984.087     92.03669     184.5139     368.6977      3.154     7.06     1242.923     65.02776     131.9596        11     1.686     0.829 -63.50   0
       176   1008.3541    621.2330 307.4960918  +6.4315058     3431.642     7057.703     6675.209      92.1836     184.5139     368.8445      2.058     5.00     1232.132     65.02776     399.5571        35     1.646     1.328 -50.51   0
       177    973.8077    620.2414 307.5105144  +6.4307665     5006.317     11079.02     12037.23     91.74217     184.2938     368.5876      2.188     5.38     1232.112     65.02776     611.0885        47     1.840     1.447 -58.35   0
       178    132.6072    614.1812 307.8610763  +6.4051656     8565.895     30487.57     36279.02     92.03669     184.1469     368.7344      2.766     7.78     1243.092     65.02776     1354.599        79     2.200     1.982 -81.53   0
       179    420.6764    614.0600 307.7411048  +6.4148671     1073.106     3069.027     4160.267     92.62292     184.5872     368.8811      3.148     9.45     1240.268     65.02776     140.0574        22     1.747     1.427  63.67   2
       180    968.7262    602.9633 307.5132150  +6.4377379     4254.744     10143.74     11531.71     92.33027     184.5872     368.9545      2.367     5.48     1231.018     65.02776     450.3113        47     1.732     1.608 -64.84   0
       181   1022.9642    598.3059 307.4907812  +6.4414667        55122     85853.69     89425.83     89.65346     158.4758     291.1385      1.661     4.96     1230.431     65.02776     7284.392        54     1.831     0.945 -86.99  24
       182    562.3909    598.6851 307.6826034  +6.4259588     17182.73     60443.56     72192.28      92.0367     184.1469     368.7344      2.791     8.22     1236.905     65.02776     2165.749        94     2.218     2.002 -57.55   0
       183    170.4123    595.2246 307.8459775  +6.4142675     1203.105     3767.635     5208.728     92.03669     184.2938     368.8445      2.938    10.68     1242.209     65.02776     152.6952        31     1.879     1.691  35.81   0
       184    459.7049    582.5775 307.7259195  +6.4291829     20714.03     77780.82     95731.98     92.47672     184.2938     368.7344      2.887     8.54     1237.867     65.02776      2804.62       106     2.289     2.098 -56.28   0
       185      5.8185    584.4183 307.9148956  +6.4132080     774.5558     1340.346     1404.841      92.1836     184.2938     347.8882      1.786     4.37     1242.363     65.02776     98.49683         7     0.894     0.609 -81.55  16
       186    134.5045    579.6815 307.8614622  +6.4194860     676.3945     1694.847     2045.875      92.1836     184.8802     369.0278      2.684     6.28     1241.462     65.02776     99.35547         7     1.504     0.737 -23.14   0
       187    307.1474    570.2487 307.7898792  +6.4291718     927.9243     2097.395     3466.401     92.62292     184.3672     368.9178      3.956     8.39     1237.472     65.02776     126.6448        14     1.762     1.117  15.52   2
       188    733.7106    565.8854 307.6123589  +6.4452322     1645.266     2889.641     3544.528      92.1836     184.8802     369.0645      1.803     5.72     1231.174     65.02776     283.2179        13     1.720     0.535 -64.11   3
       189    730.6785    564.8580 307.6136567  +6.4455557     2183.902     4906.612     5934.068     92.47671     184.5139     368.8811      2.438     8.76     1231.109     65.02776      237.725        33     2.099     1.225 -72.40   2
       190    783.9800    561.0388 307.5915847  +6.4489113     6319.396     13695.31     15892.52     92.03669     184.2938     368.6243      2.256     6.46     1230.579     65.02776     742.3872        43     2.141     1.220 -85.99   3
       191    787.3252    560.5230 307.5902088  +6.4492359     4703.743     7228.183     8150.235      92.7689      184.807     368.9912      1.690     4.56     1230.564     65.02776     598.4131        23     1.638     0.854 -85.91   3
       192   1023.5259    560.4615 307.4918259  +6.4571252     959.6539     1551.334     1539.538      82.7464     149.1505     280.3896      1.679     5.50      1226.71     65.02776     154.1176        11     1.417     0.601 -87.53  24
       193    611.1849    558.3954 307.6636475  +6.4442386     1053.004     1959.281     3266.902     92.03669     184.1469     368.7344      2.204     6.80     1232.666     65.02776     147.5142        11     1.762     0.736 -88.18   3
       194    607.8492    559.7656 307.6649903  +6.4435609     1265.809     2885.392     3221.987     92.33027     184.5139     368.8445      2.366     7.40     1232.871     65.02776     141.6079        19     1.678     0.987 -82.04   2
       195    529.8221    559.8198 307.6974881  +6.4409318     527.8973     1276.713     2049.317     92.18359     184.4406     368.8445      2.551     5.42      1235.31     65.02776     81.59668         6     1.341     0.618 -76.90   0
       196    861.1690    544.0416 307.5600086  +6.4585076     1340.047     3664.322      4307.83     91.88955     184.3672     368.7344      2.501     8.99     1229.219     65.02776     178.7578        28     1.620     1.392 -48.59   0
       197    819.4092    541.8184 307.5774783  +6.4580352     1243.944     3189.169     4014.056      92.1836     184.2204     368.7344      2.469     8.91      1229.43     65.02776     172.0912        25     1.686     1.461 -54.82   0
       198    800.4521    533.0406 307.5856718  +6.4610309     68169.82     206220.3     240324.1     92.47671     184.5872     368.9178      2.660     7.38     1229.098     65.02776     7389.465       161     2.439     1.989 -39.05   0
       199    250.3065    537.0574 307.8146834  +6.4409836     2970.354     6217.266     7282.615     92.33027     184.5139     369.1012      2.409     9.39     1236.716     65.02776     371.5586        40     2.329     1.671 -46.38   3
       200    246.3512    535.9581 307.8163683  +6.4413054     2226.285     3977.057     4823.069     92.47671     184.4406     368.8445      2.031     6.95     1236.767     65.02776     288.6517        17     2.265     0.597 -70.47   3
       201    182.4395    531.8716 307.8431270  +6.4408513      18741.8     72866.01     90051.95     92.33027     184.5139     368.9912      2.902     8.33     1237.759     65.02776     2880.279       107     2.308     2.115 -61.67   0
       202    106.5596    528.0114 307.8748627  +6.4399006     2093.247     7684.509     9152.116     91.74217     184.2938     368.6243      2.822     7.87      1238.89     65.02776     331.9484        52     2.018     1.875 -27.02   0
       203    970.4067    524.2682 307.5151756  +6.4703159     847.9607     1477.635     1629.529     91.88955     184.1469     368.7344      1.872     5.59     1224.892     65.02776      129.283         9     1.383     0.637 -78.38   0
       204    837.0589    520.4610 307.5708496  +6.4674495     1902.792     5680.766     5999.838     92.47671     184.4406     368.9545      2.476     8.17     1228.068     65.02776     248.7612        40     1.795     1.638 -33.04   0
       205    355.7565    518.7501 307.7713852  +6.4520815     5191.991     20910.21     25688.38     92.62292     184.4406     368.9545      2.950     8.72     1233.469     65.02776     749.3849        77     2.258     2.070 -59.28   0
       206    159.8738    517.7444 307.8530072  +6.4459324     900.1198     2204.096     3794.113     92.33027     184.3672     368.8445      3.461     5.40      1236.96     65.02776     133.5913        10     1.231     0.808  67.04   2
       207    522.1251    513.5152 307.7022666  +6.4598103     1990.962     7849.302     9159.141     92.62292     184.8802     368.9912      2.846     9.61      1231.45     65.02776     310.9978        54     2.171     1.875 -54.91   0
       208    789.7504    513.6187 307.5907874  +6.4687006     2378.808     5310.299     6452.559     91.88955     184.5872     368.6977      2.403     7.78     1228.132     65.02776     258.5986        31     2.048     1.115 -79.79   2
       209    793.0000    514.0151 307.5894203  +6.4686451      1859.61     3160.814     3933.529     91.88955     184.0734     368.5876      1.918     4.51     1228.122     65.02776     249.2649        14     1.298     0.775 -87.73   3
       210    170.1481    506.6299 307.8491066  +6.4508701     2506.559     7128.936     8744.045      92.1836     184.6605     368.8078      2.724     9.06      1235.93     65.02776     312.2032        47     2.094     1.739  70.21   2
       211    166.6294    508.4109 307.8505115  +6.4500160     1526.005     2522.915     3376.933     91.88955     184.2938     368.7344      1.643     5.06     1236.052     65.02776     222.4839        11     1.658     0.436  73.41   3
       212     41.5718    505.4493 307.9026998  +6.4470422      2155.14     6120.709     7863.488      92.0367     184.5872     368.8078      2.831     8.12     1238.815     65.02776      325.229        41     2.181     1.745  80.06   2
       213    264.3352    503.4252 307.8099855  +6.4553523     25369.19     106345.4     133409.4      92.0367     184.5139     368.8078      2.975     9.27     1233.592     65.02776     4212.077       121     2.350     2.191 -57.36   0
       214    565.6997    505.3585 307.6843933  +6.4646372     953.5642     1886.353     2509.362     92.47672     184.3672     369.1745      2.369     5.96     1230.303     65.02776     130.5845        10     1.325     0.755 -52.82   0
       215    569.8334    505.3973 307.6826702  +6.4647593     569.2468     1119.491     2506.342     91.59456     184.2938     368.6243      2.834     3.18     1230.252     65.02776     104.0106         5     0.732     0.455 -18.40   1
       216    964.7071    497.7444 307.5184466  +6.4810876     809.1697     1766.865     1729.024     92.33027     184.5139     369.1378      2.163     6.87     1223.291     65.02776     103.7081         8     1.798     0.735 -43.44   0
       217    785.8960    495.0308 307.5930225  +6.4762538     6639.896      14035.5     15592.89     92.62292     184.2204     368.9912      2.185     6.91     1227.174     65.02776     719.8218        40     2.115     1.119 -81.37   3
       218    789.4196    494.8150 307.5915621  +6.4764604     5417.635     9332.998     10404.36      92.1836     184.2204     368.8078      1.852     7.63     1227.159     65.02776     675.7181        27     1.988     0.820 -73.84   3
       219    490.9648    493.9820 307.7159093  +6.4668408     14159.36     51842.33     67980.99     91.88955     184.2938      368.661      3.036     8.48     1229.704     65.02776     1604.521       112     2.356     2.243 -43.26   0
       220    962.4703    495.9503 307.5194390  +6.4817546      706.482     1509.465     1665.255     92.47671     184.4406     368.9545      2.267     3.92     1223.244     65.02776     128.4786         5     1.099     0.449  77.44   0
       221    205.3159    492.1798 307.8349511  +6.4580209       775.47     1887.588     2509.129     92.03669     184.1469     368.8445      3.052     8.18     1234.263     65.02776     99.06372        12     1.543     1.213 -59.00   2
       222    653.0058    488.3726 307.6486032  +6.4745724     944.6937     2210.476      4949.52     91.88955     184.2938     368.6977      4.260     9.27     1227.372     65.02776      130.498        15     2.225     1.077 -67.49   2
       223    649.6324    486.9738 307.6500558  +6.4750379     999.8145     2404.262     3718.889     91.88955     184.2204     368.7344      2.736     6.72     1227.414     65.02776     143.3851        11     1.635     0.775  86.22   3
       224    714.5774    489.5320 307.6229165  +6.4761479     637.2719      1620.89     2618.448      92.0367     184.4406     368.8811      3.445     3.77     1227.071     65.02776     110.3538         6     0.931     0.689 -65.18   2
       225    319.0305    485.3553 307.7878187  +6.4646521     1122.346     2615.982     4936.463     92.03669     184.5872     368.7344      3.766     7.15     1231.338     65.02776     157.7772        19     1.585     1.144  14.83   2
       226    319.1154    480.9740 307.7879325  +6.4664655     1249.032     2747.858      4304.11     92.62292     184.2204     368.7711      2.968     7.26     1231.051     65.02776     195.4642        15     1.674     0.880   8.52   2
       227    135.4939    481.8997 307.8643836  +6.4599270     8172.964     31942.93     39455.44     92.47671     185.0997     368.7344      2.904     8.52     1234.692     65.02776     1338.516        90     2.270     2.102 -81.38   0
       228    501.2331    481.3169 307.7120625  +6.4724181     707.6674     2033.113     2419.762     92.47672     184.2938     368.8811      2.916     7.12     1228.491     65.02776     109.1689        10     1.598     0.889  54.21   0
       229     98.6224    482.5990 307.8797173  +6.4584006     733.6827     1454.189     2336.578      92.0367     184.1469     368.5876      2.453     9.90     1235.665     65.02776     121.2161        13     3.302     0.827  88.75   2
       230    102.4084    480.1334 307.8782245  +6.4595465     1058.282     2087.448     2327.489     91.88955     184.2204     368.7344      2.186     6.62     1235.411     65.02776     165.4501        14     1.779     1.003 -77.68   2
       231    863.5378    480.2409 307.5611814  +6.4849531     753.3759     1649.895     1686.903     92.47672     184.4406     368.9545      2.161     6.36     1225.471     65.02776     104.2946        10     1.448     1.049   8.92   0
       232    960.5900    475.7672 307.5209048  +6.4900331     2760.905     6862.429     7235.711     91.88955     184.2204     368.7344      2.309     5.95     1221.941     65.02776     323.8695        45     1.895     1.541 -63.79   0
       233      1.8241    466.2083 307.9205944  +6.4619229     9943.598     15160.18     15927.68     86.89423     155.0227     286.6891      1.606     4.99       1237.9     65.02776     1511.222        30     1.795     0.797 -85.96  24
       234    432.3370    462.7596 307.7413912  +6.4777827     12580.95     50646.79     63775.24     92.47672     184.4406     368.9545      2.977     9.06     1228.461     65.02776     1892.183        99     2.325     2.140 -59.78   0
       235    639.2744    462.5302 307.6551997  +6.4847936     4292.899     12083.71     14719.18     92.62292     184.6605     368.9178      2.697     8.09      1226.16     65.02776     477.1168        52     2.252     1.574 -85.62   2
       236    642.6158    462.2036 307.6538188  +6.4850402     3809.805     5876.738     6483.253     92.03669     184.0734     368.7344      1.675     4.63     1226.015     65.02776     481.0718        14     1.314     0.735 -68.49   3
       237    197.6824    460.5737 307.8392075  +6.4708261     5993.991     23778.26     29944.67     92.33027     184.2204     368.8445      2.980     8.84     1231.972     65.02776     859.9468        83     2.240     2.174 -79.85   0
       238    563.6627    459.9782 307.6867824  +6.4833229     1044.184      2266.25     2988.221     92.03669     184.5139     368.7711      2.302     7.78     1226.462     65.02776     128.4857        15     1.866     0.907 -58.59   2
       239    560.0000    460.9559 307.6882749  +6.4827965       662.56     1240.815     1623.986     91.59456     184.0734     368.4407      1.498     3.78     1226.553     65.02776     122.9423         5     1.133     0.363  82.81   3
       240    561.1232    457.5008 307.6879244  +6.4842619     843.0093     1355.121     1643.718     92.03669     184.6605     368.9178      1.640     5.71     1226.279     65.02776     108.3318         9     1.265     0.725 -13.69   3
       241    934.8263    456.0471 307.5323040  +6.4973253     2521.501     5266.974     5700.553     92.03669     184.5872     368.8078      2.167     5.77     1221.076     65.02776     287.9718        32     1.787     1.211 -86.42   2
       242    938.0000    455.1075 307.5310137  +6.4978192     1351.515     1975.956     2712.985     91.88955     183.9263     368.5141      2.070     4.96     1220.933     65.02776     261.6418        11     1.476     0.687  76.74   3
       243    609.1235    454.5502 307.6680299  +6.4870847     2280.573     7894.092     9411.295     92.33027     184.5872     368.9178      2.820     8.42     1226.004     65.02776     284.0354        53     2.140     1.771 -54.66   0
       244    958.4166    448.1092 307.5227455  +6.5013908     1850.545     4566.421     4835.533      92.1836     184.2204     368.8078      2.344     7.92     1220.027     65.02776     233.8723        31     1.637     1.443 -61.91   0
       245    523.1593    445.9618 307.7041302  +6.4877617     2576.733     5781.069     8739.224      92.1836     184.5872     368.7711      3.277    10.75     1225.204     65.02776     305.0104        43     2.348     2.114 -34.97   2
       246    520.0165    445.9711 307.7054390  +6.4876528     2261.882     4336.725     5862.229     92.03669     184.2204     368.8445      2.137     7.12     1225.208     65.02776     245.9847        18     2.153     0.660 -60.61   3
       247    367.6490    448.4290 307.7688238  +6.4815400     799.6877     2426.243      3715.34      92.0367     184.5872     368.8078      3.146     8.56     1227.396     65.02776     132.4017        14     1.787     1.145 -20.97   2
       248    877.8290    441.5078 307.5565393  +6.5014361     1550.395     4229.664     5432.095     92.62292     184.2204     368.8078      3.084     9.30     1221.741     65.02776     164.5343        35     1.903     1.548 -39.33   0
       249    884.4554    435.8782 307.5539694  +6.5039833     1064.346      2369.58     3312.106     92.62292     184.5139     368.9545      2.448     6.55     1221.026     65.02776     166.7689        12     1.710     0.703 -87.79   0
       250    708.1057    432.3598 307.6275505  +6.4995590     1224.577     2596.608     3249.974     92.62292     184.4406     369.0278      2.221     8.80     1223.329     65.02776     160.3279        21     1.962     1.101  68.82   3
       251    711.0009    431.4408 307.6263756  +6.5000354      1146.11     1976.338     2835.298     91.74217     184.1469     368.5876      2.378     5.45       1223.2     65.02776     135.8987        11     1.091     0.767  82.84   3
       252    382.6319    429.9821 307.7632102  +6.4896648     1261.525     2811.369     4212.778     92.03669     184.2938     368.7711      3.045     7.97     1225.314     65.02776     152.4828        18     1.702     1.045 -79.97   2
       253    378.4799    432.4102 307.7648572  +6.4885224     1178.649      2581.15     3691.987      92.0367     184.1469     368.7711      2.800     5.32     1225.567     65.02776     144.9088        13     1.372     0.789  54.56   2
       254     72.7999    432.0371 307.8921977  +6.4784279     846.9509     1814.577     2134.471     91.29861     184.2204     368.6977      2.471     6.46     1234.873     65.02776      129.254        10     1.435     0.817 -64.50   0
       255    605.9856    428.4745 307.6702220  +6.4977559     3067.888     5788.857     7456.006     91.88955     184.2204     368.7711      2.070     5.91     1223.532     65.02776     392.1918        23     1.665     1.011  37.68   3
       256    609.8207    426.2981 307.6686983  +6.4987834     3408.857     5813.126     6611.374     92.33027     184.2938     368.6243      1.881     5.77     1223.355     65.02776     428.9167        26     1.773     0.980  79.50   3
       257    606.3552    425.3463 307.6701742  +6.4990609     3243.609     5171.258     6334.442     92.47672     184.5139     368.9545      1.804     4.75     1223.258     65.02776     360.0035        17     1.169     1.007 -84.49   3
       258    768.8712    423.2737 307.6025455  +6.5053407      6475.74     14368.12     16511.23      92.7689     184.6605     368.9545      2.291     7.53     1221.416     65.02776     693.5461        42     2.259     1.179  89.15   3
       259    772.6156    422.7930 307.6010019  +6.5056642     5556.003     10316.31     12946.49     92.03669     184.2204     368.7344      2.114     6.23     1221.342     65.02776     618.9896        33     1.858     1.035 -72.71   3
       260    291.5467    425.6203 307.8013001  +6.4884169     905.3249     1970.293      2965.89     91.88955     184.5139     368.6977      2.628     8.62     1225.902     65.02776     146.3926        13     2.089     0.994 -34.62   2
       261    289.4117    422.1900 307.8023061  +6.4897629     884.6069     1892.116     2766.977      92.1836     184.2938     368.8811      2.758     8.20     1225.572     65.02776     142.8337        13     1.698     1.108 -23.51   2
       262    374.7890    419.4329 307.7668360  +6.4937617       678.19     1902.977     3068.173     91.88955     184.2204     368.7344      3.784     7.81     1224.134     65.02776     97.97986        13     2.226     0.766  39.32   0
       263    955.5554    418.1054 307.5249522  +6.5136951     1038.718     2503.812     1922.327     92.47671     184.4406     369.0645      2.267     7.46     1217.892     65.02776     155.7094        19     1.541     1.327 -43.68   0
       264    109.5425    416.1288 307.8774358  +6.4862355     1647.613     4325.187     6126.217     92.62292     184.5139     368.8811      3.025     9.20     1233.157     65.02776     219.0791        31     2.258     1.629 -51.70   2
       265   1009.4006    412.8349 307.5026994  +6.5176647     2483.721     6158.095     6439.437     91.44671     184.2938     368.6977      2.324     6.34     1217.287     65.02776     285.4025        39     1.726     1.577 -29.14   0
       266    748.2405    413.6003 307.6114675  +6.5086504     874.9705     1811.203     2405.425     91.59456     184.1469     368.5508      2.259     5.87     1221.119     65.02776     122.1516        10     1.423     0.681 -86.40   2
       267    744.6311    412.5986 307.6130050  +6.5089440     714.2094     1726.679     2105.069     91.74217     184.2938      368.661      2.004     4.01     1221.118     65.02776     108.2733         6     1.390     0.331 -48.38   2
       268    344.1428    412.9649 307.7798219  +6.4954085     955.9429     2115.897     3585.798     92.33027     184.5139     368.9545      2.849     7.44     1224.025     65.02776     156.0292        12     1.997     0.776 -10.14   2
       269    341.3483    410.7067 307.7810628  +6.4962481     804.7684     1701.573     3148.819     92.33027     184.3672     369.1745      2.153     3.50     1223.975     65.02776     118.5758         5     0.779     0.454  62.60   3
       270    343.0762    408.0762 307.7804325  +6.4973930     865.4675      1921.98     3052.949      92.7689      184.807     369.0278      3.155     6.08     1223.798     65.02776     136.0747         8     1.202     0.865   9.10   3
       271    707.7573    395.3647 307.6289500  +6.5148360     5592.231     14630.62     17442.96      92.1836     184.5139     368.6977      2.530     7.06     1220.611     65.02776     597.3528        48     2.265     1.295  83.92   3
       272    711.1823    394.6615 307.6275471  +6.5152409     5136.306     8977.043     9991.738     92.03669     184.4406     368.6977      1.875     4.72     1220.569     65.02776     589.8694        24     1.624     0.930 -89.15   3
       273    825.2734    398.0519 307.5799040  +6.5176439     819.8413     2063.383      2200.61     92.47671     184.5872     368.9545      2.429     6.80     1218.983     65.02776     124.7571        11     1.561     0.831  37.22   0
       274    813.5154    397.6281 307.5848165  +6.5174273     735.3492     1425.243     2223.474     92.62292     184.1469     368.7711      2.430     5.57     1219.106     65.02776     95.60095         7     1.529     0.571 -60.12   2
       275    810.4534    396.1292 307.5861428  +6.5179446     1008.133      2203.43     2976.272     92.33027     184.4406     368.8078      2.469     6.92     1219.038     65.02776     132.8408        15     1.671     0.898 -65.53   2
       276    628.7883    393.0964 307.6619236  +6.5131376     847.7146     2314.623     4183.839      92.1836     184.2204     368.6977      3.896     7.50     1220.386     65.02776     116.6279        12     1.454     1.084  11.47   2
       277    602.2730    386.3517 307.6731982  +6.5150394     5815.134     19318.84     29204.09     92.47672     184.5872     368.9545      3.336     8.24     1219.448     65.02776     786.5471       103     2.759     2.191  32.35   0
       278    932.6371    384.7967 307.5356263  +6.5266976     1793.993     3243.138     3880.065     91.44671     184.2938     368.6977      1.945     6.42     1215.763     65.02776     220.4198        20     1.611     0.894 -83.88   3
       279    935.7452    383.7722 307.5343662  +6.5272245     1519.301     3053.303     3835.196      92.1836     184.5872     368.7711      2.169     7.65     1215.669     65.02776     180.7015        18     2.087     0.784  82.54   3
       280    373.3642    381.2798 307.7687275  +6.5094808     8297.335     34684.72     44693.04     92.33027     184.5872     368.9178      3.038     9.89     1221.651     65.02776     1331.175        93     2.348     2.170 -58.20   0
       281    121.1621    379.7840 307.8738353  +6.5016448     918.3317     2255.872     3298.975      92.1836     184.2938     368.6243      3.095     5.52     1230.836     65.02776     137.9896         9     1.235     0.807  65.32   2
       282    888.8699    380.2751 307.5540124  +6.5271090     745.9807     2130.456     3063.659     92.62292     184.6605     368.9178      3.066     6.22     1216.502     65.02776      114.467         8     1.440     0.756  60.73   0
       283    901.7779    375.2144 307.5488063  +6.5296303     2424.059      5283.83     6309.637      92.1836     184.2938     368.8078      2.333     6.28     1215.807     65.02776     293.4844        32     1.786     1.265 -89.11   2
       284    905.0000    374.9413 307.5474732  +6.5298504     1673.206     2504.455      3375.06     91.59456     184.0734     368.5141      1.581     4.13     1215.731     65.02776     291.2795        10     1.380     0.531 -86.42   3
       285    231.0471    371.9120 307.8283305  +6.5085840     4004.532     16477.74     21042.98     92.47671     184.3672     368.9912      3.018     9.17     1225.528     65.02776     587.8621        77     2.263     2.155 -63.27   0
       286    132.2862    360.9474 307.8698439  +6.5098022     1904.201     5920.385     7673.384     92.47671     184.3672     369.0645      2.926    10.42     1229.367     65.02776     276.3516        44     2.189     1.646 -39.88   2
       287    154.6465    356.5308 307.8606801  +6.5123777     956.6643     2945.845     4461.128     92.47672     184.4406     368.9178      3.345     8.79     1227.977     65.02776      220.991        18     2.147     1.437 -86.71   0
       288    378.5931    352.2150 307.7675380  +6.5216670     748.8709     1749.067     2157.139     92.03669     184.2204     368.7344      2.242     4.65     1219.491     65.02776     94.05273         7     1.405     0.438 -80.36   0
       289    428.0000    345.4343 307.7471868  +6.5261227     1834.941     3623.812     4477.428     91.29861     184.2204      368.661      2.269     7.82     1216.912     65.02776     269.4307        21     2.342     0.730 -83.91   3
       290    430.3401    347.3019 307.7461484  +6.5254292     1968.036     2925.516     3481.558      92.1836     184.4406     369.0645      1.651     3.24     1216.938     65.02776     260.8494        12     1.009     0.780 -47.38   3
       291    433.0266    344.3772 307.7451287  +6.5267277     2508.611     5257.349     6922.046     91.88955     184.3672     368.8811      2.461     8.71      1216.75     65.02776     317.6178        30     2.031     1.389  56.67   3
       292     27.9263    345.9944 307.9138258  +6.5124770     1272.281      4010.12     5662.564     92.03669     183.9998     368.8078      3.060     9.67     1234.818     65.02776     271.9064        31     2.119     1.821  60.72   2
       293    769.7488    342.1014 307.6049305  +6.5389153     5041.533     11791.48     15422.55     92.47671     184.5139     369.1745      2.553     7.29     1216.284     65.02776     594.4802        47     2.015     1.651  79.19   3
       294    772.9942    341.6173 307.6035949  +6.5392236      4177.32     8070.344     9389.323     92.03669     184.1469     368.7344      2.027     7.57      1216.25     65.02776     472.1233        24     1.816     0.967  78.47   3
       295    761.7709    343.7103 307.6081996  +6.5379844     749.8685     1552.233     2412.076     92.62292     184.2204     368.8078      2.810     6.05     1216.557     65.02776     98.29126         8     1.513     0.680  86.57   0
       296   1014.7458    336.5108 307.5030527  +6.5493845      1944.29     4715.898     4369.279     92.47672     184.3672     369.0645      2.308     6.83     1211.301     65.02776     223.9504        31     1.711     1.350 -75.25  16
       297    451.8658    329.8619 307.7377741  +6.5333565     796.3898     2277.208     3205.333     92.47671     184.5139     368.9178      2.846     9.65     1215.544     65.02776     172.2294        14     2.417     1.074 -44.74   0
       298    476.6602    328.9665 307.7274754  +6.5345559     1008.919     2233.318     2899.333     92.33027     184.5872     368.8445      2.477     8.53     1214.614     65.02776     132.0336        17     2.201     0.924 -87.59   2
       299    480.8154    328.9044 307.7257466  +6.5347205         1061     2185.476     2954.637     92.18359     184.2204     368.7344      2.485     7.83     1214.474     65.02776     137.9901        16     1.650     1.039 -86.11   2
       300    835.0698    324.7672 307.5783048  +6.5482562     14408.39     31170.92     35746.95     92.33027     184.5139     368.9545      2.281     6.47     1213.883     65.02776     1550.117        56     2.261     1.202 -87.73   3
       301    838.4426    324.2944 307.5769157  +6.5485640     10588.11     18160.82     20470.03     92.47672     184.4406     369.0645      1.843     5.92     1213.759     65.02776     1261.446        33     1.939     0.887 -80.73   3
       302    606.4646    316.1247 307.6738358  +6.5442012     879.1564     2105.299     3145.324     92.62292     184.5139     368.8811      2.397     7.24     1212.821     65.02776     120.7456        15     1.906     0.770 -71.30   3
       303    692.8375    310.6178 307.6380394  +6.5493606     27081.11     97565.09     119408.8     92.03669     184.3672     368.6243      2.864     8.36     1213.489     65.02776     3298.638       113     2.297     2.071 -51.35   0
       304    610.0324    317.3966 307.6723062  +6.5437948      1000.76     2302.818     2983.252     91.59456     184.2938      368.661      2.478     8.41      1212.93     65.02776     141.3208        17     2.079     0.951 -58.14   2
       305    557.6075    307.1142 307.6944956  +6.5462926     839.1816     1847.605     2728.496     92.03669     184.1469     368.7344      2.655     7.13     1211.966     65.02776     131.9122         9     1.752     0.813 -88.94   2
       306    553.9378    306.3748 307.6960495  +6.5464755     959.0616     2454.344     2954.722     92.03669     184.4406     368.8445      2.652     6.25     1211.875     65.02776     115.1389        11     1.345     0.815 -50.45   2
       307     92.8159    306.7207 307.8881355  +6.5308860      1955.83     7756.209     9904.556     92.03669     184.2204     368.7344      2.971     8.24     1231.055     65.02776     392.3317        56     2.194     1.887 -62.33   0
       308    540.5121    302.5739 307.7017718  +6.5475975     2426.652     4458.213     5671.813     92.62292     184.2938     368.7711      2.116     7.79     1211.666     65.02776      295.729        24     1.945     1.070  58.28   3
       309    537.1389    305.8259 307.7030666  +6.5461409     2336.111     3865.594     5016.155     92.03669     184.5139     368.8078      1.903     5.31     1211.988     65.02776     263.7731        22     1.373     1.094  18.52   3
       310    536.6847    302.6707 307.7033630  +6.5474296     1987.524     2790.248      3695.09     92.62292      184.807     368.9545      1.708     4.92     1211.729     65.02776     247.9729        12     1.117     0.846 -51.71   3
       311    269.7325    301.1684 307.8146249  +6.5391154     987.8046     2333.636     3636.231     92.33027     184.5139     368.8811      3.222     6.84     1221.511     65.02776     105.1165        12     1.196     1.099 -70.17   2
       312    401.5625    299.0047 307.7597793  +6.5444250     6961.771     30845.76     40113.91     91.44671     184.2204     368.6243      3.067     9.51     1216.159     65.02776     1147.216        92     2.384     2.167 -53.01   0
       313    381.5707    294.8132 307.7682504  +6.5454879     596.8681     1700.475       3527.5     92.03669     184.2204     368.8078      4.102     5.70     1216.352     65.02776     87.22107         7     1.314     0.698  31.95   2
       314    489.4677    287.5383 307.7235479  +6.5521045     2553.553     3879.879     4920.333     92.47672     184.4406     368.9178      1.749     4.12     1211.375     65.02776     297.6627        15     1.157     0.942  75.87   3
       315    489.3992    291.2642 307.7234498  +6.5505625     2732.485     5340.156     6362.437     91.59456     184.2204     368.6243      1.990     6.81     1211.603     65.02776     305.2218        26     1.732     1.012  22.10   3
       316    493.1401    288.6358 307.7219807  +6.5517738     2913.403     5113.172      5814.09     92.47671     184.5139     368.8811      1.895     5.59     1211.378     65.02776     387.1077        24     1.577     1.028  68.87   3
       317    758.4250    288.3546 307.6114696  +6.5607491     1060.247     2178.421     3384.878     91.88955     184.5872     368.7711      2.612     8.27     1211.469     65.02776     129.8088        16     1.997     0.956 -81.77   2
       318    761.9858    287.5893 307.6100121  +6.5611841     1155.379     2167.815     3227.594     92.03669     184.1469     368.8078      2.475     5.06     1211.459     65.02776     157.9834        10     1.136     0.701 -68.36   3
       319    380.6175    273.4833 307.7693732  +6.5542706     1908.189     8931.207     11708.02      92.0367     184.1469     368.8445      3.090     9.22     1215.499     65.02776     388.3843        63     2.254     2.033 -50.08   0
       320    237.9068    275.5943 307.8287543  +6.5486169     646.5464     1909.221     3003.612     92.03669     184.1469      368.661      3.150     7.24     1221.449     65.02776     129.2263         9     1.842     0.796 -49.82   2
       321    746.8931    269.7776 307.6169038  +6.5680416     20636.82     48621.23     59000.54     92.47671     184.2938     368.7344      2.517     8.32     1210.481     65.02776     2057.789        75     2.441     1.543 -87.49   3
       322    750.5218    269.0009 307.6154183  +6.5684836     16736.87     27293.74     29080.76     91.59456     183.8527      368.661      1.727     5.80     1210.418     65.02776     2149.064        25     1.600     0.835 -68.08   3
       323    422.6240    268.3883 307.7520464  +6.5577822     699.9861     1707.364     2918.457      92.0367     184.2938     368.8445      3.418     7.13     1213.859     65.02776     105.1636         9     1.324     1.075 -87.93   2
       324    982.1368    265.9549 307.5190241  +6.5774580     930.0218       2135.2     2274.077     92.47671     184.4406     368.9545      2.344     6.87     1207.533     65.02776     107.8605        13     1.518     0.872 -89.31   2
       325    923.3650    265.4615 307.5435270  +6.5757058     1226.275     2668.921     3175.346     92.47672     184.5139     368.8811      2.250     6.61     1208.785     65.02776     154.3412        18     1.641     1.007  67.32   0
       326    185.2666    256.0014 307.8513517  +6.5549481     891.4708     2042.024     3297.208     91.74217     184.0734      368.661      2.587     7.04     1224.078     65.02776     132.2548        13     1.828     0.760 -81.64   2
       327    749.0000    253.9426 307.6165628  +6.5746558     1993.866     3272.398     3800.115     91.59456     184.0734     368.5141      1.788     6.24     1209.576     65.02776     272.9109        16     1.601     0.733  88.17   3
       328    746.0019    255.5148 307.6177586  +6.5739061     2215.269      3776.65     4480.462     91.74217     184.0734     368.5876      1.875     4.91     1209.693     65.02776     258.2604        19     1.352     0.970  37.68   3
       329    745.3372    252.3256 307.6181436  +6.5752019     2190.586     3751.501     4026.425      92.7689     184.5139     368.9178      1.875     5.27     1209.468     65.02776     251.4967        14     1.320     0.887 -55.78   3
       330    762.2515    251.7759 307.6111153  +6.5759932     954.5427     2769.177     3389.262     91.88955     184.5139     368.8078      2.782     8.92      1209.45     65.02776     137.6376        20     1.841     1.206 -86.74   2
       331    181.5960    253.6019 307.8529626  +6.5558166     579.6341     1304.042     2338.701     91.74217     183.9999     368.6243      2.825     4.14     1224.252     65.02776     116.9453         5     1.001     0.489   0.64   0
       332    354.4659    245.8078 307.7812099  +6.5648318     745.3771     1601.505     1810.575     91.88955     184.2204     368.7344      2.314     4.37     1215.805     65.02776     106.4702         6     1.134     0.480  82.40   0
       333   1001.2319    242.3779 307.5118657  +6.5878368     3179.798     7720.079     8329.938     91.88955     184.2938     368.6977      2.278     5.73     1206.249     65.02776     388.1154        42     1.768     1.522 -77.29   0
       334    482.1768    242.4864 307.7281166  +6.5704785     602.2891     1541.068     2746.124     92.47672     184.2938     368.7711      2.271     3.69     1207.735     65.02776     96.52271         5     1.060     0.370  84.70   0
       335    242.3011    238.5813 307.8281847  +6.5640597     1526.442     6611.215     8205.326     92.47672     184.3672     368.6243      2.989     9.08     1220.805     65.02776     293.4149        60     2.254     2.044 -83.18   0
       336    145.7702    227.4148 307.8687806  +6.5654361     675.2638     1448.765     2238.496     92.03669     184.2204     368.8445      2.592     4.52      1226.73     65.02776     80.90344         5     0.818     0.712  56.32   0
       337    148.3433    224.5418 307.8678066  +6.5667097     761.3283     1647.686     2560.224     92.62292     184.5139     368.9545      2.282     4.23     1226.562     65.02776     109.9343         6     1.082     0.473  55.86   0
       338    898.4021    221.0766 307.5554298  +6.5932172     788.9852     1628.058     1897.021     91.74217     183.9263     368.7711      1.892     4.93     1206.859     65.02776     131.1608         8     1.249     0.551  36.57   0
       339    717.9811    219.7311 307.6306463  +6.5877593     1932.598     4230.857     6266.404     92.03669     184.3672     368.8445      2.769    10.84     1207.156     65.02776     216.9652        33     2.577     1.269 -86.13   2
       340    721.6891    218.0042 307.6291600  +6.5885967     1464.338     2553.139     3430.626     91.88955     184.1469     368.5508      1.916     6.35     1207.149     65.02776     232.0448        14     1.543     0.733 -76.41   3
       341    553.6899    220.5148 307.6990691  +6.5819493     704.0321     1830.515     1962.135      92.1836     184.8802     369.0645      2.554     6.45     1205.784     65.02776      91.0188         7     1.172     0.996 -72.70   0
       342    659.0156    219.8369 307.6552100  +6.5857476     792.8488     1545.815     1663.356     92.03669     184.2938     368.6243      1.833     4.03         1206     65.02776     85.28479         6     0.967     0.480  36.62   0
       343    898.5650    217.2513 307.5554914  +6.5948035     705.2625      1178.92     2165.839     92.33027     184.5139     368.8078      2.735     4.48     1206.569     65.02776     109.7448         5     0.943     0.604  42.62   1
       344    916.7412    209.6387 307.5481760  +6.5985548     653.2985     1168.724      1343.48     92.47672     184.5872     368.9912      1.605     3.43     1205.902     65.02776     97.02393         5     1.198     0.284 -54.51   0
       345    220.1301    204.4145 307.8385857  +6.5774355     889.0371     2429.222     2851.031     91.88955     184.4406     368.8078      2.637     7.65     1223.122     65.02776     165.1062        14     2.093     0.841 -53.02   0
       346    860.1155    202.1901 307.5720213  +6.5997470     898.8778     1949.889     2578.298     92.03669     184.1469     368.7344      2.163     5.48     1205.971     65.02776     138.0687        10     1.285     0.659  73.56   2
       347    750.5797    201.8286 307.6176714  +6.5962451     748.0765     1841.112     2186.326     91.88955     184.2938     368.8445      2.366     4.18     1206.556     65.02776     140.7719         6     1.128     0.442  77.77   0
       348    452.8273    193.2705 307.7420176  +6.5898353     6333.989      27017.9     34634.94     92.03669     184.3672     368.8445      3.048     9.09     1206.791     65.02776     981.7605        88     2.415     2.118 -53.15   0
       349    777.0098    192.4879 307.6069760  +6.6009866     5305.391     12007.45     14791.55     92.03669     184.1469      368.661      2.409     7.47     1205.953     65.02776     581.4285        43     2.185     1.266  87.63   3
       350    781.0000    192.0220 307.6053293  +6.6013122     3813.861     6404.822     8356.032     91.88955     184.0734     368.5141      1.825     6.06     1205.953     65.02776     495.3265        22     1.712     0.819  89.64   3
       351    142.9469    187.3609 307.8713229  +6.5818932     988.4324     2169.072     3274.217     92.33027     184.5872     368.9178      3.290     4.53     1227.763     65.02776     143.6191        12     1.153     0.751 -59.86   2
       352    578.6611    178.8560 307.6900801  +6.5999994      1658.88     3603.198     4114.938     92.62292     184.5139     368.9545      2.316     9.47     1204.101     65.02776     200.6431        29     2.177     1.150 -69.90   3
       353    574.9997    178.0410 307.6916333  +6.6002138     1399.232     2543.775     3021.133     91.59456     184.1469     368.5508      2.026     7.73      1204.03     65.02776     174.3818        21     2.209     0.758 -81.66   3
       354    537.5249    180.2697 307.7071712  +6.5980404     848.1886     1696.887       2019.8     92.62292     184.6605     368.9178      2.088     5.48     1204.009     65.02776     105.8499         8     1.409     0.601  40.08   2
       355    541.9741    178.9104 307.7053637  +6.5987508     733.9737     1496.727     2318.478     92.62292     184.2204     368.7344      2.265     6.11     1203.908     65.02776     108.6891         9     1.447     0.726 -86.81   2
       356    883.5949    175.2191 307.5631518  +6.6116752     5192.443     14922.91     16823.15     92.03669     184.0734     368.6977      2.557     6.71     1203.915     65.02776     641.3596        57     1.959     1.756 -51.80   0
       357    936.5476    176.3956 307.5410486  +6.6129522     1337.995     3401.954     3787.198     91.74217     184.2204     368.4774      2.583     8.24     1202.744     65.02776     176.3567        23     1.894     1.094 -87.25   2
       358     11.0117    173.1093 307.9267753  +6.5833513     10159.58     26425.61     33866.07      92.1836     184.1469     368.6977      2.716     7.86     1235.443     65.02776     1449.513        68     2.446     1.670 -46.12  18
       359      8.4990    170.5082 307.9279110  +6.5843417     6971.513     9722.111     10649.89     92.47672     185.0997     368.8811      1.605     4.17     1235.641     65.02776     737.7418        16     1.105     0.999 -74.00   3
       360    970.1758    172.9505 307.5271535  +6.6154952     5248.807     13195.09      14424.4     92.03669     184.5872     368.8078      2.383     6.30     1201.435     65.02776     616.4667        51     1.839     1.644 -52.56   0
       361    680.7010    171.5368 307.6478137  +6.6064318     989.0598     2115.689     2996.623      92.1836     184.5872     368.9545      2.970     6.26     1204.345     65.02776     148.5995        10     1.458     0.754 -16.76   2
       362    680.7700    175.6831 307.6476443  +6.6047206     1171.965     2441.093     3950.056     92.47672     184.2938     368.8078      3.084     5.51     1204.501     65.02776     172.8669        15     1.288     0.982  15.00   2
       363    820.8255    164.2409 307.5896771  +6.6141206     852.8553     2426.195     2686.535     92.03669     184.3672      368.661      2.461     8.38     1204.087     65.02776     107.7319        13     2.065     0.949 -89.72   2
       364    501.9154    165.6665 307.7225039  +6.6028846     936.1191     2655.111      3655.86     92.62292      184.807     368.9912      3.584     9.19     1203.989     65.02776     142.3876        16     2.003     1.176 -28.19   2
       365    873.7404    164.4192 307.5676234  +6.6158101     975.2609     2192.856     2505.616     92.03669     184.3672     368.7711      2.490     7.86     1203.456     65.02776     127.3007        17     1.612     1.073 -30.15   0
       366    339.3349    161.1344 307.7903960  +6.5993161     2090.751     4350.419     6771.748     92.47671     184.5139     368.9545      2.871     9.14     1214.421     65.02776     261.8535        33     2.919     1.046 -77.51   3
       367    335.9339    161.1684 307.7918118  +6.5991882     2355.716     6652.406         9623     92.33027     184.5872     368.8445      3.003     8.61     1214.819     65.02776     258.5981        42     2.262     1.502 -89.68   3
       368    733.7914    161.2816 307.6260411  +6.6124414     14640.45     50215.31     59407.91     92.03669     184.0734     368.7711      2.756     8.06     1204.076     65.02776     1662.669        89     2.208     1.976 -55.47   0
       369    967.2667    160.0329 307.5288027  +6.6207368     1478.654     3580.469     3785.957     92.33027     184.5872     368.8811      2.244     8.05     1200.378     65.02776     175.6041        28     1.553     1.427 -31.95   0
       370    901.6553    158.3113 307.5561991  +6.6192640     3528.543     9639.419     10783.29     92.47672     184.3672     369.1012      2.464     6.48     1202.338     65.02776     412.4648        48     1.845     1.686 -61.40   0
       371    443.7793    158.0658 307.7469845  +6.6040809     1500.703     4171.161     5291.686     92.03669     184.5139     368.8078      2.605     9.08     1205.139     65.02776     192.3405        29     2.245     1.026 -88.46   3
       372    447.3488    157.6799 307.7455104  +6.6043598     1658.984     3210.088     4183.046     92.47672     184.5872     368.9178      2.067     5.89     1205.055     65.02776      275.196        24     1.885     0.919 -84.14   3
       373   1005.5456    158.7000 307.5128981  +6.6225612     1143.051     2295.257     2195.852      92.1836     184.5139     369.2478      2.040     6.58     1198.941     65.02776     160.3315        13     1.434     0.847 -16.73   0
       374    103.0209    149.3517 307.8892536  +6.5962598     1599.422      5908.83     7078.079     92.03669     184.5139     368.6977      2.883     8.45     1229.893     65.02776     282.3829        47     2.176     1.736 -65.46   0
       375    273.1021    145.9321 307.8185088  +6.6033790     9831.413     40814.23     52738.96     92.47671     184.6605     368.9545      3.049     8.96     1222.458     65.02776     1429.206        95     2.390     2.153 -55.95   0
       376    248.5163    147.0474 307.8287142  +6.6020939     2016.762     7801.724     9549.136     92.47671     184.5139     368.9545      2.944     8.67     1223.962     65.02776     331.9882        59     2.189     1.960 -58.70   0
       377    397.1228    141.3024 307.7669940  +6.6094468     14345.03      60065.8     77429.42     92.03669      184.807     368.9545      3.050     9.38      1208.21     65.02776     2083.391       111     2.434     2.188 -55.68   0
       378    154.8924    143.1100 307.8678553  +6.6005804      1532.65     3705.576     5232.877     92.47671     185.0997     368.9545      2.794     7.89     1227.702     65.02776     220.5228        31     2.248     1.272 -72.30   2
       379    150.8137    141.8686 307.8695970  +6.6009565     1145.707       2384.8     2946.068     91.88955     184.3672     368.7711      2.180     6.91     1227.856     65.02776     155.2281        15     1.852     0.724 -79.21   3
       380    301.3523    139.0260 307.8069739  +6.6071797     5441.031     22257.88     30952.27     92.03669     184.5872     368.8078      3.207     9.31     1220.168     65.02776     812.9025       102     2.601     2.229 -28.38   2
       381    311.1488    138.3131 307.8029165  +6.6078026     983.6635     1848.157     2307.122     92.47671     184.3672     368.9912      2.599     7.40     1218.995     65.02776     119.7219        14     1.832     0.837 -64.08   3
       382    734.8698    138.2510 307.6263728  +6.6219949     12794.17     29339.04     36357.98     92.33027     184.4406     368.9545      2.510     9.38     1203.083     65.02776     1343.074        59     2.465     1.450  89.42   3
       383    738.4988    137.0264 307.6249022  +6.6226221     10487.74      17813.5     19005.61     92.62292     184.2204     368.8445      1.784     5.77     1203.043     65.02776     1312.195        26     1.646     0.878 -71.70   3
       384    783.6104    138.5133 307.6060552  +6.6235121     607.5582     1393.055     1265.066      92.0367     184.2204     368.7344      2.186     5.01      1203.13     65.02776     99.21814         5     1.314     0.540  48.22   0
       385     53.3949    134.9945 307.9104191  +6.6005259     3112.095      11404.6     14019.85     91.74217     184.2204     368.7711      2.864     7.45     1232.731     65.02776     479.3516        66     2.220     1.993 -72.57   0
       386     88.2047    135.4142 307.8959021  +6.6015217     534.7764     1136.069     1616.907     92.03669     184.2204     368.7711      2.323     4.64     1230.385     65.02776     94.08899         6     1.926     0.318 -63.56   0
       387    995.6956    117.7155 307.5183886  +6.6391708     1326.439     3124.129      3809.75     92.47672     184.9534     369.0278      2.466     8.27     1196.779     65.02776     183.0823        23     1.571     1.217 -60.82   0
       388    271.8826    112.2476 307.8201645  +6.6172581     8992.937     36906.33     48608.22     92.47671     184.5139     368.9545      3.094     9.29     1223.382     65.02776     1372.316        95     2.437     2.145 -58.96   0
       389     17.8499    111.7669 307.9260214  +6.6089299      1831.63      5037.49     6450.172     92.33027     184.5139     368.8445      2.819     8.14     1234.986     65.02776     245.0488        40     2.225     1.664 -53.39   2
       390     15.6877    108.9991 307.9270168  +6.6100010     724.4745     1284.833     2116.411     91.59456     183.9263     368.5876      2.071     3.63     1235.123     65.02776     158.5135         5     1.068     0.355 -70.90   3
       391    703.4413    108.3289 307.6404830  +6.6333118     2935.975     9846.502     11260.15     92.33027     184.5139     368.9912      2.696     7.75     1201.767     65.02776     336.3097        56     2.051     1.837 -64.48   0
       392    115.5467    106.5955 307.8854938  +6.6143488     1896.344     4770.369     5635.481     91.74217     184.2204     368.5141      2.470     8.44     1228.592     65.02776      230.005        35     2.182     1.246 -48.61   3
       393    113.1387    103.6914 307.8865962  +6.6154681     1336.399     2313.545       2699.9     92.47671     184.5872     369.0278      1.790     7.08     1228.608     65.02776     166.8325        17     1.723     0.816 -49.15   3
       394    383.3849    103.5913 307.7740012  +6.6245708     1215.471     2767.368     3523.563      92.1836     184.2204     368.7711      2.379     7.21     1210.941     65.02776     130.6542        16     1.904     0.765  76.71   3
       395    386.9312    100.9341 307.7726140  +6.6257877     1454.861     3773.453     5002.734     92.47671     184.5872     368.9545      2.721    10.54     1210.337     65.02776     158.1517        34     2.185     1.633  76.98   3
       396    351.1159    101.4797 307.7875182  +6.6243628      1232.15     3327.032     4695.811     92.33027     184.8802     369.0278      2.912     9.49     1216.339     65.02776     175.6215        24     2.193     1.149 -50.06   2
       397    106.1180    101.0417 307.8896117  +6.6163273     706.4512     1343.996     1907.028     92.47671     184.5139     368.8445      1.912     4.59     1228.705     65.02776     127.4724         5     1.222     0.490 -66.25   0
       398    996.2697     94.8025 307.5189244  +6.6486590     860.6609      1900.44     2679.111     91.88955     184.0734     368.6977      2.390     5.76     1195.345     65.02776     118.7263        11     1.236     0.757 -35.15   0
       399    201.2595     89.7537 307.8503563  +6.6241852     1589.469     6221.306     8007.871     92.33027     184.5139     369.0645      2.996     9.34     1226.958     65.02776     213.2687        53     2.255     1.939 -70.22   0
       400     85.6147     91.0453 307.8984955  +6.6197696      684.898     1611.527     1936.687     91.74217     184.2938      368.661      2.417     5.33     1229.644     65.02776     140.7413         8     1.743     0.459 -47.01   0
       401    661.7409     88.7056 307.6585244  +6.6400292     2213.818     5282.802     6313.622     92.33027     184.5139     369.0645      2.588     9.26     1201.292     65.02776     245.2028        34     2.177     1.226 -82.06   3
       402    665.3315     88.1761 307.6570463  +6.6403679     1894.994      3164.73     4229.551     92.03669     184.3672     368.8811      1.916     6.68     1201.274     65.02776     235.5861        17     1.652     0.758 -74.77   3
       403    615.2703     86.0927 307.6779765  +6.6395571     3105.857     11263.15     19797.89     92.47671     184.6605     368.9178      6.081    23.85     1201.428     65.02776     1742.827       102     8.161     1.935 -78.36   3
       404    617.7476     78.7542 307.6771934  +6.6426725      19815.7     41253.39     43625.34     92.47672     184.4406     368.9912      2.092     7.85     1201.346     65.02776      1932.28        27     1.745     1.006  40.63   3
       405    621.0000     77.0460 307.6758962  +6.6434871     17256.66     31990.44     35298.99     91.59456     184.0734     368.3672      1.979     6.13     1201.317     65.02776     2500.545        34     2.014     0.988  79.48   3
       406    343.8214     82.4699 307.7912048  +6.6319742     1630.852     3666.941      5855.67     92.03669     184.3672     368.8811      3.221    10.62     1217.519     65.02776     196.6685        33     2.385     1.318 -15.58   2
       407    341.6851     79.1778 307.7922070  +6.6332631     1231.173     2278.405     4115.445     92.33027     184.1469     368.8445      2.653     6.40     1217.786     65.02776     161.7141        16     1.507     0.764  -2.74   3
       408    297.8404     71.2374 307.8107460  +6.6350753     1171.149     4651.018     6115.284      92.1836     184.5139     368.7711      3.171    10.27     1222.852     65.02776      200.541        45     2.217     1.842 -74.54   0
       409    682.9194     61.1715 307.6506341  +6.6521148     1240.042     3810.458     4641.129     92.33027     184.2938     368.8811      2.720    10.77     1200.813     65.02776     166.1381        35     1.913     1.689 -40.30   0
       410    698.2727   1017.9509 307.6118001  +6.2572293     3404.451     6689.793     7285.498     92.47671     184.5872     360.5331      2.143     6.00     1257.904     65.02776     368.5187        39     1.830     1.390 -30.21  16
       411    424.9906     52.3671 307.7584083  +6.6471319     1160.365       4681.5     5674.042     91.88955     184.2938     368.7344      2.919    10.40     1209.258     65.02776     194.3734        43     2.209     1.833 -34.07   0
       412    879.3749     48.1888 307.5692118  +6.6640310     913.2264     2975.372     3533.497     92.03669     184.2938     368.8078      2.674    10.00     1196.658     65.02776     133.1726        22     1.771     1.574  71.74   0
       413    899.2189     47.7345 307.5609581  +6.6648796     1523.146     2739.346     3568.322     92.03669     184.5139     368.8078      2.074     5.96     1196.199     65.02776     208.8341        12     1.494     0.668 -75.74   3
       414    896.2241     47.1341 307.5622264  +6.6650280     2061.118     3983.366     4893.349     92.03669     184.5139     368.8445      2.139     7.40     1196.212     65.02776     232.6458        23     1.712     0.991 -78.69   3
       415    387.2898     46.5101 307.7743168  +6.6482902      840.108     1718.263     3539.654     92.47672     185.0997     369.0278      3.672     4.68     1213.527     65.02776     101.6581         7     0.911     0.682  73.13   0
       416    138.3772     41.4325 307.8782048  +6.6420432     1271.231     2977.398     4750.802     91.88955     184.2938      368.661      3.535    10.51     1228.291     65.02776     162.0187        26     1.881     1.707 -77.83   2
       417     19.1960     39.7474 307.9279204  +6.6387360     5275.703     13592.54     17165.55     91.74217     184.2938     368.4774      2.671     7.33     1234.249     65.02776     714.5054        55     2.348     1.588 -47.86   2
       418     16.3196     37.3294 307.9292015  +6.6396386     3140.897     4809.075     6144.414      92.7689     184.8802     368.9545      1.712     5.59     1234.426     65.02776      371.116        12     1.184     0.776 -55.47   3
       419    818.7502     33.3326 307.5949777  +6.6681502     2673.836     6115.219     6955.425     92.33027     184.3672     368.9545      2.255     7.49      1197.24     65.02776     283.1741        32     2.013     1.095  77.68   2
       420    822.0000     32.4874 307.5936521  +6.6686078     2036.086     2999.586     3497.452     91.59456     183.9263     368.5141      1.693     4.80     1197.128     65.02776     248.1562        12     1.151     0.707  77.62   3
       421    763.9338     33.8325 307.6178030  +6.6661159     1462.532     3741.066     4671.784     92.33027     184.5872     368.8445      2.630     8.79     1197.901     65.02776      172.066        31     1.784     1.442  88.15   2
       422    767.3173     32.6637 307.6164327  +6.6667118     795.1737     1328.003     2755.202     92.62292     184.5872     368.9545      1.616     3.52     1197.826     65.02776     143.4622         5     0.808     0.452  76.41   3
       423     58.8811     31.0385 307.9116826  +6.6436685     1148.646      3807.75     3941.229     92.47671     184.5872     368.8445      2.645     8.94     1231.408     65.02776     172.7416        30     1.953     1.622 -50.25   0
       424      3.0000     26.5223 307.9351203  +6.6436567     1003.622     1819.549     1798.454     91.59456     171.6733     307.5037      1.941     5.23     1235.202     65.02776     143.7395        11     1.286     0.601 -67.94  26
       425    758.5436     22.1184 307.6204463  +6.6707770     864.5313     1976.107     2819.654     92.47671     184.5139     368.9545      2.880     6.51     1197.293     65.02776     114.1798        12     1.674     0.711  67.37   2
       426    274.3653   1020.0856 307.7882249  +6.2421790     994.6926     2212.666     2168.322     92.47671     184.3672     336.5801      1.981     7.83     1258.847     65.02776     122.6812        13     1.527     1.124  37.74  16
       427      1.2260   1017.4270 307.9020336  +6.2341174     3047.795     3629.673     3515.543     78.55182     144.6367     271.6137      1.072     3.43     1252.547     65.02776     837.9336        11     1.279     0.461  88.49  24
       428    892.3088   1016.7039 307.5310509  +6.2642102     756.4229     995.3694     435.3497     92.47672     185.0997     368.4407      1.635     5.39     1255.131     65.02776      90.0155         7     1.106     0.741 -56.80  16
       429    608.0717   1016.3643 307.6494106  +6.2548752     1263.696     2533.186     2658.454     92.33027     184.5139     368.9178      2.011     7.27     1258.287     65.02776     161.8077        17     1.454     1.018 -23.90  16
       430    228.0619   1015.6892 307.8076527  +6.2424446     922.9448     2009.415     1768.786     92.47671     184.6605     368.9912      2.118     7.51     1259.307     65.02776     114.3068        12     1.441     1.095 -43.31  16
       431   1003.4775   1013.5995 307.4848675  +6.2691919     725.7721     1096.079     1795.677     91.59456     183.7791     368.6243      1.970     4.28     1253.346     65.02776     105.4849         7     0.880     0.671 -72.34   0
       432    792.9514   1006.8872 307.5727531  +6.2649579     11313.23     20670.35     21655.85     92.47671     184.3672     368.9912      1.950     4.44     1255.153     65.02776     1251.672        50     1.680     1.336 -61.04   0
