#   1 NUMBER                 Running object number                                     
#   2 X_IMAGE                Object position along x                                    [pixel]
#   3 Y_IMAGE                Object position along y                                    [pixel]
#   4 ALPHA_J2000            Right ascension of barycenter (J2000)                      [deg]
#   5 DELTA_J2000            Declination of barycenter (J2000)                          [deg]
#   6 FLUX_APER              Flux vector within fixed circular aperture(s)              [count]
#   9 FLUXERR_APER           RMS error vector for aperture flux(es)                     [count]
#  12 FLUX_RADIUS            Fraction-of-light radii                                    [pixel]
#  13 FWHM_IMAGE             FWHM assuming a gaussian core                              [pixel]
#  14 BACKGROUND             Background at centroid position                            [count]
#  15 THRESHOLD              Detection threshold above background                       [count]
#  16 FLUX_MAX               Peak flux above background                                 [count]
#  17 ISOAREA_IMAGE          Isophotal area above Analysis threshold                    [pixel**2]
#  18 A_IMAGE                Profile RMS along major axis                               [pixel]
#  19 B_IMAGE                Profile RMS along minor axis                               [pixel]
#  20 THETA_IMAGE            Position angle (CCW/x)                                     [deg]
#  21 FLAGS                  Extraction flags                                          
         1     15.9464     41.8294 307.9272782  +6.6386460     4207.409     14340.52     20597.95     92.28219     184.7847      369.239      3.259     8.32     1232.829     65.09731     500.5115        86     2.537     2.055 -15.23  24
         2    762.3633     34.2832 307.6171501  +6.6667175     1128.848     2215.441     3455.939     92.57561     184.6378      369.239      2.791     5.96      1195.97     65.09731     151.8981        15     1.388     0.964 -12.68   3
         3     83.9815     18.0001 307.8997897  +6.6507688     3169.487     10746.69     14514.45     92.13512     184.1966      368.945      3.064     8.29     1228.292     65.09731     373.0308        73     2.413     1.978 -20.66   0
         4    413.0076     18.7161 307.7629482  +6.6614899     853.2926     2239.115     3321.584     92.13512     184.3438     369.1288      2.987     8.24     1212.295     65.09731     121.6466        14     2.154     0.881 -39.71   0
         5    626.6315     11.2329 307.6743642  +6.6717129     6577.912     14011.38     18239.24     91.98783     184.4174     369.0185      2.440     8.47     1200.154     65.09731     700.5634        51     2.626     1.185 -18.58  19
         6    626.2642      7.4750 307.6746426  +6.6732525     5393.141     11349.88      13552.5     92.72198     184.7113     364.3217      2.334     6.93     1200.142     65.09731     552.4819        40     2.270     1.098  -6.78  19
         7    526.4975      5.7798 307.7161873  +6.6706234     1853.184     5691.556     8115.256     92.42902     184.4909     347.4416      3.118     9.92     1201.624     65.09731     192.7052        52     2.273     1.758 -16.30  16
         8    251.9070      3.4633 307.8304506  +6.6623992     2935.812     7507.587     11204.37     92.57561     177.6763     315.7481      3.410    12.86     1226.018     65.09731     308.6989        59     3.199     1.439 -26.92  24
         9     18.7018      2.7902 307.9274451  +6.6548595     831.8813     1778.997     1308.718     92.28219     169.3932     304.2434      2.163     7.53     1231.171     65.09731     95.63184        18     2.192     0.725 -21.78  24
        10    909.2993      2.0967 307.5571188  +6.6848994     855.2212     1588.225      2089.88     90.20148      160.007     292.1934      2.266     5.58     1193.065     65.09731     119.5691        10     1.374     0.640 -12.34  24
        11    612.4893      1.7728 307.6805616  +6.6751478     1086.187     1951.297      2988.91     86.67482     154.3122     286.0492      2.349     6.10     1200.707     65.09731     162.7357        14     1.468     0.714  -5.76  24
        12    431.7811      2.7100 307.7556775  +6.6687272     7613.081     17127.36     21029.11     92.28219     168.1881     302.9929      2.485     8.83     1211.083     65.09731     808.8787        51     2.501     1.271  -8.41  24
        13    883.3683    994.3356 307.5348503  +6.2742642      1046.24     2158.578     2149.173     92.28219     184.7847     369.2757      2.133     6.76     1254.178     65.09731     139.4653        14     1.314     1.159 -23.52   0
        14    272.5860   1022.5563 307.7876983  +6.2422450     755.2153     1327.176     1596.654     91.84029     164.6846     298.1656      1.827     6.68     1257.707     65.09731     98.24792         9     1.505     0.832  -9.91  24
        15    205.9550    992.5838 307.8163873  +6.2523935     1063.466     2671.104     3206.688     91.98783     184.5644     369.0553      2.403     8.23     1256.735     65.09731     156.5934        20     2.060     0.919   1.71   0
        16    708.3465    989.7504 307.6077304  +6.2703345     4346.119     9951.139     12505.84     92.72198     184.7113     369.3491      2.606     6.65     1255.901     65.09731      508.672        58     2.460     1.491  -3.20   0
        17    423.7543    990.1370 307.7259720  +6.2606847      2269.38       5503.2     6618.322     92.42902     184.6378     369.3491      2.594     6.31     1255.283     65.09731     270.9424        41     1.848     1.540 -18.71   0
        18    741.5398    984.9127 307.5940988  +6.2734376     875.0897     1505.442     2614.355     92.57561      184.858     369.4225      2.209     5.00     1255.509     65.09731     120.2881         9     1.246     0.568 -21.22   0
        19    948.3109    979.1991 307.5083677  +6.2826735     4718.952     9488.318     9819.865     91.69252      184.123     369.0185      2.054     5.06     1252.392     65.09731     631.3473        40     1.889     1.176 -13.40   0
        20    232.6906    979.5340 307.8057158  +6.2586772     781.2513      1628.22     1666.316     92.57561      184.858     369.3124      2.443     7.16     1256.946     65.09731     85.59631        13     1.594     0.900 -59.03   0
        21    707.3855    977.7927 307.6085284  +6.2752408     1597.711     3916.566     5059.805     92.13513     184.4174     369.1288      2.656     9.71     1255.142     65.09731     204.0823        32     2.369     1.110 -22.82   0
        22    355.1767    975.6158 307.7549527  +6.2643907     970.5941     2732.725     2720.674     92.28219     184.4909     369.2022      2.456     9.52     1256.261     65.09731     125.9116        20     1.946     1.299 -30.46   0
        23    537.0848    965.2369 307.6797128  +6.2747501     2333.476     5855.499     8012.787     92.57561     184.7113     369.2757      2.860     7.09      1256.07     65.09731     244.6914        45     2.036     1.579  -6.61   3
        24    534.2970    957.4219 307.6811322  +6.2778845     4571.046     10910.16     13717.98     92.42902     184.4909      369.092      2.654     5.80     1255.856     65.09731     496.7119        56     2.021     1.619  -9.01   3
        25    287.3777    964.1995 307.7835063  +6.2668389     7799.683        19455      23797.6     92.13513     184.3438     368.9818      2.615     6.02     1257.202     65.09731     853.6125        81     2.319     1.760 -19.28   0
        26    741.5971    964.5794 307.5947527  +6.2818367     4921.043     10992.11     12362.12     92.13513     184.3438     369.0185      2.330     5.46     1254.141     65.09731      611.658        53     2.065     1.461 -13.66   0
        27    902.8544    957.6302 307.5279746  +6.2900705     5717.648     11854.11     13396.28     92.42902     184.7847      369.239      2.192     5.37     1251.946     65.09731     684.9556        49     1.974     1.367 -16.14   0
        28    876.3865    954.0468 307.5390926  +6.2906706     8094.691     17496.44      20398.6     91.84029     184.4909     369.0553      2.298     5.37     1251.922     65.09731     914.7915        60     2.071     1.444 -12.92   0
        29    998.0773    953.4249 307.4885445  +6.2949707     3528.912     7026.386     7868.252     92.13512     184.5644     369.2757      2.080     5.74     1249.646     65.09731     393.9012        37     1.942     1.169 -15.99   0
        30    589.4152    954.0762 307.6583405  +6.2811043     772.5848     1767.724     2095.305     91.98783     184.4174     369.1655      2.397     5.67      1255.43     65.09731      107.715         9     1.156     0.785 -71.67   0
        31    520.7640    953.3208 307.6868926  +6.2791267     2219.917     5439.433     6764.791     92.42902     184.7847     369.3124      2.707     7.20     1255.745     65.09731     271.8314        38     2.073     1.362  -6.35   0
        32    630.8487    951.9365 307.6411947  +6.2833691     689.8558     1522.512     1873.826     92.42902     184.6378     369.3858      2.322     7.21     1254.677     65.09731     113.2217         8     1.532     0.950  -5.25   0
        33    474.7698    949.4579 307.7061337  +6.2791871     983.2947     2341.055     2911.467     92.28219     184.7113     369.2022      2.656     8.43     1255.574     65.09731     126.5593        15     1.771     1.154  -9.61   0
        34    908.1563    941.5467 307.5263067  +6.2968889     28407.53     60261.56     68819.98     92.57561     184.7113     369.3124      2.287     5.16     1251.094     65.09731     3436.596        88     2.142     1.539 -16.40   0
        35    215.5834    939.6080 307.8141618  +6.2745927     782.6545      1992.21     3163.152     92.13513     184.4174     369.1288      3.091     4.92     1255.442     65.09731     108.6112         9     1.522     0.450  -7.44   0
        36    806.5385    935.4551 307.5687371  +6.2960256     1523.736     3404.463     4163.542     92.72198     184.7113     369.2757      2.549     7.28     1250.948     65.09731     218.0652        25     1.671     1.480   2.26   0
        37    754.4402    933.4362 307.5904539  +6.2951256     3851.986     8809.972     10688.87      92.2822     184.7113     369.1655      2.462     5.49     1251.714     65.09731     458.2052        49     1.943     1.564 -31.08   0
        38    223.9418    932.4757 307.8109277  +6.2778178       831.97     1937.619     2576.892     92.72198     184.7113     369.2757      2.888     5.97     1255.213     65.09731     103.3307         9     1.283     0.780 -64.32   0
        39     49.4559    930.9833 307.8834793  +6.2725908     1522.262      3525.72     4195.905     91.98783     184.6378     369.0185      2.488     7.73      1253.41     65.09731     186.8215        23     1.685     1.218 -23.30   0
        40    942.3958    928.2881 307.5125194  +6.3035022     4405.496     9711.502     10812.99     91.98783     184.3438      368.945      2.294     5.74     1249.884     65.09731     515.3108        47     1.982     1.431 -28.80   0
        41    915.7836    919.8325 307.5238597  +6.3061099     1348.115     2688.069     2869.544     92.13512     184.4174     369.1655      2.277     6.86     1249.913     65.09731     166.4701        18     1.497     1.036   0.28   0
        42    249.7498    916.6901 307.8007327  +6.2852001     2191.635     5739.952     6798.981     92.57561     184.4909     369.4959      2.662     7.22      1255.63     65.09731      273.683        42     1.916     1.541   7.43   0
        43    637.0474    916.0457 307.6398166  +6.2983976     2444.136     5991.377     6783.921     92.57561     184.5644     369.3491      2.517     6.34     1252.762     65.09731     294.4603        42     1.997     1.407  -5.51   0
        44    776.6454    915.8365 307.5818130  +6.3031330     839.8585     1841.746     2152.157     92.28219     184.7113      369.239      2.307     6.04     1250.463     65.09731     142.6292         9     1.480     0.707 -26.72   0
        45     18.3257    914.1711 307.8969786  +6.2784899     1196.232     2684.548     2994.353     92.42902     184.7113     369.2757      2.311     8.16     1252.829     65.09731     130.1338        21     1.677     1.110 -20.01   0
        46    460.6564    914.1863 307.7131774  +6.2932821     595.6556     1413.497     1505.506     91.84029     184.5644      368.945      1.883     3.65     1254.912     65.09731     107.3394         5     1.000     0.383   4.32   0
        47    562.5808    908.0283 307.6710289  +6.2992261     731.5464     1718.337     1728.706     92.13512     184.4909      369.239      2.534     7.19     1253.863     65.09731      109.787        10     1.448     0.999 -20.92   0
        48    281.8141    902.5994 307.7878809  +6.2920916      739.632     1550.102     2325.366     92.13512     184.3438     369.0553      2.284     6.70     1256.001     65.09731     111.1627         9     1.591     0.791  -9.74   0
        49    885.0883    895.2046 307.5374353  +6.3152605      4248.45     9350.346     10385.79     91.98783     184.3438     368.9818      2.320     5.66     1248.943     65.09731     477.1295        49     2.021     1.385 -11.60   0
        50    322.9379    891.2239 307.7711733  +6.2981642     4400.469     11749.35     14680.28     92.13512     184.7113     369.2022      2.699     6.72     1255.186     65.09731     443.5096        64     2.183     1.739  -6.23   0
        51    243.1087    890.1957 307.8043799  +6.2959192     3317.545     8857.384     10670.53     92.13512     184.3438     369.0553      2.578     6.75     1254.957     65.09731     357.5558        54     2.093     1.681   0.43   0
        52    422.0134    891.9288 307.7299795  +6.3011835     999.0031     2216.463     2618.929     91.98783     184.4174     369.1655      2.479     6.04     1254.666     65.09731     132.5925        11     1.354     0.758 -11.20   0
        53    570.0139    883.6243 307.6687550  +6.3095522     690.6418     1484.539     1754.747     92.28219     184.4909      369.239      1.685     4.06     1252.502     65.09731     96.52991         6     1.397     0.338 -27.78   0
        54    901.5035    880.6772 307.5310972  +6.3218057      642.261     1361.254     2083.732     92.28219     184.9314     369.3858      3.136     6.04     1247.957     65.09731     104.1814         7     1.425     0.720 -52.17   0
        55    737.3554    872.7623 307.5995763  +6.3196139     899.2053     1983.633      3029.25     92.28219     184.7113     369.2022      2.554     6.29     1249.274     65.09731     128.4135        12     1.700     0.653  -5.72   0
        56    968.9525    869.0275 307.5034545  +6.3288581     862.3172     1906.449     3395.093     92.13512     184.7847      369.239      3.301     4.21     1246.363     65.09731     109.3883         9     0.802     0.792 -72.69   0
        57    655.9514    866.9365 307.6335996  +6.3193085     1233.561      3026.46     3288.127     92.42902     184.6378     369.3858      2.252     8.36     1250.245     65.09731     136.6144        23     1.632     1.502  72.79   0
        58    522.4882    868.5599 307.6890080  +6.3141881     624.0114     1466.303     1487.254     92.57561     184.6378     369.3491      2.376     4.27     1253.213     65.09731      106.829         6     1.221     0.425  44.92   0
        59     52.9900    863.4208 307.8842786  +6.3006097     1413.768     3602.231     3985.023     92.13512     184.3438     369.1288      2.586     8.92     1251.607     65.09731     182.4225        27     1.904     1.265   2.98   0
        60    195.4099    863.9807 307.8250791  +6.3051488     622.6891     1877.762     2756.127     92.13512     184.3438     369.1655      2.613     4.23     1253.897     65.09731     114.1801         6     1.518     0.337 -44.97   2
        61     70.5448    862.9176 307.8770009  +6.3014058     849.2134     2025.282     2875.563     92.57561     184.7113     369.3858      2.674     6.96     1251.944     65.09731     148.8467        11     1.465     0.928 -60.97   0
        62    650.3754    856.1275 307.6362775  +6.3235865     3383.852     8484.938     10202.03     92.13512     184.5644      369.239      2.554     6.14     1249.537     65.09731     400.5267        52     2.140     1.558 -15.14   0
        63    888.0929    851.9548 307.5376264  +6.3332218     1710.105     3591.821      3580.04     92.57561     184.6378     369.4592      2.262     6.05     1246.759     65.09731     202.5909        25     1.548     1.285 -11.78   0
        64    333.6986    849.4728 307.7680994  +6.3157658      7386.55     19952.88     25614.56     92.28219      184.858     369.2757      2.789     6.65     1253.887     65.09731     756.5714        80     2.343     1.822 -11.66   0
        65     98.2804    839.9954 307.8662449  +6.3118011      731.946     1444.632     1960.565     92.13512     184.1966     369.0185      1.998     5.14     1251.856     65.09731     96.67224         6     1.351     0.552   6.08   0
        66    878.9056    833.6319 307.5420545  +6.3404833     1160.729     2528.707     2461.846     92.72198     184.4909     369.4225      2.377     6.80     1245.873     65.09731     148.6364        15     1.563     0.830 -19.80   0
        67    850.0995    833.6399 307.5540258  +6.3395222     1052.227     2420.238     2200.264     92.57561     184.5644     369.5693      2.381     8.17     1246.256     65.09731     139.2463        17     1.882     0.992 -18.38   0
        68    812.6182    832.9456 307.5696257  +6.3385622     1618.673     4164.974     4918.981     91.98783     184.7113     369.0553      2.592     7.23     1246.398     65.09731      222.582        33     1.870     1.384 -18.47   0
        69    548.6079    824.5134 307.6796249  +6.3332495       150009     403826.1     511693.5     92.13513     184.3438     369.0553      2.755     6.57     1249.485     65.09731     16724.86       199     2.485     2.039 -15.70   0
        70    393.0073    827.2214 307.7441976  +6.3269368      3293.16     9333.293     11850.15     91.98783     184.4909      369.092      2.770     6.99     1251.958     65.09731     379.2875        64     2.295     1.796  -7.75   0
        71    336.1028    825.8466 307.7678912  +6.3256030     5175.067     14720.27     19039.93     92.57561     184.6378     369.4959      2.841     7.07     1252.823     65.09731     535.7891        76     2.404     1.840 -11.87   0
        72    654.8815    821.7438 307.6355522  +6.3379364     1674.685     4175.531     5520.558     92.57561     184.7113     369.3491      2.702     8.60     1247.148     65.09731     173.2603        34     2.032     1.308  -8.29   0
        73    886.9012    820.4001 307.5391722  +6.3462136     3171.097     7243.269     8920.103     91.98783     184.2702     368.8347      2.511     6.23     1244.857     65.09731     356.1753        42     2.004     1.354 -15.96   0
        74    629.4418    815.6083 307.6463293  +6.3396224     1717.151     4265.942     6329.537     91.84029     184.4909     369.0185      3.233     7.40     1246.904     65.09731     205.2955        34     1.983     1.491  -7.35   0
        75   1020.2585    814.4462 307.4839473  +6.3531030     2949.767     6293.981      6871.05     92.57561     184.7113     334.6787      2.206     5.72     1241.626     65.09731     338.2386        38     1.899     1.290 -13.14  24
        76    817.5820    816.4163 307.5681135  +6.3455536     711.7792     1643.507     1451.912      92.2822     184.3438      369.239      2.301     3.90      1245.32     65.09731     112.4921         5     0.984     0.444 -14.17   0
        77     80.5508    833.6886 307.8738239  +6.3138115     1140.248     3198.089     4590.062     92.57561     184.4909     369.4225      2.926     9.19     1251.468     65.09731     152.8672        21     1.828     1.290  15.78   0
        78    619.8585    812.9397 307.6504010  +6.3404050     890.4289     2082.218     3978.223     92.57561     184.6378     369.3491      3.614     6.22     1246.769     65.09731     125.6063         9     1.522     0.714 -26.75   3
        79    622.4295    809.3232 307.6494533  +6.3419842     1025.362     1829.501     2969.469     92.42902     184.7847     369.3491      2.451     5.38     1246.493     65.09731     106.2745        10     1.091     0.748 -16.59   3
        80    906.0875    807.3785 307.5316319  +6.3522291      1855.85     4142.032     4646.575     92.57561     184.4174     369.1655      2.392     5.75     1243.789     65.09731     235.1326        23     1.771     0.909  -1.10   2
        81    364.6342    804.3954 307.7567524  +6.3354152     1105.303     3567.509     4236.381     91.69252     184.5644     369.0553      2.821    10.89     1250.774     65.09731     138.7152        30     1.949     1.695 -34.97   0
        82    500.4591    793.5497 307.7006692  +6.3444301     1293.841     3389.843     4458.975     92.57561     184.7113     369.3124      2.912     9.44     1248.739     65.09731     163.6117        29     2.077     1.431  -6.51   0
        83    547.4442    790.3922 307.6812484  +6.3473018     2498.134     7589.093     11390.19     91.98783     184.5644      368.945      3.283    10.08     1247.218     65.09731     284.8597        61     2.683     1.685 -15.01   0
        84    464.0577    788.1537 307.7159775  +6.3454435     744.2056     1711.527     1875.881     92.57561     184.7113     369.4592      2.532     6.24      1249.07     65.09731      103.894         9     1.208     0.905 -22.79   0
        85    517.7400    784.1992 307.6938000  +6.3488683     8368.373     23586.16     30340.04     91.69252     184.4909      368.945      2.812     6.73     1247.642     65.09731     943.9883        88     2.341     1.942 -14.33   0
        86    931.4364    782.1254 307.5219373  +6.3635007     2313.219     5472.369     5956.554     92.42902     184.7847     369.3491      2.485     6.78     1241.687     65.09731     268.0762        40     2.075     1.378 -10.94   0
        87    309.6425    775.0365 307.7805885  +6.3457012     1099.892      2225.91       2720.8     92.28219     184.7113     369.1655      2.266     6.35     1251.869     65.09731     142.2953        13     1.310     0.865 -58.83   3
        88    312.9426    771.7334 307.7793277  +6.3471756     946.8248     2083.657     3417.291     92.72198     184.6378     369.2757      3.696    11.29     1251.614     65.09731     172.6312        21     3.003     1.182  -6.90   2
        89    775.7714    768.5587 307.5870847  +6.3639265     26906.24     68324.32     83812.66     92.13513     184.5644     369.1288      2.637     6.13     1242.586     65.09731      2894.57       101     2.341     1.796 -18.33   0
        90     10.7667    771.3088 307.9049171  +6.3372323     708.5729     2037.726     2310.751     92.72198     184.5644     369.3491      2.608     7.51      1248.87     65.09731     111.5414        11     1.626     1.205 -72.99   0
        91    233.2439    766.9277 307.8126097  +6.3464943     2371.243     6963.582      10882.9     92.42902     184.7847     369.3491      4.101     7.83     1251.585     65.09731     270.0458        59     2.149     1.954 -14.03   0
        92    901.0742    763.7276 307.5351685  +6.3700895     4636.789     10783.13     12997.15     92.86812     184.9314     369.3491      2.515     6.12     1240.865     65.09731     521.9033        57     2.230     1.482 -19.35   0
        93    698.9424    760.4017 307.6192874  +6.3647371     33600.39     103331.5       157679     91.84029     184.3438     369.0185      3.327     8.50     1243.273     65.09731     4267.734       188     3.587     2.155  21.47   0
        94    342.7820    760.9344 307.7672885  +6.3526328     8155.462     24025.83     32329.75     92.13512     184.7113     369.2022      2.942     7.25      1250.33     65.09731     829.2041        86     2.411     1.963  -9.05   0
        95    404.5647    758.7877 307.7416842  +6.3555839     8404.529      25501.8      33163.8     91.98783     184.4909      369.092      2.900     7.36       1248.9     65.09731     909.8346        88     2.406     1.954 -13.63   0
        96    232.6932    745.4501 307.8135583  +6.3553454     768582.6      2511880      3417035     92.42902     184.5644     369.5326      3.067     7.78      1250.46     65.09731     64319.86       548     2.751     2.437 -10.43   4
        97    941.5342    756.6957 307.5185868  +6.3743382     1285.939     2482.567      2906.22     92.57561      184.858     369.3491      2.276     7.91     1239.471     65.09731     141.3584        19     1.570     1.115 -35.44   0
        98    898.0250    755.1307 307.5367221  +6.3735385      3552.99     8706.523     10415.14     92.13512     184.5644      369.239      2.511     6.26     1240.267     65.09731      378.974        52     2.129     1.516 -18.69   0
        99    638.6763    754.4521 307.6445328  +6.3651862     2656.873     7282.185     9357.044     92.57561     184.7847     369.3124      2.781     7.33     1243.819     65.09731     287.9252        49     2.093     1.588 -10.78   0
       100    427.9779    752.7476 307.7321559  +6.3588603     777.1757     1845.735     2653.702     91.98783     184.7113      369.092      2.779     7.24     1248.147     65.09731     103.1145        10     1.265     1.161  66.54   0
       101    673.2162    744.6467 307.6305050  +6.3703865     932.2766     2482.074     2552.263     91.98783     184.5644     369.0553      2.374     8.38     1243.244     65.09731     114.3054        16     2.069     0.949 -75.78   0
       102    407.5125    741.3832 307.7410414  +6.3628699     21163.72     62174.61     82417.73      92.2822     184.4174     369.1655      2.920     7.28     1248.292     65.09731     2293.243       123     2.513     2.074 -13.53   0
       103    525.3223    740.3491 307.6921142  +6.3672302     2730.857     8277.167     10793.92     92.57561     184.7847     369.3124      2.928     7.96     1244.807     65.09731     308.1217        59     2.304     1.764 -19.67   0
       104    441.8573    738.7100 307.7268572  +6.3651210     1933.852     5782.392     9816.846     92.42902     184.6378     369.4592      3.749    13.96     1247.161     65.09731     227.6362        69     3.031     2.180  44.83   2
       105    770.3259    736.6996 307.5904100  +6.3769024     5396.946     14450.01     17736.54     91.98783      184.858     369.2022      2.727     6.55     1240.469     65.09731      560.046        66     2.217     1.718 -18.41   0
       106    127.8943    728.9484 307.8576643  +6.3586511     4679.017     13654.48      21825.4     92.42902     184.6378      369.606      4.134    13.42     1247.928     65.09731     462.5388       136     4.864     2.223  19.16   2
       107    915.9899    725.2219 307.5302511  +6.3864874     3329.422     8031.646     9896.143     92.13512     184.4174     369.1288      2.518     6.02     1238.102     65.09731     425.5071        50     2.133     1.462 -17.53   0
       108    965.2142    724.4661 307.5098172  +6.3884352     855.6396     1836.257     2338.289     91.98783     184.5644      369.239      2.338     6.25     1236.704     65.09731     118.2874        10     1.418     0.775  -9.65   0
       109    671.3592    722.4400 307.6320178  +6.3794955     591.9921     1594.304     1933.203     92.28219     184.7847     369.1655      2.588     6.11     1241.834     65.09731     126.3317         7     1.638     0.641 -54.97   0
       110    969.9250    716.3636 307.5081289  +6.3919379     1138.512     2562.808      2653.15     92.42902     184.7847     369.3491      2.320     6.46      1236.29     65.09731     221.0287        17     1.859     0.946 -39.42   0
       111    939.3341    716.5695 307.5208366  +6.3908365     1734.594     3783.762     4745.889     92.28219     184.7113      369.239      2.223     6.93     1237.252     65.09731      202.844        28     1.839     1.166 -40.32   0
       112    910.5151    716.8527 307.5328052  +6.3897618     1713.634     4032.247     4806.374     92.57561     184.6378     369.4959      2.382     6.87     1237.792     65.09731      221.624        33     1.921     1.207 -12.37   0
       113    558.1639    720.9711 307.6791124  +6.3763284     826.6666     1865.674      2760.64     92.13512     184.4174      369.092      3.097     4.28     1243.193     65.09731     117.8079         8     0.880     0.637 -41.12   2
       114    235.0565    711.4889 307.8137144  +6.3694492     912.5346     2697.263     4352.166     92.57561     184.5644     369.4592      3.605     9.06     1248.472     65.09731     155.1184        13     1.930     1.188  27.62   2
       115    954.6898    704.2207 307.5148652  +6.3964466      1356.28     3056.951      3773.87     92.42902     184.4909     369.1288      2.527     6.88     1236.299     65.09731     162.2532        28     1.808     1.313 -34.06   0
       116    996.0051    697.7463 307.4979084  +6.4004928     968.5649      2287.95     2416.135     91.84029     184.4174      368.945      2.382     8.09     1235.098     65.09731     111.5607        18     1.600     1.144  -2.37   0
       117    884.1841    692.6307 307.5445557  +6.3988897     731.2133     1853.508     2709.239     92.13512     184.4174      369.239      2.411     6.10     1236.874     65.09731     108.8785         8     1.550     0.674 -31.87   0
       118     40.6235    682.8067 307.8954816  +6.3747809     936.8678     2309.773     3416.288     91.98783     184.4909     369.1288      2.911     7.78     1245.348     65.09731     112.2104        13     2.012     0.842  45.81   2
       119    841.9003    684.2039 307.5624111  +6.4009636     664.7546     1487.147     2473.744     92.28219     184.4174     368.9083      2.617     5.67     1236.854     65.09731     110.3356         6     1.327     0.683  -3.13   0
       120    652.5082    672.6729 307.6415137  +6.3994200      2600.89     7590.274     9837.668     92.42902      184.858     369.3491      2.836     8.15     1238.724     65.09731     289.3888        56     2.247     1.724 -11.89   0
       121    624.3170    670.5886 307.6533005  +6.3993411     628.7558     1588.507     2276.052     92.13513     184.4174     369.1288      2.736     5.02     1239.292     65.09731      114.021         7     1.324     0.669  11.85   0
       122    116.3782    668.9358 307.8644639  +6.3830481     1556.165     4223.556     5562.562     92.13512     184.7113     369.1655      2.741     9.27     1243.929     65.09731     173.3221        32     1.817     1.664   0.47   0
       123    989.0563    667.8085 307.5017925  +6.4126258     1441.768     3421.264     3761.241     91.84029     184.6378     369.0185      2.428     7.07     1234.225     65.09731     186.3337        27     1.662     1.411 -15.67   0
       124    769.2983    664.7321 307.5932363  +6.4065892     9075.925     24226.66     30451.92     92.57561      184.858     369.3491      2.753     6.76     1236.741     65.09731     955.3027        85     2.372     1.847 -17.39   0
       125    899.5052    663.9164 307.5391437  +6.4112575     1866.649     4439.939     4511.219     92.42902     185.1512     369.4592      2.392     7.30      1235.28     65.09731     214.7203        35     1.954     1.335 -12.02   0
       126    650.0049    657.7153 307.6430534  +6.4055137     2583.612      7415.28     9098.237     91.98783     184.2702     368.9083      2.739     8.05     1237.488     65.09731     271.5861        52     2.171     1.644 -17.49   0
       127    243.0196    658.7930 307.8121710  +6.3914772     2218.663     6882.814     9945.532     92.13512     184.4174      369.092      3.407     8.36     1245.164     65.09731     259.4001        55     2.175     1.798  -6.93   0
       128    721.3482    646.2410 307.6137831  +6.4126292     1686.385     4334.972     6334.124     92.57561     184.7847     369.3124      3.184     9.63     1235.682     65.09731     180.2455        37     2.144     1.477 -12.07   0
       129    987.8078    642.3165 307.5031595  +6.4231121     4877.457     11355.25     13914.13     92.13512     184.3438     369.1288      2.508     5.91     1232.169     65.09731     496.7054        59     2.167     1.528 -17.28   0
       130    926.3975    643.0720 307.5286599  +6.4207597     1296.505     3224.256     3630.389     91.98783     184.2702     369.1288      2.502     9.06     1234.144     65.09731     141.7874        26     1.713     1.338  -4.25   0
       131      8.0532    643.1804 307.9103486  +6.3900526     836.9319     2039.473     2576.636     91.98783     184.7113     367.6932      2.639     7.87     1244.845     65.09731     101.0466        14     1.371     1.265  16.46  16
       132     65.4671    638.0424 307.8866597  +6.3940996     9481.227     29657.74     39936.47     92.57561     184.6378     369.3858      3.017     7.73     1243.615     65.09731     959.8132        96     2.442     2.071 -15.87   0
       133    524.4513    637.2759 307.6959210  +6.4097676     627.1091      1856.99     3192.662     92.57561     184.7847     369.3124      2.328     3.45       1239.1     65.09731     111.2631         5     1.013     0.340 -67.60   0
       134    496.9986    634.8397 307.7074127  +6.4098574     632.4783     1020.465     1627.296     91.54451     184.4174      368.945      2.582     4.95     1239.734     65.09731     92.75854         7     1.165     0.594 -15.34   0
       135    711.6093    629.7200 307.6183821  +6.4191276     1382.974     3873.288     5872.571     92.13513     184.2702     369.1288      3.240     9.01     1234.425     65.09731     192.5144        35     1.978     1.508 -34.89   0
       136    733.1226    627.9652 307.6094987  +6.4205687     1693.531      4650.62     6042.325     92.42902     184.7847     369.3491      2.811     8.61      1234.15     65.09731     198.4729        35     1.923     1.609 -20.35   0
       137    565.6544    627.6500 307.6791169  +6.4151175     998.3834     2337.135     3466.144     92.57561     184.7113     369.3491      2.908     8.45     1237.092     65.09731     124.4757        16     1.924     1.036 -21.07   3
       138    565.0117    624.5173 307.6794887  +6.4163897     1102.202     2445.505     3766.049     92.13512     184.4174     369.1288      2.723     8.44     1236.882     65.09731     143.6031        16     2.492     0.798 -36.45   2
       139   1005.9213    623.8932 307.4962433  +6.4313222     2746.118     6535.467     7751.366     92.28219     184.9314     369.3858      2.419     6.26     1229.975     65.09731     295.8799        47     2.061     1.460 -12.16   0
       140    971.4154    622.7786 307.5106232  +6.4306364     4229.987     10433.32     11735.86     92.28219     184.4174     369.2022      2.458     6.27     1231.375     65.09731     433.9225        53     2.054     1.543 -14.28   0
       141    227.0453    625.2007 307.8199362  +6.4048149     649.1822     1511.941     2752.096     91.84029     184.3438     368.8347      3.320     2.88     1243.176     65.09731     91.45483         5     0.905     0.721  -3.64   0
       142    130.2312    616.8925 307.8604528  +6.4050040     8595.827     27167.41      36171.2     92.72198     184.4909     369.3124      2.989     7.89     1242.598     65.09731     842.4243        95     2.444     2.092 -13.32   0
       143    416.7238    617.1155 307.7413708  +6.4144963      1019.67     3020.399     4430.894     92.72198      185.078     369.3858      3.188     8.50     1240.481     65.09731     105.4395        21     1.640     1.232  83.58   2
       144    799.3629    615.5771 307.5823786  +6.4278899     609.2158     1416.191     1565.678     92.13513     184.4174     369.0553      1.905     4.18     1233.061     65.09731     115.0739         5     0.995     0.501  47.93   0
       145    966.4853    605.7201 307.5132401  +6.4375175     3852.434      9692.71     12597.24     92.42902      185.078     369.4225      2.707     6.41     1230.402     65.09731     405.5457        60     2.160     1.709   1.66   0
       146   1021.1619    600.8293 307.4906754  +6.4413533     49053.91     114019.1     125248.9     92.13512     180.7784     321.3672      2.309     5.63     1227.316     65.09731     5277.514        89     1.957     1.708 -43.28  24
       147    560.0378    601.3081 307.6823316  +6.4258086     17156.61     53364.32     72581.01     92.72198     184.6378     369.3491      3.027     7.63     1235.165     65.09731     1817.624       117     2.577     2.090 -13.69   0
       148    167.2460    597.9772 307.8457032  +6.4140551     1073.625     3420.082     4790.757     92.13512     184.7113     369.1655      3.192    10.59     1241.733     65.09731     128.8986        28     1.918     1.631 -73.85   2
       149    457.3293    585.2336 307.7255599  +6.4290189     21228.24     68623.63     95372.31     92.42902     184.7113     369.3858      3.100     7.94     1237.252     65.09731     2115.387       128     2.620     2.173 -14.95   0
       150    304.7175    573.7165 307.7893782  +6.4286748     763.2067     1882.908      3616.46     92.28219     185.0047     369.4225      3.976     7.19     1237.521     65.09731     100.8783        10     1.496     0.968  34.10   0
       151    729.5350    568.5374 307.6129722  +6.4449916     2192.314     6267.152     8165.934     92.57561     184.7113     369.3491      2.860     7.97     1230.691     65.09731     219.4347        47     2.016     1.712 -16.37   0
       152    782.7532    563.7440 307.5910107  +6.4487430     5755.521     16387.68     21379.05     92.57561     184.7113     369.4225      2.891     7.24     1230.433     65.09731     581.5121        78     2.366     1.871 -16.24   0
       153   1022.5745    561.4890 307.4913967  +6.4576471     946.9879     2378.606     2806.487     92.72198     164.5199     298.2565      2.670     8.04     1224.387     65.09731     140.2981        13     1.578     1.146 -72.72  26
       154    606.5320    560.3267 307.6643749  +6.4442835     1138.879         2807     4219.748     92.72198      184.858     369.2757      3.352     7.96      1231.07     65.09731     144.6715        19     1.784     0.993  13.42   2
       155    219.8169    553.2072 307.8253542  +6.4343036     614.8389      1150.85     1254.359     92.13512     184.4174     369.1288      1.792     3.87     1238.487     65.09731     102.2733         5     1.235     0.347  10.20   0
       156    859.7233    545.9371 307.5596092  +6.4586579     1001.961     2676.595      3298.43     92.86812     184.7113     369.2757      2.813     5.85     1229.567     65.09731     142.2653         9     1.257     0.767  22.01   2
       157    817.9809    544.2284 307.5770178  +6.4579749     1139.327     2770.019     3523.004     92.13512     184.4909      369.239      2.668     7.91     1229.426     65.09731     158.1062        19     1.538     1.137  61.11   0
       158    245.3065    542.3325 307.8151241  +6.4396476     1699.814     2933.481     3029.662     92.42902     184.9314     369.3491      1.948     4.80     1237.011     65.09731      236.045        11     1.259     0.700 -35.91   3
       159    247.6226    539.2941 307.8142632  +6.4409799     2446.291     6299.933     8813.486     92.57561     184.4909     369.1655      2.542    12.72      1236.67     65.09731     252.1115        54     3.008     1.687   1.94   2
       160    798.0680    535.6863 307.5855800  +6.4608400     63037.92     182066.6     237953.2     92.72198     185.0047     369.3491      2.899     7.13     1228.774     65.09731      6589.33       186     2.746     2.069 -19.90   0
       161    179.6831    536.6741 307.8425902  +6.4397874     17198.27     33227.53     35717.49     92.72198      185.078     369.3858      2.031     5.54      1237.95     65.09731     1851.514        32     1.754     1.078 -19.10   3
       162    180.7148    533.1377 307.8422800  +6.4412824     19207.22     48983.24     67015.82     92.72198      184.858     369.3124      2.872     8.64     1237.643     65.09731      1941.09        98     2.879     1.790   3.41   3
       163    105.6355    531.2072 307.8735513  +6.4395644     2129.241     5643.969     7639.599     91.84029     184.4909     369.0553      2.632     9.70     1238.597     65.09731     233.4696        35     2.379     1.219 -34.79   3
       164    103.0049    529.3050 307.8747085  +6.4402617     1933.095     4399.405      5641.17     92.28219     184.3438     369.0185      2.601     6.01     1238.512     65.09731     214.5603        25     1.553     1.271 -51.40   3
       165    353.1736    523.6769 307.7709132  +6.4509597     4794.048     10152.36     13228.44     92.42902     184.7113     369.2757      2.359     6.93     1232.589     65.09731      514.249        37     2.349     1.082   4.97   3
       166    354.1938    520.1415 307.7706075  +6.4524538      5321.53     13482.64     18727.65     91.98783     184.5644     368.9818      2.746     8.38     1232.204     65.09731     556.4672        59     2.653     1.355  15.64   3
       167    834.6049    524.6984 307.5707583  +6.4665935      1514.15     2914.657     3480.173     92.28219     184.3438     368.9083      2.094     7.86     1227.441     65.09731     235.7688        20     2.101     0.822 -20.16   3
       168    834.5245    521.5453 307.5708968  +6.4678930     1842.641      3513.29     4078.499     92.42902     184.7113     369.3491      2.213     7.66      1227.13     65.09731      216.658        25     2.026     0.961 -13.96   3
       169    519.2113    518.3770 307.7020734  +6.4586946     1725.416     3086.694     4456.885     92.13513     184.4909     369.2022      2.150     6.78     1230.246     65.09731     204.3629        20     1.675     1.052   7.30   3
       170    520.1421    514.7443 307.7018080  +6.4602259     2109.572     4924.674     6373.851     92.72198     184.7847     369.3858      2.505     7.86     1229.995     65.09731     237.0886        38     2.257     1.276  12.25   3
       171    788.5390    516.3945 307.5901843  +6.4684899     2238.534     6134.942     8340.755     91.84029     184.4909     369.0553      2.911     7.65     1227.174     65.09731     247.7601        53     2.147     1.790  -8.92   0
       172    167.0885    509.7286 307.8487290  +6.4504930     2192.555     7494.129     10284.82     92.72198     185.0047     369.3491      3.120     9.33     1236.075     65.09731     223.3533        61     2.334     1.880 -18.33   0
       173    261.9439    506.0791 307.8094238  +6.4551757     27138.38     92375.11     131881.7     92.72198     184.7113     369.3124      3.196     8.45     1233.239     65.09731     2782.186       146     2.691     2.273 -13.27   0
       174     38.5977    510.6776 307.9021047  +6.4457947     1401.607     2715.887     4533.728     91.84029      184.123     369.0553      2.478     6.20     1237.907     65.09731     176.1918        14     1.868     0.578 -17.83   3
       175     39.0626    507.4429 307.9020201  +6.4471461     1795.888      4515.61     6123.328     92.57561     184.6378     369.4225      2.816    10.55     1237.656     65.09731      192.449        35     2.461     1.276  -6.13   3
       176    563.3630    507.5309 307.6840830  +6.4646470     740.7362     1978.976     3695.533     92.42902     184.7113     369.4225      3.799     6.09      1228.59     65.09731     119.7715         6     1.427     0.732  -6.61   2
       177    784.8861    497.9762 307.5923169  +6.4759747     6278.123      18304.2     23484.42     92.57561     184.4909     369.1655      2.831     7.13      1225.76     65.09731      654.162        79     2.320     1.921 -19.86   0
       178    488.5953    496.6785 307.7155254  +6.4666335     13744.59     45428.59     66732.71     92.13513      184.123     369.0185      3.237     8.10     1229.307     65.09731     1396.746       129     2.751     2.235 -13.32   0
       179     47.1130    495.7219 307.8990676  +6.4522563     3081.251     3457.391     2604.302     92.57561      185.078     369.4592      0.985     2.84     1236.898     65.09731     1260.047         8     1.135     0.335  63.84   0
       180    648.3633    493.0256 307.6492339  +6.4734717     1017.284     2872.166      4740.38     92.13512     184.4909     369.0553      3.498     7.26     1226.733     65.09731     148.6815        14     1.262     1.171 -32.68   2
       181    202.5154    493.6881 307.8345415  +6.4583035      825.342     1924.141     1706.183     92.28219     184.9314     369.3858      2.265     5.86     1234.641     65.09731      93.4823         9     1.148     0.841  86.05   0
       182    318.6883    484.7929 307.7865501  +6.4658644     1148.707     3704.371     5583.525     91.98783     184.3438     369.0185      3.190     9.52     1229.232     65.09731     143.8356        26     2.181     1.159   2.82   2
       183    133.0989    484.5752 307.8637012  +6.4597417     8255.257     28043.49     38806.28     92.72198     184.4174     369.1288      3.141     8.34     1234.892     65.09731     799.2134        99     2.531     2.141 -14.36   0
       184    860.7687    483.5850 307.5612521  +6.4844428     810.0634     1812.773     2283.848     92.13513     184.4174      369.239      2.208     6.12     1222.235     65.09731     117.1794         9     1.228     0.858  29.60   0
       185    100.2365    483.4958 307.8773971  +6.4590862     785.1016     1784.636     2141.883     92.72198     184.5644     369.4592      2.442     4.64     1235.574     65.09731     96.32605         5     0.844     0.724 -27.30   3
       186     98.2924    480.7133 307.8782986  +6.4601701     665.9904     1537.624      1898.98     92.57561     185.2245     369.4225      2.530     3.34     1235.495     65.09731     122.9755         5     0.754     0.495  64.05   3
       187    958.3129    478.5077 307.5208712  +6.4897824     2388.848     6097.003     6962.444     92.57561     185.2245     369.4225      2.650     6.50      1219.99     65.09731     298.0061        47     1.908     1.687   4.57   0
       188      1.4257    468.8059 307.9189622  +6.4618389     3449.828     4748.649     4939.556     81.68092     148.2162     279.4305      1.343     3.53     1236.575     65.09731     727.6675        17     1.461     0.619 -89.73  24
       189    429.5303    467.5100 307.7410536  +6.4767066     12105.13      24827.4     29588.04     92.57561     185.0047     369.3124      2.234     6.23     1226.955     65.09731     1276.708        43     2.113     1.156   2.01   3
       190    430.5843    463.7412 307.7407416  +6.4782982     12708.84     30807.55     40491.64     91.84029     184.6378     369.0185      2.718     8.59     1226.635     65.09731     1294.975        74     2.778     1.441  13.50   3
       191    637.9719    464.9348 307.6544916  +6.4847261      4025.71     12768.14     16828.28     92.13512     184.7113      369.239      3.000     8.02     1224.878     65.09731     420.3984        76     2.400     1.981 -18.63   0
       192    195.3756    463.2042 307.8385317  +6.4706531     6212.908     20962.81     30296.74     91.98783     184.4174     369.1288      3.218     8.30     1232.225     65.09731     583.5059        96     2.511     2.187  -3.12   0
       193    562.5236    460.7292 307.6859960  +6.4839467     781.4322     1663.981     2967.532     92.86812     185.0047     369.3124      3.028     6.29     1225.148     65.09731     110.2709         7     1.269     0.875 -51.98   2
       194    933.3336    458.8765 307.5319090  +6.4970595     2256.365     5630.352     6418.231     92.72198     184.7847     369.2757      2.527     7.59     1219.868     65.09731      255.428        42     2.065     1.545 -27.29   0
       195    606.8646    457.3547 307.6676761  +6.4868193     2158.929     6818.082     9624.753     92.57561     184.6378     369.3124      3.135     8.91     1224.426     65.09731     234.6658        62     2.323     1.875 -20.93   0
       196    558.7853    459.7559 307.6875825  +6.4842240     758.0858     1760.843     3232.874     91.84029     184.4909     369.0185      3.077     5.13     1225.092     65.09731     91.57434         8     1.202     0.619 -46.38   0
       197    956.2083    450.6867 307.5226722  +6.5012020     1690.506     3989.688     4474.456     92.13512     184.3438      369.092      2.374     7.32     1218.909     65.09731     210.6827        27     1.880     1.161 -51.98   0
       198    365.2579    451.2664 307.7683148  +6.4812668     793.3931     1656.297     3110.041     92.72198     184.6378     369.3124      3.570     6.34     1226.604     65.09731     135.7731         9     1.340     0.938 -61.49   2
       199    518.5132    450.2924 307.7046399  +6.4867883     2377.863     5429.473      7789.73     92.57561     185.2245     369.4225      3.043    10.76      1224.41     65.09731     245.5204        39     2.857     1.129 -26.23   3
       200    518.6686    446.6802 307.7046961  +6.4882851     1878.343     3758.628     5790.099     92.72198     185.0047     369.2757      2.716     7.33     1224.109     65.09731     234.3867        25     2.159     0.929 -19.59   3
       201    875.2455    443.9468 307.5565546  +6.5012940     1363.525     3875.093     6154.063     92.57561     184.7113     369.3491      3.697     8.80     1220.417     65.09731     183.4669        33     1.976     1.534 -17.09   0
       202    882.8870    437.8193 307.5535820  +6.5040787     963.6361     2543.657      3803.79     92.28219     184.4174     369.1655      3.530     8.54     1220.108     65.09731     117.5031        18     1.940     1.050 -18.69   0
       203    705.9998    435.8050 307.6271844  +6.4990230     1042.198     3071.086       4711.8     91.84029     184.2702     369.0185      3.183     9.16     1222.012     65.09731     137.5128        18     2.008     1.166   9.16   2
       204    376.7458    435.3328 307.7640728  +6.4882308     1048.511      2212.68     3047.573     92.57561     184.6378     369.2022      2.311     7.64     1225.426     65.09731     145.3573        14     1.590     1.028   7.37   3
       205    378.4196    431.8989 307.7634920  +6.4897049     1028.295     2946.885      4440.23     92.57561     184.5644     369.0553      3.255     8.14      1225.22     65.09731     138.2706        19     2.275     0.815  19.90   2
       206     69.7426    435.9988 307.8916673  +6.4776781     542.5733     1297.314     1579.801     91.84029     184.3438      368.945      2.357     4.92     1234.685     65.09731     87.02185         5     1.186     0.577 -10.01   0
       207    605.0299    431.2509 307.6693109  +6.4975383     3009.006     6253.885     9349.252     92.13512      184.858     369.2022      2.701     7.74     1222.325     65.09731     308.8112        37     2.336     1.038  -5.22   3
       208    604.9941    428.0000 307.6694344  +6.4988796     2956.523     7105.218     9773.341     91.69252     184.2702     369.0553      2.658     9.55     1222.081     65.09731     330.9874        36     2.551     0.998   0.75   3
       209    418.4126    432.1892 307.7468573  +6.4909215     586.5586     1232.237      1989.82     92.28219     184.4174     369.2757      1.975     3.67     1224.507     65.09731     90.98987         5     1.012     0.383  -5.12   0
       210    287.2116    429.3805 307.8014911  +6.4876948     861.8809      1707.77     2939.801     92.13513     184.3438     369.2022      3.079     5.53     1225.874     65.09731     113.0807         8     1.144     0.754 -76.88   3
       211    288.9165    425.0069 307.8009289  +6.4895580      775.205     2103.317     2865.205     92.13512     184.3438     369.1655      2.646     7.09     1225.522     65.09731     117.1826        12     2.247     0.626  17.85   2
       212    767.5221    427.4998 307.6018856  +6.5045018     5641.189     11126.55     13378.83      92.2822     185.0047     369.3491      2.155     5.90     1220.646     65.09731     578.8593        27     1.804     1.050   0.10   3
       213    768.2653    424.4244 307.6016792  +6.5057966     5637.799     12666.46     18111.27     92.13513     184.7113     369.2022      2.866     8.12     1220.423     65.09731     570.4766        58     2.697     1.413   1.10   3
       214    105.6298    420.6821 307.8772641  +6.4852063     1228.186     2851.576     4468.459     92.42902     184.4909     369.2757      2.989     6.72     1232.545     65.09731     142.6906        15     1.509     0.840 -24.22   3
       215    105.5213    416.8339 307.8774384  +6.4867918     1293.522      3352.65     5551.161     92.42902     184.7113     369.2757      3.442     8.46     1232.362     65.09731       143.35        23     1.675     1.250 -28.10   2
       216    953.5516    419.4132 307.5248178  +6.5140290     768.4351      1981.04     2550.271     91.84029     184.6378     368.9818      2.667     6.65      1217.72     65.09731     94.96057        10     1.390     0.892 -11.31   0
       217   1007.1985    415.4809 307.5026459  +6.5174352     2025.542     5627.526     7090.408     91.69252      184.123     368.9818      2.843     8.20     1215.003     65.09731     209.7162        50     2.041     1.782  -0.94   0
       218    522.5392    421.5312 307.7039279  +6.4988001     1951.308     1831.729     2008.241     92.72198     184.6378     369.3124      0.913     2.07     1221.591     65.09731     661.0863         6     0.835     0.380  64.31   0
       219    340.7338    411.3608 307.7798458  +6.4969265     911.2392     2260.101     3348.653     92.42902     184.6378     369.4225      3.170     5.58     1224.347     65.09731     123.7261        10     1.232     1.018 -68.68   0
       220    706.3381    399.6897 307.6282490  +6.5139490      4778.49     10238.81     12991.27     92.57561      184.858     369.3858      2.424     7.44     1219.058     65.09731     507.3287        41     2.265     1.231  21.95   3
       221    706.9354    396.2956 307.6281140  +6.5153706     5048.827     11482.24     15280.81     92.42902      184.858     369.3491      2.614     7.95     1218.693     65.09731     543.1643        39     2.501     1.024  18.99   3
       222    808.0549    398.8910 307.5859891  +6.5176657     851.8377     2022.856     2991.166     92.42902     184.5644     369.4592      3.168     6.11     1218.766     65.09731     124.2292        10     1.272     0.825 -81.39   0
       223    628.1236    392.4468 307.6610066  +6.5143333     925.0778     2454.889     4042.491     92.42902     184.7847     369.2757      3.479     6.87     1218.634     65.09731     130.7781        10     1.780     0.745 -73.37   2
       224    600.6527    389.6346 307.6725209  +6.5145787     5254.422     14694.34     24223.48     92.42902     184.7113     369.2022      3.424     8.61     1218.495     65.09731     509.4971        88     3.094     1.927  -6.81   3
       225    599.0143    386.8228 307.6732960  +6.5156852     4893.396     10384.73     12193.71     92.28219     184.4909     369.2022      2.273     5.46     1218.215     65.09731     479.3064        30     1.830     1.115   3.60   3
       226    931.6692    387.3914 307.5349813  +6.5265261     1791.268     4516.066     5527.481     91.98783     184.3438     369.2022      2.541     7.18      1216.31     65.09731     229.6111        36     1.865     1.515 -25.13   0
       227    371.3016    386.0045 307.7679878  +6.5084197     8090.675     18658.15     24687.23     92.28219     184.3438      368.945      2.690     9.15     1221.657     65.09731     898.9912        61     2.833     1.323  -5.43   3
       228    370.9859    382.0060 307.7682529  +6.5100604     8333.251     18317.79     23726.12     92.13512     184.4174     369.1288      2.402     8.96     1221.301     65.09731     847.2289        51     2.402     1.203   3.87   3
       229    118.5390    382.7833 307.8731702  +6.5012895     757.3205     1808.153     2566.812     91.98783     184.6378      369.092      2.268     5.50     1230.274     65.09731      94.9292         9     1.527     0.559  74.93   0
       230    885.6810    382.0228 307.5542793  +6.5272143     710.0589     1623.405     2591.901     92.13512     184.3438      369.239      3.302     6.42     1216.849     65.09731     100.8219         8     1.190     0.972  86.37   0
       231    900.5635    377.6227 307.5482386  +6.5295263     1936.824     5813.793     7108.475     92.13513     184.4174     369.0553      2.749     7.44     1216.283     65.09731     216.1066        51     2.070     1.741 -22.91   0
       232    228.6050    376.4806 307.8276272  +6.5075791     4156.771     9012.555     11328.93     92.13513     184.1966     369.0553      2.405     6.68     1225.785     65.09731     436.7599        36     2.097     1.182   0.23   3
       233    229.5958    373.0036 307.8273319  +6.5090481     3777.107     9997.351     13269.13     91.84029     184.1966      369.092      2.718     9.35     1225.594     65.09731     357.5972        53     2.708     1.296  16.32   3
       234    128.1777    365.4625 307.8697449  +6.5087653     1584.927     3833.289     6120.161     92.13512     184.7113     369.2022      3.311    13.34     1229.259     65.09731     187.2454        40     2.938     1.686 -85.15   2
       235    131.6913    362.9721 307.8683679  +6.5099115     1387.527     2653.732     3872.183     92.72198     184.4174     369.1655      2.008     6.52     1229.044     65.09731      167.095        14     1.601     0.746 -84.12   3
       236    150.8292    362.0645 307.8604427  +6.5109276     833.4401     1874.132     3242.968     92.28219     184.7113      369.239      2.652     5.61     1228.308     65.09731     91.87915        10     1.287     0.688  -3.29   0
       237    153.3611    357.5417 307.8595419  +6.5128801     758.9449     1800.549     3096.816     92.57561     184.7847     369.3858      3.065     5.71     1228.152     65.09731      144.663         8     1.304     0.704  47.96   0
       238     25.8362    349.9013 307.9128110  +6.5117599     1046.377     2654.547     3986.721     92.57561     184.5644     369.5326      3.445     9.24     1233.302     65.09731      121.032        22     1.988     1.199 -48.82   2
       239    427.5713    349.6468 307.7458126  +6.5253148     2164.331     4607.535     5915.095     92.13513     184.7847     369.2022      2.226     6.59     1216.489     65.09731     260.8906        29     1.993     1.073   8.36   3
       240    428.2502    345.5200 307.7456685  +6.5270417       2169.2     5422.632     8055.029     92.57561     184.7847     369.3124      2.865    10.59     1216.302     65.09731     256.8044        47     2.592     1.384  19.96   3
       241    768.2598    345.7658 307.6043051  +6.5382805      4082.93     8361.912     11670.13     92.42902     184.7113      369.239      2.642     8.63     1215.047     65.09731     438.9384        42     2.726     1.027  -8.36   3
       242    768.7924    342.6059 307.6041892  +6.5396032     4116.845     8347.615      10356.4     91.84029     184.4909     369.1288      2.385     7.61     1214.809     65.09731      419.335        39     2.492     0.990  -4.05   3
       243   1012.4434    339.4598 307.5029950  +6.5490046     1711.058     4287.461     5083.612     92.42902     184.7113     369.4592      2.456     8.25     1208.214     65.09731     224.5068        32     1.945     1.236 -48.49  16
       244    477.3784    329.4804 307.7257810  +6.5353065     898.9879      2997.99     4542.006     92.13513     184.3438      369.239      3.347     9.84     1213.995     65.09731     114.7655        26     2.063     1.308  64.16   2
       245    833.9609    327.1411 307.5776109  +6.5481588     13128.22     38070.25     51127.12     92.57561     184.7847     369.4225      2.964     6.92     1213.438     65.09731     1225.952       107     2.486     2.075 -20.44   0
       246    605.0118    321.4865 307.6729856  +6.5428673     914.6997     2216.881     2967.294     92.13512     184.4174     369.1288      2.688     7.39     1212.059     65.09731     131.4785        11     1.543     0.992 -36.99   0
       247    690.4854    313.2606 307.6377247  +6.5491137     27221.29      86533.3     118909.9     92.72198      184.858     369.4225      3.067     7.81     1211.569     65.09731     2659.468       127     2.588     2.166 -16.15   0
       248    552.9435    310.2648 307.6950080  +6.5457644     877.9995     2622.545     3747.676     92.72198     184.6378     369.3124      2.937     9.92     1211.635     65.09731     136.2648        21     1.963     1.398 -74.38   0
       249     90.2286    311.5951 307.8873294  +6.5297381     1720.795     3285.986     4878.443     91.98783     184.4909      369.092      2.265     7.51     1230.259     65.09731     223.2196        17     1.911     0.826  17.78   3
       250     93.4108    309.1398 307.8860890  +6.5308587     1749.878     2768.537     4673.508     91.84029     184.5644     368.9818      2.198     5.32     1230.098     65.09731     197.4155        16     1.408     0.815 -72.65   3
       251     90.2952    308.0434 307.8874210  +6.5312070      1934.81     4689.366     7364.582     92.57561     184.6378     369.4592      3.141     8.07     1230.263     65.09731     220.4011        24     1.867     1.154   3.01   3
       252    536.0240    308.5743 307.7020988  +6.5458979     1959.852     3669.433     4848.473     91.98783     184.4909     369.2022      2.073     7.53     1211.668     65.09731     234.3739        24     2.117     0.856   1.65   3
       253    536.1922    304.8617 307.7021530  +6.5474367     2260.904      5881.42     7635.678     91.84029     184.4909     369.0553      2.794    10.64     1211.272     65.09731     224.1471        40     2.271     1.390  11.68   3
       254    263.8737    305.8427 307.8153339  +6.5379303      804.584     2107.736     2770.601     92.42902     184.7847     369.3491      3.033     8.30     1220.838     65.09731     104.5868        12     1.883     1.022  76.39   2
       255    399.3348    303.8109 307.7590859  +6.5432999     7096.476     14037.89      17632.7     91.98783     184.4909     369.1288      2.376     7.31     1215.346     65.09731     895.2964        41     2.590     0.971  -0.80   3
       256    399.3497    299.8764 307.7592115  +6.5449252     7721.389     19595.97     26391.72     92.42902     184.7847     369.3124      2.807     9.20     1215.169     65.09731     734.1453        65     2.658     1.400   6.49   3
       257    488.1575    293.4640 307.7225045  +6.5505400     2845.718     6826.124     9882.313     92.57561     184.6378     369.3491      3.083     9.86     1210.487     65.09731     294.7192        36     2.417     1.121 -21.27   3
       258    488.4658    290.0161 307.7224917  +6.5519742     2498.505     5466.493      8517.77     91.98783     184.5644     369.1655      3.585     9.92     1210.208     65.09731       261.11        40     3.024     1.214 -18.07   3
       259    755.9147    292.3661 307.6112191  +6.5599221      1232.85     2455.853     3641.925     92.57561     184.5644     369.2757      2.648     7.21     1210.293     65.09731     147.1693        15     1.829     0.796   1.78   3
       260    757.8090    288.8343 307.6105494  +6.5614437     1018.594     2174.928     3710.675     91.98783     184.4909     369.1288      2.918     7.42     1210.069     65.09731     145.2443        17     2.086     0.739  18.98   2
       261    378.7349    277.7412 307.7685232  +6.5533771     2378.713     6000.956     8373.603     92.72198     184.6378     369.3491      2.741     9.53     1214.633     65.09731     246.1909        38     2.571     1.094 -24.81   3
       262    377.9316    274.5171 307.7689652  +6.5546817     2239.792     5056.834     7110.747     92.86811     185.0047     369.3491      2.652     7.29     1214.549     65.09731     246.6136        31     2.052     1.186 -13.73   3
       263    234.4631    276.3575 307.8285497  +6.5491220     888.3642     2551.359     3319.011     92.57561     184.6378     369.3858      2.926     8.19     1221.054     65.09731     133.9088        14     1.917     0.978 -23.46   0
       264    745.9066    271.7798 307.6160671  +6.5680904     18744.42     58693.38     80252.46     92.42902     184.4909      369.092      3.031     7.52     1209.005     65.09731     1926.142       124     2.568     2.145 -16.34   0
       265    417.0010    276.6232 307.7526515  +6.5551178     1439.783     1944.395      3701.69     92.13512     184.3438     369.0553      0.688     2.63     1213.574     65.09731     904.3864         5     0.720     0.285  74.86   0
       266    921.6302    266.4426 307.5431834  +6.5761416      808.511     2445.734     3337.356     92.13513     184.6378     369.1288      3.132     8.49     1207.547     65.09731     112.1293        15     1.866     1.079   1.40   2
       267    179.9734    259.5903 307.8517657  +6.5542213     733.8405     2208.469     3246.913     92.13512     184.4909     369.1655      3.018     4.87     1224.176     65.09731     100.6681         5     1.173     0.572  50.39   0
       268    744.3438    258.3893 307.6171637  +6.5735683     1760.049     3334.966     5343.516     91.84029     184.6378      368.945      2.617     8.70     1208.252     65.09731     243.9648        26     2.785     0.759 -27.23   3
       269    744.0073    254.8109 307.6174231  +6.5750349     1871.278     4509.456     5635.953     92.13512     184.4909     369.2022      2.602     9.72     1208.096     65.09731     191.6703        30     2.251     1.171 -23.00   3
       270    760.6729    255.1877 307.6104813  +6.5754343     979.4875      2776.52     3613.764     91.98783     184.2702      369.092      2.981     8.28     1208.311     65.09731     136.0671        18     1.762     1.088 -79.03   0
       271    998.6721    245.1861 307.5118583  +6.5874802     2766.301     7320.513     8616.311     91.98783     184.4174     369.1655      2.629     6.35     1203.581     65.09731      296.041        46     1.874     1.635 -14.61   0
       272    475.7519    245.6592 307.7292617  +6.5698675     729.1407     1698.084     2287.023     92.57561     184.7113     369.3858      2.044     4.78     1207.078     65.09731     95.54761         8     1.503     0.431  89.05   0
       273    241.1235    242.2796 307.8269236  +6.5634177     1714.757     4858.536      6891.18     92.86812     185.0047     369.4592      3.049    11.80     1220.631     65.09731     206.6608        46     2.680     1.472 -14.65   2
       274    239.6286    239.3687 307.8276427  +6.5645697     1553.047     3292.645      4294.62     91.98783     184.4174     369.0553      2.529     4.95     1220.661     65.09731      208.722        14     1.388     0.925  34.75   3
       275    896.8900    223.5526 307.5548990  +6.5930316     640.0472     1404.455     1893.413     92.57561     184.5644     369.4592      2.569     4.97     1205.788     65.09731     97.01697         6     1.448     0.483  23.86   0
       276    717.0208    220.7759 307.6297795  +6.5881914     1801.573      5658.27     6973.091     92.13512     184.4909      369.239      2.831     8.45     1205.826     65.09731     250.2682        49     2.014     1.820  -5.53   0
       277    551.9205    222.0818 307.6983816  +6.5821471     708.3465     2201.614     3150.369     92.72198     185.0047     369.4592      2.858     6.42     1204.381     65.09731      127.386         9     1.849     0.626 -27.69   0
       278    656.6074    221.2324 307.6548832  +6.5859896     688.0937     1912.885     3012.376     91.98783     184.5644      369.092      3.276     8.07     1204.785     65.09731     103.5366        11     1.933     0.942   2.24   0
       279    219.1171    205.6534 307.8373014  +6.5778059     633.2599     1133.867     2149.332     92.57561     184.7113     369.4225      1.772     3.93     1222.646     65.09731     123.8325         5     1.266     0.350  46.91   0
       280    450.0221    198.0185 307.7415538  +6.5886820     6834.415     14651.83      18343.5     92.28219     184.6378      369.239      2.390     7.90     1205.858     65.09731     751.4047        48     2.456     1.118 -11.17   3
       281    450.3221    193.8382 307.7415689  +6.5904183     6364.879     14972.91     22036.37     92.42902     184.7847     369.3124      2.886    10.31     1205.614     65.09731     623.9001        60     2.818     1.327   0.01   3
       282    776.2091    194.8129 307.6060359  +6.6008847     4797.841     14931.35     20032.61     92.28219     184.4174     369.2022      3.013     7.90     1204.847     65.09731     495.2175        78     2.423     1.993  -9.72   0
       283    139.0835    187.3445 307.8711909  +6.5826855     692.2642     1862.628     3459.384     92.57561     184.7113     369.4225      3.623     6.18     1227.699     65.09731     119.8242         7     1.236     0.868  12.50   2
       284    574.9556    183.3693 307.6900983  +6.5989027      1501.29     3064.417      4382.53     92.13512     184.7847     369.1655      2.419     9.51      1203.12     65.09731     213.5138        29     2.422     1.041 -44.05   2
       285    573.6614    179.6328 307.6907613  +6.6004026     1250.386     2881.569     3729.593     92.28219     184.7847      369.239      2.595     8.06     1203.017     65.09731     169.9156        18     2.085     0.871 -41.24   3
       286    537.4007    183.8145 307.7056983  +6.5974656     670.3389     1401.699     1476.575     92.13512     184.3438     369.0553      2.599     4.68     1203.047     65.09731     112.4861         6     0.999     0.623 -10.84   0
       287    934.9703    178.8610 307.5405541  +6.6127542     1226.923     3061.363     3544.744     92.28219     184.7113     369.2757      2.555    10.02     1202.102     65.09731     143.0485        29     1.905     1.470   3.76   0
       288    881.2838    177.9271 307.5629085  +6.6113547     4630.438     13027.83     16866.26     92.72198      185.078     369.3491      2.836     6.98     1202.751     65.09731     496.3271        68     2.304     1.793 -14.45   0
       289    537.1840    179.6436 307.7059280  +6.5991808     594.3889     1283.614     1420.851     91.98783     184.5644      369.092      2.600     4.60     1202.901     65.09731     87.48755         5     0.851     0.705  54.16   0
       290      7.4296    177.0300 307.9262736  +6.5825295      8450.69     20395.26     26637.53     91.98783     184.4174     363.7629      2.701     7.50     1235.427     65.09731     885.7352        52     2.374     1.598  27.70  19
       291     10.1861    174.5256 307.9252118  +6.5836562     7895.659     17073.44     21866.44     91.98783     184.4174      369.092      2.485    11.27     1235.237     65.09731     816.2063        49     2.705     1.310  36.73  19
       292    967.8058    175.6806 307.5270066  +6.6151588     4533.303     11708.01     14532.62     92.13512     184.1966     369.0185      2.684     6.40      1200.98     65.09731     443.6295        64     2.199     1.736 -10.83   0
       293    679.8305    177.5665 307.6466856  +6.6047964      981.552     2538.723     4047.507     91.98783     184.4174     369.0185      3.334     7.34     1203.867     65.09731     108.0085        14     1.449     1.042  56.24   2
       294    499.9291    168.0662 307.7218055  +6.6027181      858.489     2188.809     3112.354     92.57561     184.7847     369.3124      2.890     8.18     1202.539     65.09731     130.6215        12     1.675     1.117  22.38   0
       295    334.9441    163.8263 307.7905462  +6.5989552     2373.191     7325.737     12405.57     92.13512     184.7847     369.1288      3.578     9.27     1214.302     65.09731     299.6017        78     2.496     2.269 -66.20   0
       296    731.4788    165.6674 307.6256074  +6.6114313     14047.24     30132.65     36715.54     92.72198     184.7847     369.3124      2.422     7.68     1203.078     65.09731     1494.089        56     2.577     1.175  -4.20   3
       297    731.2285    162.3860 307.6258211  +6.6127781     12802.19     28336.38     35439.85     92.13513     184.4909     369.2022      2.493     7.90     1202.857     65.09731     1309.936        54     2.564     1.167   2.75   3
       298    870.8712    167.6282 307.5675815  +6.6152616     834.4931     1838.947     2393.574     92.28219     184.7113     369.2757      2.289     4.98      1202.12     65.09731     113.5448         8     1.474     0.476   3.50   0
       299    965.1425    162.7743 307.5285438  +6.6204003     1219.582     3238.197     3993.176     92.13512     184.7113     369.1288      2.648     7.60     1200.403     65.09731     141.8625        23     1.681     1.344 -89.35   0
       300   1003.4202    162.9855 307.5126203  +6.6215849      742.724     1502.928     2316.522     92.28219     184.4174     369.2022      2.481     4.47     1199.513     65.09731     107.9963         6     0.879     0.647 -53.74   0
       301    899.3647    160.9895 307.5559547  +6.6189508     3085.686     8689.316     11027.27     91.98783     184.4909     369.0553      2.719     7.22     1201.367     65.09731     325.5917        56     2.194     1.676 -19.06   0
       302    441.2517    158.7450 307.7465150  +6.6046075     1298.691     2516.022     3124.185     92.57561     184.7113     369.3124      2.191     7.92     1203.964     65.09731     135.2893        14     1.823     0.962  -5.42   3
       303    442.5694    162.5294 307.7458404  +6.6030887     1550.877     2721.359      4416.68     92.42902     184.7113     369.2757      2.525     6.20     1204.026     65.09731     175.8517        21     1.553     1.000   9.73   3
       304    445.1619    159.5667 307.7448617  +6.6043988     1294.859     2797.203     3235.018     92.28219     184.4909     369.0553      2.323     6.21     1203.803     65.09731     147.4152        13     1.368     0.793  50.16   3
       305    100.0188    152.6978 307.8885961  +6.5956834     1653.816     4875.142     7137.889     92.42902     184.5644     369.0185      3.200    10.58     1229.033     65.09731     210.3293        39     2.227     1.579 -62.62   2
       306    270.6665    148.5769 307.8177830  +6.6031019     9710.064     36133.95     51935.49     92.13513     184.7113      369.239      3.247     8.88     1222.265     65.09731     1212.019       113     2.642     2.268 -13.39   0
       307    245.9300    151.7069 307.8279630  +6.6009813     1999.694     5139.844     6099.728     92.57561      184.858     369.3124      2.589     8.52     1223.554     65.09731     206.0566        34     2.066     1.290  10.02   3
       308    247.2613    148.0144 307.8275333  +6.6025507     1637.002     3923.949     5150.053     91.98783     184.6378     369.0553      2.488     9.21     1223.571     65.09731     206.5577        28     2.336     1.014  20.31   3
       309    394.7207    143.9841 307.7663566  +6.6091481     14498.16     52418.45     76183.55     92.13512     184.4174     369.1288      3.248     8.80     1207.425     65.09731     1760.216       124     2.669     2.283 -17.67   0
       310    150.8029    143.1629 307.8678016  +6.6013232     1007.629     1831.024     2633.781     91.54451     184.4909      369.092      2.043     4.15     1227.971     65.09731     165.9774         7     1.184     0.415   6.94   3
       311    150.4515    146.9658 307.8678201  +6.5997410     1479.135     3074.995     4429.859     92.42902     184.7113     369.2022      2.627     6.90     1227.993     65.09731      182.061        20     1.535     1.016  60.01   3
       312    153.9647    145.4672 307.8664097  +6.6004776     1026.994     1867.291      2904.39     92.42902     184.7847     369.3858      1.988     6.50     1227.911     65.09731     145.9944        12     1.550     0.765 -67.75   3
       313    299.2864    141.7594 307.8061118  +6.6068750     5431.243      19689.4     30530.79     92.57561     184.6378     369.3491      3.477     8.85     1220.029     65.09731     666.5023       120     3.191     2.196  -4.88   0
       314    733.8647    139.8867 307.6254759  +6.6221574      12097.9      37730.8     50530.11     92.57561     184.9314     369.3491      2.988     7.55     1201.783     65.09731     1412.092       101     2.490     2.058 -15.45   0
       315     51.1349    139.7424 307.9093559  +6.5993938     2769.189     6400.815     9870.532     92.72198     184.6378     369.3491      3.017    11.17     1232.388     65.09731     345.4141        49     2.846     1.876 -15.22   3
       316     50.7387    136.2833 307.9096369  +6.6008090     2600.016     5357.072     6718.707     92.72198     184.7113     369.3124      2.332     5.33     1232.385     65.09731     267.2214        23     1.377     1.233 -24.72   3
       317    993.7894    122.3793 307.5179769  +6.6380343     913.0528      2205.49     3208.575     92.13513     184.3438     369.1288      2.804     7.89     1196.626     65.09731     123.2128        16     2.045     0.851   3.67   2
       318    993.8248    119.2141 307.5180675  +6.6393426     911.5921     1774.872     2625.261     92.28219     184.4909      369.239      2.151     5.86     1196.394     65.09731     109.8593        11     1.479     0.653  -6.09   3
       319    269.4982    114.9277 307.8193972  +6.6169584     9140.672     32599.85     48280.02     92.28219      184.858     369.3124      3.325     9.08     1222.932     65.09731     1110.108       114     2.714     2.267 -13.58   0
       320     18.5070    113.5130 307.9238034  +6.6091305     958.9588     1176.432     1639.256     92.57561     185.2245     369.4225      1.434     5.14     1234.726     65.09731     115.8229        10     1.014     0.847  60.66   3
       321     14.8242    115.5236 307.9252670  +6.6081766     1627.343     3367.222     5097.351     92.13512     184.6378     369.2757      2.785    11.60     1235.019     65.09731     195.0714        31     2.662     1.490  50.30  19
       322     15.6816    111.9638 307.9250302  +6.6096754     1244.714     2351.636      2981.24     92.57561     184.7847     369.2757      2.327     5.56     1234.949     65.09731     143.5076        10     1.050     0.830 -73.24   3
       323    583.0009    114.7612 307.6890467  +6.6275039     688.8383     1570.475     3333.802     91.54451     184.4909     368.9818      3.799     4.33     1201.621     65.09731     99.42639         5     1.019     0.524  37.74   0
       324    701.1558    111.2127 307.6400342  +6.6329091     2861.074     9109.942     12364.38     91.98783     184.4909     369.0185      3.007     8.02     1201.058     65.09731     323.8579        63     2.269     1.874 -14.42   0
       325    112.3462    108.9113 307.8849415  +6.6141784     1601.127     5290.229      7204.39     92.57561     184.5644     369.4592      3.107    11.94     1228.677     65.09731     201.4531        50     2.288     1.777 -30.40   0
       326    382.7479    104.1707 307.7726684  +6.6251892     1216.255     3884.041     6433.605     92.28219      184.858     369.2022      3.669    13.10     1209.772     65.09731     129.4811        41     2.314     2.063  -3.00   2
       327    346.4134    103.2183 307.7878084  +6.6243674     930.9869     3197.719      4546.39     92.28219     184.3438     369.2022      3.194     9.90     1215.494     65.09731     122.5848        23     1.996     1.370 -66.68   2
       328    995.3162     96.1917 307.5182138  +6.6488998     623.7833      1726.97     2177.568     92.13512     184.3438     369.1288      2.654     5.89      1194.59     65.09731     105.1526         7     1.719     0.567  12.10   0
       329    198.8070     90.1168 307.8496227  +6.6248371     1512.329     3080.617      5128.72     92.13512     184.3438     369.1655      3.296     7.66     1226.493     65.09731     175.8557        23     1.774     1.032  -8.96   3
       330    198.3890     94.3798 307.8496535  +6.6230627     1853.211     3707.889     5258.608     92.13513     184.3438     369.1655      2.705     5.42     1226.556     65.09731     225.8754        23     1.673     1.011 -12.57   3
       331    661.4595     91.9969 307.6571827  +6.6395215      2082.41     5133.583     6848.735     91.84029     184.4909     369.0185      2.746     9.57     1201.002     65.09731     255.6423        36     2.622     1.160 -20.96   3
       332    660.9631     88.9678 307.6574903  +6.6407559     1709.886     3558.308     4709.587     92.13512     184.4174     369.0185      2.423     8.38     1200.919     65.09731     215.6233        23     2.155     0.939  -6.90   3
       333    616.6585     81.2350 307.6761718  +6.6424719     18232.87     43202.65     66117.62     92.42902     184.7113     369.3124      3.393     8.26      1201.24     65.09731     1976.079       146     4.226     2.187 -49.96   3
       334    616.1926     77.6250 307.6764862  +6.6439471     14758.75     29258.96     34462.31     91.98783     184.5644     369.1288      2.200     6.54     1201.225     65.09731      1523.93        46     2.143     1.139  -4.04   3
       335    340.0133     85.7638 307.7910545  +6.6313614     1161.199     2632.314     4112.986     91.98783     184.4909     368.9818      3.246     9.19     1216.795     65.09731     172.2296        23     2.424     0.973 -21.51   2
       336    339.5558     82.4744 307.7913550  +6.6327044     1088.639     2654.102     4279.736     92.42902     184.7847     369.3491      3.039     8.86     1216.918     65.09731     157.6473        19     2.237     0.980  -5.17   3
       337    296.2423     74.9767 307.8096166  +6.6343515     1052.212     3544.941     6382.007     92.13512     184.5644     369.0553      3.624     9.25     1222.293     65.09731     128.3966        26     2.593     0.921 -28.15   2
       338    679.5295     65.5361 307.6505525  +6.6510513     1106.919     2289.218     3635.313     92.57561     184.7113     369.3124      2.839     4.09     1199.824     65.09731     152.9979        10     0.983     0.764 -20.19   3
       339    680.7634     62.0127 307.6501571  +6.6525475     1086.994     2597.928     3800.878     91.98783     184.4909     368.9818      2.891     6.69     1199.648     65.09731      145.161        13     1.787     0.702 -39.05   2
       340      2.2624     55.9968 307.9324916  +6.6323363     3745.569      8017.76     13033.02     90.80083     162.0282     294.8729      3.734     8.06      1234.26     65.09731     651.5847        63     3.250     1.571  89.50  24
       341    421.7023     56.4957 307.7580674  +6.6461791     1382.277     2949.635     3831.996     92.57561     185.3708     369.1288      2.287     7.79     1207.823     65.09731     194.3337        21     1.771     0.958  18.35   3
       342    423.7591     53.5771 307.7573099  +6.6474532     1190.242     3097.449     4031.736     92.13513     184.4909     369.0553      2.642     8.86     1207.825     65.09731     147.6305        25     2.144     1.023  26.12   3
       343    895.2524     51.2199 307.5613231  +6.6641459     1615.131     3445.963     4714.521     91.98783     184.7847      369.092      2.599     9.21     1195.302     65.09731     193.7004        28     2.302     1.150  -2.16   2
       344    894.5174     48.4981 307.5617195  +6.6652454     1282.744     2494.741     3491.863     92.57561     185.1512     369.4225      2.463     5.39     1195.179     65.09731      144.594        14     1.340     0.949  19.93   3
       345    586.9673     50.1645 307.6895570  +6.6543124     662.1359     1449.514      1906.57     92.13512     184.4174     369.0185      2.365     5.13     1201.121     65.09731     113.8406         6     1.543     0.482  44.29   0
       346    134.1643     45.9907 307.8779828  +6.6408928     1167.297     3111.187     5230.421     91.98783     184.4174     369.0553      3.477     8.36     1227.321     65.09731     156.6375        20     1.952     1.329   1.82   2
       347    695.4447   1020.6611 307.6120607  +6.2571395     2711.526     5597.439     6700.474     92.42902     184.1966     328.9573      2.279     5.58     1257.841     65.09731      309.462        35     1.921     1.152 -13.97  16
       348    817.0115     34.0000 307.5944340  +6.6686540     1775.449     3648.207     4869.295     91.98783     184.2702     369.0553      2.682     8.32     1195.593     65.09731     214.0267        22     2.639     0.734   4.24   3
       349    761.7582     38.1894 307.6172714  +6.6650843     1211.973     2316.462     4289.632     91.84029     184.4909     369.0185      3.797     7.34     1196.181     65.09731     146.8109        18     1.847     0.817 -21.88   3
       350    605.8831   1018.6473 307.6493423  +6.2549871     943.2259     2103.994     2238.092     92.57561     184.7113     354.1677      2.301     6.13     1257.841     65.09731     177.0013        10     1.544     0.684  -7.66  16
       351    817.0143     36.7391 307.5943414  +6.6675229     2482.106     5808.113     7350.795     91.98783     184.5644     369.0185      2.508     7.17     1195.731     65.09731     294.6207        37     2.076     1.373  -4.19   3
       352     55.5463     34.8532 307.9110469  +6.6428556     1033.503     3088.032     4669.224     92.86812     184.5644     369.3124      3.150     9.99     1230.251     65.09731     126.5583        23     2.499     1.114 -19.66   2
       353    226.3003   1017.7759 307.8070898  +6.2426709     780.7338     1443.668     1414.932     92.72198     184.4174     362.2687      1.943     4.88     1258.214     65.09731     128.7721         8     1.069     0.875 -29.03  18
       354    790.5190   1009.5928 307.5729240  +6.2648753     8859.011     18650.86     20992.85     92.13513     184.1966     369.1288      2.228     5.25     1257.494     65.09731     1039.166        59     2.061     1.427 -19.38   0
       355     61.5109   1010.5374 307.8758006  +6.2401424     4473.552     10505.61     13046.17     92.57561      184.858     369.3858      2.522     5.75     1254.391     65.09731     502.7218        53     2.012     1.511 -12.68   0
       356    565.0436    988.8333 307.6673071  +6.2659379     2488.348     5639.792     8288.608     92.13512     184.7113     369.1655      2.923    13.09     1256.699     65.09731     363.3021        51     3.289     1.449   9.82   3
       357    574.1152   1000.6177 307.6631442  +6.2613738     89276.97     209239.7     252642.5     92.13512     184.4174      369.239      2.508     5.57     1257.083     65.09731      10550.6       125     2.314     1.745 -15.88   3
       358    575.8694    993.5375 307.6626517  +6.2643562     41388.35     96957.83     114873.6     92.57561     184.7113     369.3858      2.474     5.90     1256.855     65.09731     4487.705        83     2.239     1.590 -12.41   3
       359    208.5006   1003.6555 307.8149586  +6.2479065     2063.209     4866.272     5458.736     92.28219     184.7113     369.6427      2.388     6.50     1257.129     65.09731     219.9753        35     1.889     1.272  -7.03   0
       360    955.8056    999.6987 307.5045715  +6.2744565     620.4778     1189.823     1372.713     92.28219     184.2702      368.945      2.055     7.23     1253.471     65.09731     92.51599         8     1.297     1.128 -39.69   0
       361    784.8676    997.3272 307.5756810  +6.2697527     4214.761     9054.669     10314.27     92.72198      184.858     369.3124      2.287     5.25     1256.387     65.09731     459.5125        47     1.932     1.417 -24.12   0
