#   1 NUMBER                 Running object number                                     
#   2 X_IMAGE                Object position along x                                    [pixel]
#   3 Y_IMAGE                Object position along y                                    [pixel]
#   4 ALPHA_J2000            Right ascension of barycenter (J2000)                      [deg]
#   5 DELTA_J2000            Declination of barycenter (J2000)                          [deg]
#   6 FLUX_APER              Flux vector within fixed circular aperture(s)              [count]
#   9 FLUXERR_APER           RMS error vector for aperture flux(es)                     [count]
#  12 FLUX_RADIUS            Fraction-of-light radii                                    [pixel]
#  13 FWHM_IMAGE             FWHM assuming a gaussian core                              [pixel]
#  14 BACKGROUND             Background at centroid position                            [count]
#  15 THRESHOLD              Detection threshold above background                       [count]
#  16 FLUX_MAX               Peak flux above background                                 [count]
#  17 ISOAREA_IMAGE          Isophotal area above Analysis threshold                    [pixel**2]
#  18 A_IMAGE                Profile RMS along major axis                               [pixel]
#  19 B_IMAGE                Profile RMS along minor axis                               [pixel]
#  20 THETA_IMAGE            Position angle (CCW/x)                                     [deg]
#  21 FLAGS                  Extraction flags                                          
         1      4.0460     48.8412 307.9361106  +6.6321750     547781.9      1339892      1510252     94.36176     186.4633     331.2596      2.421     8.63      1288.63     66.45853     54764.96       223     2.375     1.587  42.66  31
         2     92.2375     13.4102 307.9006109  +6.6497736     2598.124     5414.592       6608.6     93.76072     188.3487     376.6599      2.305     7.41      1283.61     66.45853     302.0427        35     2.131     1.122  22.51  19
         3     94.9464      9.7180 307.8996081  +6.6513906     2769.146     6873.451     8185.052     94.51142     188.5737     377.1099      2.569     9.90     1283.367     66.45853     284.9543        43     2.571     1.194  29.19  19
         4    421.8204     12.8513 307.7634911  +6.6610074     802.2111     1875.347     3310.573     93.91134     188.6486     376.8099      3.438     5.96     1264.698     66.45853     108.2769         8     1.128     0.886  36.10   2
         5    635.0518      4.7255 307.6750347  +6.6714654     5708.893     11926.83     14602.17     94.51142     188.6486     341.3873      2.321     6.83     1248.628     66.45853     696.6986        41     2.262     1.153  29.30  19
         6    637.9553      1.7406 307.6739265  +6.6727960     4158.253     7713.665     8762.851     87.68497     156.9097     291.5462      1.959     8.44     1248.586     66.45853     493.9594        25     1.955     1.017  15.90  27
         7    535.6855      1.4988 307.7164913  +6.6694935     1238.565     1870.588     2072.933     84.73398     153.2644     287.0516      1.751     5.81     1251.964     66.45853      208.764        12     1.497     0.635  10.09  24
         8    256.2847      1.4973 307.8327531  +6.6601800     544.5693     1062.265     2041.194     84.73398     153.1721     287.0516      2.691     4.31     1278.994     66.45853     92.93237         6     1.089     0.485  -7.06  25
         9    574.2980    982.1315 307.6675555  +6.2653339      1901.65     5260.016     8120.938     94.51142     188.7235     376.9974      3.331    15.77     1309.201     66.45853       291.73        51     3.344     2.067  34.35   3
        10    576.2075   1023.7234 307.6653687  +6.2482010     857.6546     1063.522     524.5151     80.98129     148.4869     282.2853      1.473     4.86     1310.826     66.45853     186.1556        10     1.546     0.433   4.40  24
        11    585.2927    986.1232 307.6628503  +6.2640490      35147.8      93649.5     117849.5     94.21185     188.7984     377.0349      2.750     6.84     1309.337     66.45853     4416.904       106     2.327     2.230 -69.74   3
        12    582.4830    995.4921 307.6637048  +6.2600820     48572.82     81987.95     84675.07     94.21186      188.948     377.1848      1.797     4.87     1309.701     66.45853     5736.722        33     1.485     1.047  29.66   3
        13    583.8951    992.5212 307.6632172  +6.2613573     76509.11     146687.9     184695.4     94.21185     188.8732     377.0724      2.330     5.58      1309.62     66.45853     9429.894        67     2.466     1.292  22.93   3
        14    215.2396    997.6631 307.8163244  +6.2469536     999.1873     1878.906     2145.563     94.51142     188.4987     377.0724      2.160     6.67     1308.926     66.45853     132.2968        11     1.815     0.688  45.04   3
        15    217.8688    995.4994 307.8153039  +6.2479359     1867.061     3562.608     4979.113     94.51141     188.7235     377.0349      2.633     6.16     1308.946     66.45853     261.3198        25     1.803     1.070  31.61   2
        16    794.3119    990.3685 307.5757985  +6.2692352     3766.253     9179.396     10694.33     94.66084     188.3487     376.9599      2.479     6.03     1307.972     66.45853     480.8813        54     2.017     1.661  11.66   0
        17    215.6123    986.0179 307.8165608  +6.2517807     1110.452      2738.51     3708.634     94.21185     188.1985     376.9224      3.113     8.08     1308.631     66.45853     169.6448        19     1.728     1.394  73.20   0
        18    891.9107    986.6205 307.5353415  +6.2740211     829.5031     2012.357     1998.065     94.36176     188.2736     376.8474      2.515     4.35     1306.356     66.45853     134.4023         7     0.899     0.600 -35.29   0
        19    431.7329    985.0033 307.7267365  +6.2594033     1118.169     1838.668     3021.978     93.76072     188.1985     376.7724      2.093     5.90     1309.558     66.45853     157.9327        12     1.469     0.667  44.76   3
        20    433.8498    982.1982 307.7259504  +6.2606335     1852.665     3786.893     5251.062     93.76072     188.1234     376.5472      2.592     7.17     1309.458     66.45853     229.1322        25     1.926     1.071  21.66   2
        21    717.9000    982.7460 307.6078255  +6.2698509     3674.875     9513.742     11857.32     94.21185     188.5737     377.3721      2.714     6.94     1308.148     66.45853     465.7664        56     2.292     1.654   9.88   0
        22    750.7242    977.0021 307.5943692  +6.2733153     774.2122     1231.206     1368.965     93.91134     187.9731     376.8849      1.518     3.76     1307.344     66.45853      138.433         5     0.810     0.501  32.63   0
        23    957.6057    972.1503 307.5085077  +6.2821807     4114.871     8950.522     10309.65     93.91134     188.3487     376.5848      2.248     5.14     1304.706     66.45853     540.4249        43     1.749     1.538  23.34   0
        24    716.0930    972.0330 307.6089352  +6.2742202     1132.238     2334.365     4149.027     94.66084     188.4237     377.1099      3.532     8.15      1307.66     66.45853     164.4821        16     2.054     0.904  12.63   2
        25    717.9196    969.2999 307.6082670  +6.2754109     1491.607     2535.279     3208.255     94.51142     189.1723     377.0724      1.950     5.09     1307.467     66.45853     195.2369        16     1.522     0.753  27.60   2
        26    364.6737    966.9142 307.7552257  +6.2646488     889.8652     1763.389     2388.233     94.66084      188.948     377.0349      2.345     6.51     1309.493     66.45853     116.3302        11     1.716     0.693  14.27   0
        27    545.6380    960.3790 307.6802009  +6.2733745     1134.911     1859.459     2179.995     94.06172     188.2736     376.7349      1.948     6.07     1308.543     66.45853     197.9495        12     1.733     0.597  23.42   3
        28    547.0254    957.1739 307.6797314  +6.2747458     1998.464     4616.296     6199.755     93.91134     188.3487     376.9599      2.784     8.18     1308.436     66.45853     267.7438        32     2.061     1.334  19.36   3
        29    542.2509    952.3756 307.6818774  +6.2765709     2275.372     4000.202     5430.481     94.06172     188.5737     376.9224      2.073     5.22     1308.294     66.45853      279.355        18     1.554     0.771  24.31   3
        30    544.3906    949.4897 307.6810844  +6.2778353     3925.973     7881.349     9997.428     94.21186     188.1985     376.8099      2.328     6.07     1308.191     66.45853     462.5278        40     2.150     1.166  26.55   3
        31    295.9788    959.4187 307.7840398  +6.2654583     4061.426     7868.478     8645.941     94.21185     188.4987     376.9599      2.046     7.05     1309.439     66.45853     470.4358        29     2.056     0.896  28.23   3
        32    297.4551    956.1279 307.7835365  +6.2668681     6959.273     13842.36     17515.91     94.36176     188.4237     376.9974      2.281     5.86      1309.41     66.45853     875.3154        48     2.225     1.267  23.36   3
        33    749.9872    959.2313 307.5952697  +6.2806383     2574.157     4581.487     5574.137     93.91134     188.2736     376.9599      1.950     5.79     1306.438     66.45853     308.5468        20     1.838     0.807  14.90   3
        34    751.3737    956.3995 307.5947879  +6.2818552     4052.048     7248.353      8541.71     94.06172     188.1985     376.8099      1.967     5.61     1306.277     66.45853     477.4137        34     2.028     1.053  18.61   3
        35    912.2200    950.8212 307.5280917  +6.2894958     5022.284     11867.76     13435.07     94.21185     188.4987     376.9599      2.333     5.30     1304.985     66.45853     622.7531        52     1.885     1.628  23.65   0
        36    885.8140    946.9049 307.5392026  +6.2902399     6793.383     16847.87     19160.15     94.21185     188.2736     376.8474      2.419     5.58     1305.313     66.45853     823.4536        56     1.934     1.640   9.58   0
        37    528.6702    947.9799 307.6876716  +6.2779366     1154.269     2167.709     2769.094     94.06171     188.4237     376.9599      2.065     6.36       1308.2     66.45853     174.7395        11     1.658     0.685  30.02   3
        38    530.9205    945.1235 307.6868316  +6.2791924     1967.062      3981.15     4985.608     94.81004     188.8732     377.1848      2.542     6.95     1308.098     66.45853     246.2207        27     2.068     0.966  24.72   3
        39   1007.4379    946.3083 307.4886485  +6.2945155     3354.639     7005.656     7822.768     94.66084     188.4987     377.0724      2.174     5.26     1302.571     66.45853     404.0553        40     1.769     1.438  11.81   0
        40    599.7528    947.1585 307.6581426  +6.2806398     634.7018     1629.995      2375.97     94.36176     188.5737     376.8849      2.734     6.10     1307.619     66.45853     99.44727         7     1.764     0.594  27.14   0
        41    483.6262    941.4195 307.7066209  +6.2791504     977.4329     1786.334     2219.555     93.91134     188.2736     376.9224      1.863     4.50     1308.123     66.45853     142.2412         7     1.278     0.569  41.54   0
        42    917.5705    934.4916 307.5264119  +6.2964248     25221.05     59812.94      67809.9     94.66084     188.2736     376.9599      2.423     5.45     1304.418     66.45853     2809.152        84     2.046     1.723   7.69   0
        43    225.2172    932.1949 307.8143762  +6.2743539     865.5847     1899.216     2485.504     94.06171     188.1985     376.8474      2.393     5.94     1307.242     66.45853     140.4441        11     1.819     0.546  24.75   0
        44    815.6954    928.4586 307.5689756  +6.2955418     1306.489     3147.222     3516.624     94.36176     188.5737     377.1848      2.457     9.31     1304.288     66.45853     176.6523        23     1.659     1.597 -88.16   0
        45    763.6703    926.3370 307.5906798  +6.2946929     3168.765     9016.821     10454.03     94.51142     188.5737     377.0724      2.674     6.26     1304.526     66.45853      465.936        53     1.941     1.808 -30.89   0
        46     58.6969    923.9143 307.8838915  +6.2722173      1251.19     3381.343     3888.711     94.51142     189.0228     377.1099      2.681     8.95     1305.905     66.45853     193.3912        24     1.808     1.500 -36.25   0
        47    233.7229    924.9028 307.8110847  +6.2776525     708.6699      1417.17     2221.046     94.06171     188.7984     377.1099      2.225     6.13      1307.33     66.45853     112.0905         8     1.727     0.611  17.49   0
        48    951.8497    921.2564 307.5125993  +6.3030327     4111.428     9614.893      10298.3     94.51142     188.5737     377.1099      2.311     5.53     1302.827     66.45853     474.9031        47     1.831     1.570  -0.76   0
        49    924.8405    913.2498 307.5240979  +6.3054484     1151.273      2695.92     3303.073     94.66084     188.5737     376.9599      2.480     7.73      1303.11     66.45853     140.9135        15     1.608     1.040 -84.85   2
        50    646.5933    909.1889 307.6399367  +6.2978952     1900.639     5616.775     6756.706     94.06172     188.3487     376.9224      2.794     7.56     1305.757     66.45853     267.5292        44     1.984     1.796 -54.45   0
        51    259.4980    908.6006 307.8009153  +6.2852524     2044.404     4643.534     5995.971     93.91134     188.1234     376.5848      2.740     7.64     1307.654     66.45853     244.2544        35     2.035     1.540  34.15   2
        52    570.8104    904.0594 307.6716207  +6.2974972      628.527      1181.64     1826.974     93.76072     188.4237     376.6974      2.528     7.11     1306.541     66.45853     106.9972         7     1.405     1.009 -26.76   2
        53    571.9591    900.4212 307.6712648  +6.2990396     711.0584     1269.209     1816.458     94.06171     188.3487     376.8099      1.412     4.50     1306.422     66.45853     138.4517         7     1.777     0.324  40.63   2
        54     28.4461    906.3101 307.8970620  +6.2784845     1100.319     2551.804       3359.9     94.51142     188.4237     377.1848      2.868     6.97     1305.724     66.45853     172.3429        15     1.921     0.708  36.16   0
        55    893.3348    889.6624 307.5379865  +6.3141569     2555.448     4054.375     4364.576     94.51142     188.5737     377.0349      1.795     5.38      1301.98     66.45853     294.9644        18     1.610     0.706  33.37   3
        56    895.1249    887.3643 307.5373189  +6.3151663     3603.555     7017.113      7391.01     94.36176     188.6486     377.0724      2.085     5.52     1301.749     66.45853     463.0015        30     1.961     0.947  26.59   3
        57    331.5058    886.5116 307.7717160  +6.2967858     2196.979     4325.429     4759.102     94.51142     189.0976     377.1099      2.104     6.44     1307.849     66.45853     252.2504        24     2.007     0.792  23.64   3
        58    333.0974    883.0916 307.7711690  +6.2982529     4019.254     8342.271     10729.58     94.51142     189.1723     376.9974      2.400     6.29     1307.722     66.45853     519.3064        44     2.292     1.182  22.70   3
        59    251.4256    885.2012 307.8050581  +6.2946575     1877.312     3856.862     4520.608     94.06172     188.1985     376.7724      2.102     7.49     1306.801     66.45853     231.5447        25     1.986     0.875  22.74   3
        60    253.3584    882.1480 307.8043570  +6.2959843     2981.253     5668.055     6963.675     94.51142     188.6486     377.0349      2.164     6.72     1306.772     66.45853     388.3148        34     2.176     1.008  27.50   3
        61    431.7007    884.5795 307.7301182  +6.3009225     826.4213     1850.162     2127.811     94.51142     188.3487     376.7724      2.089     5.89     1307.199     66.45853     138.4553         8     1.549     0.630  45.31   0
        62    977.9545    867.9890 307.5035212  +6.3259215      556.079     954.7637     1705.315     93.91134     188.4237     376.6974      1.465     3.74     1297.535     66.45853     86.29236         5     1.034     0.389  57.82   0
        63    746.6436    865.2529 307.5998024  +6.3193836     678.0434     1678.697     2176.454     94.51142     188.5737     377.0349      2.603     5.01     1301.176     66.45853     117.4106         7     1.639     0.433  20.81   0
        64    664.2747    857.9132 307.6343004  +6.3196830     1003.097     2513.473     4327.953     94.51142      188.948     377.1099      3.616     7.64     1302.994     66.45853     121.9637        15     1.529     1.069 -35.94   2
        65    977.0026    860.9694 307.5041512  +6.3287923     576.8566     1109.438      1281.68     93.91134     188.3487     376.8099      2.436     3.73     1297.066     66.45853      88.9585         5     1.015     0.395  30.56   0
        66     62.9494    855.8032 307.8844164  +6.3005191     1249.786     3275.781     4102.608     93.76072     188.2736     376.5473      2.914     8.14     1304.077     66.45853     159.9591        21     2.209     0.838  31.46   2
        67    206.0024    854.3825 307.8249815  +6.3058838     913.8986     1872.233     1913.531     94.06171     188.0483     376.7724      1.984     4.65     1305.578     66.45853     151.0466         8     1.030     0.595  45.32   0
        68     80.8029    854.7279 307.8770290  +6.3015603     737.3594     1475.296     2494.382     93.91134     188.1234     376.8474      2.160     4.97     1304.015     66.45853      139.077         9     1.522     0.460  35.68   0
        69    659.9131    849.0067 307.6364122  +6.3232205     2673.015     8360.463      10232.8     93.91134     188.1985     376.7349      2.812     7.05     1302.405     66.45853      344.246        61     2.089     1.960  17.07   0
        70    897.8152    844.9214 307.5376173  +6.3328041     1387.898     3576.727     4240.485     94.06171     188.2736     376.8474      2.528     6.42      1298.36     66.45853      193.298        25     1.713     1.496 -60.89   0
        71    342.1718    844.8640 307.7686792  +6.3143605      4024.21     7389.089     9204.858     94.06171     188.5737     376.9599      2.017     6.58     1306.704     66.45853     477.0085        29     2.157     0.854  26.33   3
        72    343.9951    841.2727 307.7680416  +6.3159060     6424.674     14017.59     17245.54     94.06171     188.0483     376.9224      2.486     6.55     1306.614     66.45853      812.567        53     2.509     1.206  25.46   3
        73     20.5781    845.7960 307.9023716  +6.3032402      490.324     1139.247     1472.868     94.06172     188.2736     376.7724      1.843     4.92     1303.529     66.45853     89.56604         6     1.559     0.440  20.37   0
        74    215.1920    841.3405 307.8215988  +6.3115826     607.3522     1403.908     1351.249     93.76072     188.3487     376.6974      1.920     4.36     1305.582     66.45853     103.0247         7     1.299     0.416  40.95   0
        75    106.1067    831.5618 307.8672872  +6.3119835     664.8561     1596.383     2413.404     94.66084     188.4987     377.1099      2.350     4.35     1303.644     66.45853     140.2573         7     1.320     0.408  33.45   2
        76    422.2280    832.4317 307.7358066  +6.3221676     555.7729     1254.094     1319.337     93.91134     188.2736     376.8099      2.291     4.42     1304.935     66.45853     96.93628         5     1.127     0.493  -2.76   0
        77    888.3942    826.4455 307.5421520  +6.3401309     905.7211     2295.713     2183.614     93.76072     188.2736     376.6223      2.454     8.70     1296.839     66.45853     134.7892        17     1.926     1.098 -41.64   0
        78     90.7872    825.6255 307.8738571  +6.3139260     988.3481     2363.367     4255.238     94.21186     188.3487     376.9599      3.608     7.61     1303.226     66.45853      150.901        14     1.643     0.986  24.64   2
        79    858.8116    826.0038 307.5544690  +6.3393328     932.4414     2361.661     3102.834     94.06171     188.1985     376.8849      2.774     9.14     1297.448     66.45853     162.4028        16     1.876     1.244 -11.38   0
        80    822.4500    824.8916 307.5696275  +6.3385868     1405.383     3389.563     4040.526     94.36176     188.4237     377.2597      2.689     7.25     1297.903     66.45853     184.6444        20     1.731     0.975   0.53   2
        81    556.7770    819.5977 307.6802858  +6.3319516     91929.62     182668.9     205470.9     94.06172     188.1985     376.8099      2.116     6.13     1302.851     66.45853     10467.44        61     2.089     1.077  24.70   3
        82    558.7317    816.1893 307.6795871  +6.3334259     131281.5     274372.4     339562.8     93.91134     188.3487     376.8474      2.400     6.39      1302.55     66.45853     15561.84       129     2.674     1.372  21.87   3
        83    400.9538    822.6039 307.7449829  +6.3255224     1797.653     3602.592      4478.46     93.76072     188.2736     376.6599      2.303     7.90     1304.832     66.45853     238.2136        24     2.348     0.744  12.95   3
        84    403.1205    818.9026 307.7442061  +6.3271248     3038.611     6321.528      8493.74     94.21185     188.8732     377.0724      2.484     6.35     1304.549     66.45853      398.009        42     2.227     1.254  14.48   3
        85    344.3821    820.5961 307.7685749  +6.3244676     3396.208     7373.689      9765.28     94.06172     188.0483     376.8099      2.389     7.60     1306.167     66.45853     352.4507        38     2.502     1.024  33.64   3
        86    346.5789    817.4752 307.7677662  +6.3258312     4828.396     10068.64     11933.95     94.06172     188.3487     376.9599      2.315     6.32     1306.074     66.45853     684.2845        41     2.289     1.041  30.51   3
        87    663.0189    816.8492 307.6361970  +6.3366195     1236.633     2234.204     3215.159     93.91134     188.6486     376.8099      1.999     4.67      1299.84     66.45853     169.8632        13     1.376     0.662  39.83   3
        88    664.9688    813.9485 307.6354832  +6.3378836     1240.399     3021.028     4464.331     94.36176     188.7235     376.9599      2.564     9.15     1299.549     66.45853     175.2697        21     2.436     0.960  27.18   2
        89    894.9858    815.2378 307.5397851  +6.3449834     1776.277     3299.208     4454.226     94.21185     188.3487     376.7349      2.389     6.87     1295.679     66.45853     212.6233        14     1.836     0.721  12.80   3
        90    896.3975    812.2852 307.5392966  +6.3462510     2686.498     5478.015     6621.331     93.76072     188.1234     376.6974      2.319     6.84     1295.378     66.45853     325.6523        30     2.020     1.068   3.10   2
        91    638.1134    808.6689 307.6468279  +6.3391742     1190.985     3830.333     5898.977     94.66084     188.8732     377.0724      3.790     9.99     1299.963     66.45853     188.7975        37     2.088     1.793   4.90   2
        92    631.3411    801.3270 307.6498900  +6.3419847     763.4175     1963.648     3421.993     94.66084     188.5737     377.0349      2.777     4.90     1299.565     66.45853     116.9924         5     1.176     0.578  18.23   2
        93    827.9564    806.5042 307.5679520  +6.3463719      839.252     1619.437     1328.656     94.51141     188.4987     377.1848      1.983     5.56     1296.537     66.45853     141.3246         7     1.355     0.653  37.38   0
        94    914.9285    800.9932 307.5319672  +6.3515339     1436.756     3731.168     4750.722     93.91134     188.0483     376.9599      2.596     7.50     1293.783     66.45853     196.3564        27     1.710     1.401 -26.62   0
        95    371.5530    799.7758 307.7579752  +6.3339812     688.8416     1559.756     3128.839     94.06172     188.5737     376.8849      3.279     4.52      1304.83     66.45853     87.39148         5     0.824     0.706 -45.67   1
        96    374.5921    796.4799 307.7568220  +6.3354452     910.1097     2102.274     3188.943     94.06172     188.0483     376.8474      2.476     6.29     1304.504     66.45853     121.1931        12     1.978     0.562  26.33   0
        97    510.8232    786.0551 307.7005199  +6.3442913     1187.142     2733.645     3617.655     94.06171     188.5737     376.8099      2.818     8.27     1301.412     66.45853     162.0759        18     1.544     1.437  11.94   2
        98    555.2081    785.4298 307.6820830  +6.3460263     1610.995     3315.185       4827.8     93.91134     188.3487     376.7724      2.394     6.45     1300.652     66.45853     207.7269        19     1.724     0.802  24.37   3
        99    557.0568    781.8058 307.6814357  +6.3475862     2181.521     5147.454     7130.834     93.91134     188.4237     376.6974      2.929     8.17     1300.407     66.45853     274.1798        33     2.230     1.153  25.25   3
       100    525.7834    779.5788 307.6945157  +6.3474667     5104.247     9596.735     10892.85     94.21186     188.2736     376.9224      2.026     6.29     1300.798     66.45853     579.4237        29     1.966     0.867  23.86   3
       101    528.0381    775.8831 307.6937019  +6.3490697       7316.7     15979.85     20022.37     94.51142     188.4987     376.9974      2.440     6.58     1300.497     66.45853     814.8361        59     2.535     1.336  20.01   3
       102    940.3961    775.1481 307.5222386  +6.3630638     1701.841     4965.855     6044.026     93.76072     188.3487     376.5097      2.787     9.12      1292.29     66.45853     220.4977        40     1.876     1.722 -58.92   0
       103    318.7146    768.8492 307.7809863  +6.3450067     869.0305     1967.789     2833.061     94.51142     188.4987     377.1099      2.645     6.11     1304.213     66.45853     126.5143         9     1.588     0.661  38.95   0
       104     38.0955    766.6146 307.8977545  +6.3365624     684.0231     1398.852     1881.147     94.21185     188.2736     376.8099      1.876     6.08     1299.778     66.45853     110.3328         8     1.873     0.555  30.84   0
       105    784.0200    763.5068 307.5876611  +6.3626920     16109.14     29017.54     32438.23     94.36176     188.3487     376.8474      1.936     5.66       1294.8     66.45853     1997.619        36     2.052     0.893  27.20   3
       106    785.5759    760.2729 307.5871221  +6.3640807     22865.32     49225.73     58808.51     94.06172     188.3487     376.9599      2.358     6.15      1294.59     66.45853     2629.812        69     2.385     1.321  22.10   3
       107    321.0350    765.0754 307.7801481  +6.3466444     1245.676     2993.681     4379.751     94.36176     188.6486     377.0349      2.758     7.38     1304.006     66.45853     158.0649        19     1.789     0.852  30.22   0
       108    241.4071    761.8212 307.8133707  +6.3453342       1493.9     3199.958       5726.5     94.06171     188.3487     376.8099      4.296     8.93     1304.061     66.45853     159.8307        26     2.238     0.996  39.12   3
       109    243.2288    758.3502 307.8127298  +6.3468300      2213.94     5164.469     9412.792     94.06172     188.7235     376.9224      4.567    10.23     1303.893     66.45853     254.7023        39     2.935     1.089  35.08   3
       110     20.2426    762.9742 307.9053009  +6.3374706     929.6479     2022.508     3433.268     94.06171     188.5737     376.8099      3.152     4.78     1299.278     66.45853     142.5864         8     1.026     0.633  24.48   0
       111    910.2993    756.7043 307.5353711  +6.3696923     3797.219     10649.38     14122.27     94.51142     189.1723     376.8474      2.936    10.73     1292.198     66.45853     432.4281        68     2.572     1.979  56.82   3
       112    905.9857    749.5111 307.5374053  +6.3725235     2269.557     3680.869     5345.057     94.21185     188.3487     376.8849      1.994     4.59     1292.022     66.45853      314.829        15     1.511     0.648  30.44   3
       113    907.7199    746.9199 307.5367706  +6.3736524     2967.349     5867.998     7122.962     94.81004     188.8732     377.2223      2.219     5.96     1291.852     66.45853     360.1766        32     2.194     0.933  14.85   3
       114    705.8183    754.6126 307.6204809  +6.3637734     25513.37     50189.08     56605.84     94.21185     188.1985     376.9224      2.103     6.22     1295.445     66.45853     3118.353        39     2.063     0.950  31.76   3
       115    707.6837    751.3016 307.6198159  +6.3652043     34901.59     77854.15     110329.6     94.51142     189.0228     377.1099      3.157     9.28      1295.21     66.45853     3890.942       144     4.545     1.672  37.13   3
       116    351.1323    756.1513 307.7679317  +6.3513372     5195.108     11334.92     13576.26     94.36176     188.4987     377.0724      2.331     7.38      1303.32     66.45853     578.7926        42     2.261     1.128  30.76   3
       117    353.0297    752.4464 307.7672671  +6.3529322     7065.148     15525.16     20080.79     93.91134     188.7235     376.8849      2.450     7.19      1303.09     66.45853     825.3402        50     2.596     1.159  28.81   3
       118    413.0072    753.9599 307.7422740  +6.3543048     5617.861     11526.12     14047.97     93.76072     188.1985     376.6599      2.265     7.27     1301.163     66.45853     669.8218        38     2.325     1.004  30.31   3
       119    415.1295    750.4122 307.7415105  +6.3558422     8042.548     18094.49     23187.43     93.91134     188.2736     376.8474      2.490     7.14     1300.933     66.45853     909.2954        53     2.528     1.195  25.60   3
       120    240.7934    740.6045 307.8143391  +6.3540856     578055.9      1253558      1434953     93.76072     188.1985     376.8849      2.264     8.08     1303.172     66.45853      62362.7        81     2.235     1.148  26.00   7
       121    243.2603    737.1816 307.8134283  +6.3555831     691428.4      1768633      2335759     94.06171     188.4987     376.8099      2.791    11.17     1303.003     66.45853     63185.92       456     3.069     1.918  28.02   7
       122    951.1674    750.3405 307.5185870  +6.3736777     1022.952     2593.933     2987.589     94.36176     188.6486     376.9974      2.545     8.53     1291.265     66.45853     130.3248        17     1.498     1.356  24.43   0
       123    646.5984    749.5242 307.6452794  +6.3639099     1651.787     3455.046     4567.021     93.76072     187.8979     376.8849      2.070     6.72     1296.672     66.45853     226.3057        21     2.071     0.671  29.06   3
       124    648.7111    746.2922 307.6445090  +6.3653164     2374.416     5350.916     6309.764     94.51142     189.1723     377.1099      2.367     7.08      1296.45     66.45853     289.9274        35     2.136     1.172  26.11   3
       125    437.6404    743.7399 307.7323729  +6.3593506     655.3397     1367.301      1711.93     94.51142     188.5737     377.1099      1.796     4.39      1299.99     66.45853     109.9269         7     1.459     0.375   9.28   0
       126    415.9671    736.7378 307.7416210  +6.3615238     13743.99     28853.46     33587.39     94.21185     188.6486     376.9599      2.270     6.78     1300.374     66.45853      1551.01        48     2.375     1.021  23.59   3
       127    418.0017    733.0540 307.7408985  +6.3631147     18587.19     41933.49     52088.97     93.76072     188.3487     376.5848      2.501     7.30     1300.075     66.45853     2072.913        72     2.714     1.260  22.59   3
       128    533.9123    735.6727 307.6926068  +6.3658903     1707.496     4042.615     5454.345     94.66084     188.8732     377.0349      2.568     8.19     1297.698     66.45853     188.2301        28     2.195     0.963  23.90   3
       129    535.6398    731.9009 307.6920148  +6.3675072     2341.973     5315.416     7425.759     94.51142     188.4237     377.2972      2.602     7.04     1297.464     66.45853      286.354        35     2.297     1.053  22.18   3
       130    683.2740    735.9396 307.6304815  +6.3707451     932.6367     2320.677     2821.723     94.66084     188.5737     377.0349      2.625     4.53     1295.286     66.45853     145.9253         7     1.196     0.487  18.75   0
       131    450.0912    734.3801 307.7275090  +6.3636350     1258.375     2476.968     3542.579     94.36176     188.2736     376.8474      2.180     8.26     1299.097     66.45853     169.9658        20     1.892     1.009  33.51   3
       132    451.8355    730.4346 307.7269160  +6.3653243     1509.809     3647.762     6656.012     94.21185     188.2736     376.7349      3.923     9.63      1298.87     66.45853     182.9252        30     2.997     0.863  28.64   2
       133    778.1095    731.7156 307.5911821  +6.3756403     2922.063     5318.656     5900.062     94.21185      188.948     377.1848      1.891     6.89     1293.057     66.45853     460.0922        20     2.205     0.603  23.33   3
       134    780.1028    728.3065 307.5904671  +6.3771160     4566.461     10343.44     12812.71     94.51142      189.247     376.9224      2.509     6.89     1292.718     66.45853     503.5282        49     2.303     1.439  24.31   3
       135    146.4644    721.2526 307.8542171  +6.3589378     1265.564     3042.658     4048.506     94.51142     188.4987     376.9974      2.774     8.31     1299.688     66.45853     172.9403        20     2.137     0.902  39.71   3
       136    136.8318    724.5865 307.8581107  +6.3572377     2960.414       6472.2     8347.098     94.06171     188.2736     376.9599      2.968     8.38     1299.797     66.45853     328.6622        34     2.375     0.978  19.10   3
       137    138.8675    721.0504 307.8573831  +6.3587677     4267.305      9793.21     16227.04     94.36176     188.4237     376.9599      4.444    11.81     1299.477     66.45853     552.6697        77     4.214     1.295  21.80   3
       138    448.0764    723.1193 307.7287246  +6.3682237      702.752     1622.073     2779.698     94.81004     188.8732     377.1848      2.712     4.42     1298.693     66.45853     102.0825         6     1.145     0.486  29.84   0
       139    925.2386    718.0792 307.5304476  +6.3861575     2811.041     8074.485     9984.416     94.36176     188.6486     377.0349      2.801     7.32     1289.824     66.45853      332.153        56     2.117     1.874  21.90   2
       140    919.7903    710.3500 307.5329717  +6.3891727     1303.143     3662.966      3778.06     93.91134     188.4237     376.6599      2.440    10.17     1289.398     66.45853     162.3019        30     1.742     1.656 -13.12   3
       141    974.4814    719.4981 307.5099202  +6.3872022     642.1884     1175.442     1598.782     94.36176     189.0228     377.1473      1.691     3.51     1289.371     66.45853     99.61755         5     1.100     0.323 -21.25   3
       142    974.9954    717.0000 307.5097898  +6.3882521      703.697     1350.455     2367.565     93.60986     187.9731     376.6974      1.876     3.93     1289.226     66.45853     101.6726         6     0.812     0.647  -3.32   3
       143    568.2975    713.7778 307.6790404  +6.3760865     876.3465     2539.878     4150.042     94.36176     188.2736     376.8099      3.162     7.20     1295.852     66.45853     130.5348        14     1.910     0.761  26.84   0
       144    129.5591    711.2520 307.8615838  +6.3625079     895.8988     1880.081     3345.421     94.51142     188.6486     377.0349      3.316     6.05     1298.302     66.45853     123.6366        11     1.390     0.740  12.43   2
       145    948.7875    708.7108 307.5209664  +6.3908112      1441.43     3467.768     4733.429     94.21185     188.2736     376.9224      2.477     8.97     1288.961     66.45853     178.5535        27     1.929     1.205 -12.54   0
       146    246.4346    703.4177 307.8132432  +6.3696486        732.3     1564.206     2870.871     93.91134     188.3487     376.8099      2.469     4.54     1299.534     66.45853     117.0386         6     1.240     0.472  27.13   0
       147    980.2584    708.3610 307.5078892  +6.3919983     925.0559     1675.207     1889.001     94.51142     188.6486     377.1099      2.007     4.46     1288.562     66.45853      133.356         6     1.156     0.514  28.31   0
       148    963.3592    697.3347 307.5152857  +6.3959976     1027.077      2824.99     3400.381     94.51142     188.4987     377.1473      2.682     8.52     1288.011     66.45853     137.9612        17     1.699     1.194 -72.25   0
       149   1006.1415    689.6969 307.4977470  +6.4005724     879.7806     2152.116     2606.015     94.36176     188.5737     377.2223      2.522     5.64     1287.008     66.45853     143.4652         8     1.097     0.818 -46.75   2
       150    806.2499    687.8354 307.5809456  +6.3947168     573.6953     1190.112     1420.472     94.36176     188.5737     376.9599      2.402     4.51     1289.183     66.45853     100.0197         6     0.939     0.617  24.71   0
       151    849.9371    677.9089 307.5631076  +6.4002701     798.6149     1985.642     2087.549     94.51142     188.7235     377.1473      2.512     6.08     1288.005     66.45853     96.48584         8     1.440     0.722 -68.40   0
       152     50.4233    676.7638 307.8956543  +6.3741222     883.2906     2444.762     3218.333     94.06172     188.2736     376.7724      2.723     7.86     1295.987     66.45853     119.1656        15     2.040     0.846  52.98   0
       153    660.8361    668.1448 307.6420826  +6.3980299     1549.016      3347.58     4238.898     94.36176     188.5737     377.0724      2.336     8.27     1290.103     66.45853     201.4425        25     2.123     0.899  23.35   3
       154    662.3114    664.1497 307.6416028  +6.3997308     2120.244     4293.483     5142.848     94.51142     188.3487     377.1848      2.271     8.79     1289.764     66.45853     230.4567        32     2.294     1.017  25.73   2
       155    124.6157    663.7376 307.8652387  +6.3819871     891.4453     2497.773     3516.424     93.91134     188.4987     376.8099      2.665     7.33     1294.591     66.45853     128.4064        13     1.779     0.845  24.37   3
       156    126.8458    661.0682 307.8644011  +6.3831653     1212.396     2565.835     4093.708     94.51142     188.4987     377.0349      2.713     7.47     1294.503     66.45853     184.1804        17     2.267     0.690  36.79   2
       157    634.6337    664.1046 307.6531155  +6.3988297     624.2983     1150.285       1831.2     94.66084     188.4237     377.1473      1.849     3.40     1290.563     66.45853      93.3418         5     0.775     0.432 -70.64   0
       158    998.9821    659.7274 307.5017246  +6.4127267     1240.339     2960.546     3783.343     93.91134     188.4987     376.9599      2.603     7.17     1284.788     66.45853     148.5647        15     1.404     1.027  66.46   2
       159    777.5025    659.9916 307.5938329  +6.4052752     5778.268      10255.2     11895.06     94.21185     188.1234     376.7724      1.926     5.70      1287.45     66.45853     722.6393        24     1.782     0.836  31.13   3
       160    779.1917    656.4150 307.5932500  +6.4068100     7467.756     16799.01     21808.05     94.06172     188.2736     376.8474      2.530     6.60     1287.194     66.45853     802.2126        58     2.455     1.434  19.61   3
       161    637.7981    660.5021 307.6519201  +6.4004243     718.5797     1623.529     2600.145     93.91134     188.2736     376.6599      2.388     6.31     1290.212     66.45853     107.4829         9     1.539     0.726  26.60   0
       162    907.6360    659.1979 307.5397349  +6.4099194     1075.937     2201.244     3107.822     93.45876     188.3487     376.8099      2.152     5.56     1286.217     66.45853     162.9873        11     1.715     0.508  22.81   3
       163    908.6057    656.0723 307.5394360  +6.4112438     1327.058     2866.398     4178.799     94.06171     188.0483     376.9224      2.763     8.21     1286.017     66.45853     161.3304        21     1.906     0.989  23.25   2
       164    251.7459    654.5768 307.8126762  +6.3900188     1532.681      3071.44     4717.515     93.91134     188.5737     376.8099      2.271     7.46     1295.171     66.45853     198.0077        21     1.711     0.969  27.80   3
       165    253.6339    650.5020 307.8120280  +6.3917665     2063.709     4828.351     6684.752     94.51142     188.4237     377.1848      2.814     8.91     1294.883     66.45853     266.0707        41     2.626     1.310  29.23   2
       166    657.5904    652.7583 307.6439476  +6.4042838     1770.621     3051.319     3412.683     93.76072     188.3487     376.7349      1.864     7.18     1289.019     66.45853     252.8672        18     1.860     0.777  24.13   3
       167    660.1345    649.3901 307.6430023  +6.4057609     2373.912     5838.522     7405.173     93.91134     188.3487     376.8849      2.676     8.01     1288.658     66.45853     285.0887        37     2.234     1.300  21.71   2
       168    729.5336    640.9611 307.6144204  +6.4115511     1285.946      2446.02     3399.081     94.36176     188.4987     377.1473      2.219     6.71     1286.733     66.45853     157.7701        13     1.338     0.944  38.98   3
       169    733.1146    640.5963 307.6129432  +6.4118208     830.5671     1797.181      2782.95     93.91134     188.1234     376.6974      1.663     3.95     1286.678     66.45853     161.2937         5     1.270     0.352 -31.84   3
       170    731.5931    637.1590 307.6136910  +6.4131915     1360.584     2913.523     4168.083     93.76072     188.1985     376.6974      3.060     9.29     1286.426     66.45853     188.6252        24     2.234     1.078  10.39   2
       171    996.0074    637.3254 307.5037094  +6.4218905     2596.993     4357.871      5083.25     94.06171     188.0483     376.8849      1.799     5.08     1282.886     66.45853     383.0112        19     1.775     0.753  29.69   3
       172    997.2155    634.3848 307.5033050  +6.4231464     4131.757     8849.345      10250.7     94.21186     188.1985     376.9599      2.314     5.88     1282.607     66.45853     439.7428        40     1.981     1.241  14.11   3
       173    936.0616    635.2805 307.5287107  +6.4207503     1040.366     2289.196      2411.11     94.66084     188.5737     377.0349      2.291     7.42     1284.155     66.45853      132.957        14     1.608     0.958  45.43   0
       174     74.2960    633.5804 307.8871807  +6.3927739     6316.191     13473.95     15985.28     94.36176     188.3487     376.8099      2.286     7.08     1293.824     66.45853     688.7441        40     2.275     1.041  18.36   3
       175     76.0011    629.7641 307.8866001  +6.3944087     8916.518     20757.26     26930.17     93.45875     188.3487     376.8099      2.564     7.38     1293.657     66.45853      998.897        60     2.669     1.268  22.82   3
       176     17.5092    634.1506 307.9107777  +6.3906396     813.4049     1888.751     3347.203     94.51142     188.3487     377.2223      2.808     5.61     1294.265     66.45853     111.7369         9     1.552     0.571  44.89   0
       177    534.2322    629.2562 307.6960409  +6.4098993     619.6245     1456.696     2282.654     94.36176     188.5737     376.9974      2.416     4.22     1291.353     66.45853     113.0415         5     1.547     0.328 -40.15   2
       178    719.3974    624.8198 307.6191763  +6.4178883     972.8566     2382.398     2704.199     94.06171     188.1234     376.7349      2.308     7.01      1285.84     66.45853     170.4453        14     1.856     0.832  25.79   3
       179    721.4462    621.4105 307.6184383  +6.4193659     1156.663     2696.022     3249.812     93.91134     188.4237     376.6599      2.272     7.52     1285.533     66.45853     161.2853        18     2.005     0.790  21.71   2
       180    741.6564    622.9912 307.6099795  +6.4193834     1307.771     2558.556     3342.581     93.76072     188.4987     376.7349      2.246     5.76      1285.37     66.45853     168.4194        18     1.540     0.978  18.13   3
       181    743.3636    619.5555 307.6093844  +6.4208606     1422.845     3444.447     4784.146     94.21186     188.4987     376.8849      2.884     9.74     1285.165     66.45853     170.0059        31     2.268     1.261  17.79   2
       182   1013.8619    618.2834 307.4969185  +6.4303549     1590.733     2698.555     4392.205     94.66084     188.5737     377.0349      2.108     6.82      1280.76     66.45853     230.0659        19     1.867     0.790  34.25  19
       183   1016.1117    615.6362 307.4960710  +6.4315240     2022.993     4122.228     5067.478     94.51141     188.4237     377.0349      2.334     6.73     1280.523     66.45853     249.0723        28     2.011     1.030  31.43  19
       184    980.7813    615.6191 307.5107667  +6.4303611     3589.163     10212.12     11724.54     94.21186     188.4987     376.9599      2.647     6.43     1281.535     66.45853     433.5144        58     1.976     1.883  -0.61   0
       185    574.6895    617.2664 307.6796160  +6.4162023     1049.243     2777.395     4404.403     94.66084     188.7984     376.9599      3.114     7.61     1288.606     66.45853      124.926        16     1.786     0.907  35.84   0
       186    235.8246    617.4075 307.8205473  +6.4048550      748.137     1538.977     3119.504     93.91134     188.4237     376.8474      3.145     5.74     1292.389     66.45853     132.1827         7     1.531     0.606  28.01   0
       187    138.7229    612.3857 307.8611001  +6.4036893      5797.39     12152.55     14120.74     94.06172     188.1985     376.8474      2.249     7.50     1293.078     66.45853      608.692        44     2.379     1.044  22.46   3
       188    140.6940    608.5546 307.8604093  +6.4053391     8220.672     18887.85     23862.62     94.36176     188.4987     377.1848      2.600     7.46     1292.996     66.45853     965.9954        64     2.763     1.267  25.63   3
       189    428.5129    609.6397 307.7406686  +6.4144905     1049.797     2601.826      4685.49     94.51142     188.4987     377.0724      3.467     5.01     1291.773     66.45853       154.71         9     1.095     0.648   9.25   0
       190    976.0988    598.9315 307.5132714  +6.4371057     2986.385     8793.723     11099.42     94.51142     188.7235     377.0349      2.830     7.05      1280.48     66.45853     334.8925        56     2.045     1.795  15.24   0
       191    568.1509    596.6429 307.6830267  +6.4245117      12581.5     25727.33     30172.95     94.51142     188.4987     376.9599      2.267     6.46     1287.527     66.45853     1463.271        52     2.353     1.107  27.21   3
       192    570.4468    592.9631 307.6821951  +6.4261094     15008.43     35466.71     45350.62     94.21185     188.5737     376.9224      2.599     7.93     1287.142     66.45853     1566.996        68     2.747     1.270  24.38   3
       193    180.9309    589.4528 307.8443177  +6.4145804     567.7143     1959.507     4011.663     94.36176     188.4237     376.9599      4.124     6.19     1291.476     66.45853     99.79834         5     1.428     0.754  89.53   2
       194    175.0165    589.2188 307.8467854  +6.4144796     858.5861     2377.896      4611.52     94.21185     188.2736     376.9599      3.948     6.40     1291.568     66.45853     136.1571        13     1.480     0.778  69.27   2
       195    465.7447    580.9609 307.7261456  +6.4275876      15261.3     30928.46     35890.81     94.51142     188.6486     377.0349      2.229     7.13     1288.644     66.45853     1717.166        50     2.353     1.079  27.49   3
       196    467.7344    576.7526 307.7254592  +6.4293938     19303.15     47951.82     63463.28     94.36176     188.4987     377.0724      2.780     7.97     1288.275     66.45853     1995.952        84     2.855     1.419  25.99   3
       197    737.2988    563.0291 307.6137981  +6.4440306     1526.319     2892.538       3790.2     94.51141     188.2736     377.0349      2.220     5.29     1282.834     66.45853     200.8422        10     1.089     0.726 -86.56   3
       198    739.2275    559.7161 307.6131067  +6.4454645     1778.384     3830.807     6363.061     94.51142     188.2736     376.8849      3.402    10.43     1282.704     66.45853     216.2036        37     2.431     1.953  63.36   2
       199    791.1636    559.0997 307.5915248  +6.4474433     3771.628     7432.448     9020.092     94.51141     188.4237     377.2597      2.199     6.06     1282.038     66.45853     476.9392        29     2.130     0.819  24.59   3
       200    792.8446    555.2936 307.5909528  +6.4490727     4669.543     11045.85     14639.56     94.36176     188.4987     377.1848      2.654     7.52     1281.834     66.45853     484.2202        53     2.460     1.375  22.35   3
       201    618.2516    555.2858 307.6635740  +6.4432769     11070.56     12232.51     13225.12     94.51142     188.4987     377.1473      0.790     1.25     1283.864     66.45853     4330.706        19     0.947     0.562 -59.83   3
       202    614.5165    552.8928 307.6652077  +6.4441422     862.0568     1997.131     2720.653     94.21185     189.0228     377.1848      2.737     8.69     1283.858     66.45853     136.9729        15     1.799     1.370 -72.79   2
       203    868.0098    542.0128 307.5601317  +6.4570573     834.7472      1924.76     2249.735     94.21185     188.2736     376.9599      2.425     6.76     1280.049     66.45853     112.2816        11     1.582     0.809  19.25   2
       204    868.6019    538.2842 307.5600100  +6.4586185     971.4197     1989.875      2711.28     93.76072     188.1234     376.6599      2.077     5.98      1279.58     66.45853     135.7803        10     1.671     0.603   1.74   2
       205    827.2617    536.4320 307.5772676  +6.4580132     767.0182     2371.752     3550.756     94.21186     188.6486     376.9599      3.296     7.73     1279.899     66.45853     102.4977        11     1.714     0.976  -2.54   2
       206    253.9611    535.0991 307.8157716  +6.4394902     1717.311     4168.606     4537.088     94.51142     188.4237     377.2972      2.467     8.42     1286.892     66.45853     196.8201        25     2.283     0.867  35.33   3
       207    256.3766    531.4254 307.8148904  +6.4410897     2477.827     5724.671     7980.705     93.91134     188.4237     376.9974      2.705     8.77     1286.479     66.45853     273.3472        43     2.468     1.229  29.80   3
       208    806.4790    530.9764 307.5860947  +6.4595794     44152.88     81885.66     90469.32     94.06171     188.2736     376.9974      1.997     6.02     1279.544     66.45853     5598.948        48     2.179     0.947  30.17   3
       209    807.9995    526.9958 307.5855954  +6.4612756     51697.52     121857.7     155929.8     93.76072     188.0483     376.7349      2.605     7.62     1279.049     66.45853     5506.215       124     2.778     1.772  17.92   3
       210    188.6418    530.2054 307.8431039  +6.4393332     13692.86     30101.16     35822.64     93.76072     188.1985     376.6974      2.379     7.81     1287.975     66.45853     1474.523        54     2.512     1.075  22.91   3
       211    190.5056    526.1393 307.8424655  +6.4410765      18296.3     44419.44     57489.17     94.36176     188.5737     377.0724      2.713     7.87     1287.688     66.45853     1918.556        80     2.820     1.416  25.86   3
       212    113.2610    526.3464 307.8745861  +6.4384108     1533.762     3295.263     4629.726     94.51142     188.4987     376.9974      2.518     9.28     1289.343     66.45853     192.5808        28     2.359     1.019  18.62   3
       213    114.6993    522.5649 307.8741152  +6.4400223     2057.441      4736.38     6523.344     94.51142     188.4237     377.2223      2.634     8.52     1289.199     66.45853     233.5023        37     2.367     1.148  27.23   3
       214    361.6042    516.8868 307.7716116  +6.4506098     3871.088     8963.097     11741.66     93.91134     188.1985     376.6599      2.578     7.79     1284.285     66.45853     430.4452        43     2.445     1.105  32.77   3
       215    363.9905    513.0466 307.7707479  +6.4522771     4878.679     11304.56     14945.69     93.91134     188.4237     376.6223      2.675     8.63     1283.984     66.45853     514.4492        54     2.745     1.215  29.29   3
       216    842.9327    517.8535 307.5713702  +6.4662146     1455.807     2262.056     2689.021     94.51142     188.4987     376.9224      1.849     5.48      1277.67     66.45853     217.9963        14     1.325     0.776  31.52   3
       217    844.9711    514.7634 307.5706256  +6.4675598     1481.291     3705.653     4776.359     94.06171     188.2736     376.8099      2.699     8.95     1277.312     66.45853     172.9695        29     2.263     1.085  30.41   2
       218    527.0955    511.6956 307.7029508  +6.4582676     1449.648     2818.128     3641.396     94.51142     189.3217     376.8474      2.296     7.89     1281.624     66.45853     194.1849        21     2.077     0.839  29.49   3
       219    530.0082    507.7757 307.7018707  +6.4599852     1954.112     5157.961       7722.3     94.06171     188.3487     376.8474      2.994     9.27      1281.21     66.45853     247.3422        46     2.508     1.429  37.40   2
       220    168.6185    513.5450 307.8519926  +6.4455527     702.9297      1435.37     2511.439     93.91134     188.5737     376.7724      2.565     3.98     1287.967     66.45853     118.4458         5     1.064     0.425  15.39   0
       221    796.9437    511.7232 307.5907049  +6.4672234     1748.302     3305.237     5526.743     94.51142     188.4987     376.9974      3.126     6.68     1277.408     66.45853     240.9938        22     1.786     1.045  37.97   3
       222    798.1986    507.8060 307.5903139  +6.4688846     1880.172     4904.026     6389.336     93.76072     188.1985     376.8099      2.834     7.82     1276.913     66.45853     213.6091        21     2.071     0.825  29.48   2
       223    174.9691    505.2781 307.8496295  +6.4491826     1675.289     3661.514     5429.739     94.36176     188.6486     376.9974      2.348     9.36     1287.344     66.45853     195.6699        28     2.286     1.071  14.51   3
       224    177.2253    501.2036 307.8488282  +6.4509425     2029.637     4758.571     5988.422     93.91134     188.1985     376.8474      2.423     8.43     1287.064     66.45853     262.2819        36     2.358     1.089  26.35   2
       225     47.4906    504.4681 307.9026781  +6.4452577     1099.652     2103.377     3539.695     94.66084     188.7235     377.0349      2.570     7.22      1288.25     66.45853     129.6721        17     1.776     0.823  20.39   3
       226     49.0666    500.1385 307.9021684  +6.4471004     1656.298     3859.588     5634.752     94.51142     188.4987     377.0349      2.743     8.00      1288.04     66.45853     189.4498        29     2.141     1.182  31.68   2
       227    270.3967    501.6860 307.8100589  +6.4538530      20514.5     46491.73     57431.57     93.91134     188.1234     376.6974      2.454     7.68     1283.685     66.45853     2178.564        63     2.586     1.155  28.19   3
       228    272.6592    497.5720 307.8092561  +6.4556294     26004.69     63338.07     82190.48     94.06172     188.6486     376.8849      2.698     8.40     1283.315     66.45853     2738.852        84     2.873     1.360  28.46   3
       229    793.0573    493.1477 307.5929427  +6.4747746     4644.071     9018.677     10215.93     94.51142     188.5737     377.0349      2.116     6.61      1275.24     66.45853     582.3016        31     2.026     0.947  27.21   3
       230    794.9492    489.6280 307.5922734  +6.4762927     5164.106     11751.02      15448.3     94.06171     188.7235     376.9224      2.610     7.52      1274.84     66.45853      567.162        52     2.577     1.248  24.84   3
       231    496.7130    491.9669 307.7162501  +6.4654133     10793.26     22827.15      28242.3     94.51142     188.4237     377.0349      2.410     7.28     1281.109     66.45853     1187.778        56     2.562     1.137  27.04   3
       232    499.2396    488.3649 307.7153200  +6.4669867     12458.02     32297.48     43276.17     94.21186     188.4237     376.8099      2.840     8.53     1280.743     66.45853     1254.245        75     2.915     1.372  25.82   3
       233    656.2712    486.3752 307.6500678  +6.4730321     1035.226     2250.049     3584.917     94.06172     188.4237     376.9599      2.778     7.70     1278.607     66.45853     113.7125        14     1.649     1.007  70.98   2
       234    659.0142    483.0105 307.6490395  +6.4745145      899.602     2211.019     3743.477     94.21185     188.2736     376.9224      3.290     6.84     1278.386     66.45853     129.5809        13     1.710     0.766  25.59   3
       235    141.5755    480.0747 307.8643671  +6.4584874     6311.543     13990.07     17466.54     94.06171     188.3487     376.9599      2.399     7.57     1287.535     66.45853     654.0341        46     2.454     1.130  33.08   3
       236    143.8220    476.1933 307.8635634  +6.4601671     7806.235     18504.98     23498.02     93.91134     188.3487     376.8099      2.616     8.20     1287.141     66.45853     833.9449        61     2.716     1.333  33.27   3
       237    326.5914    481.6461 307.7873587  +6.4640127     994.1022     2154.462     3203.513     93.91134     188.4237     376.6223      2.405     6.46      1281.91     66.45853     131.8439        13     1.574     0.744  26.96   3
       238    328.5840    477.5632 307.7866671  +6.4657672     1086.952     2903.573     3992.515     94.06172     188.3487     376.7349      2.715     9.62      1281.47     66.45853     128.4565        26     2.315     1.116  32.13   2
       239    107.9375    473.8649 307.8785674  +6.4599308     847.5788     2040.202     3023.666     94.51142     188.5737     377.0724      2.737     4.96     1287.192     66.45853       119.52         8     1.250     0.557  47.30   2
       240    967.8008    471.3106 307.5209833  +6.4895974     1800.873     5688.189     7342.694     93.60986     187.9731     376.7349      2.925     9.59     1270.592     66.45853     215.5597        45     2.188     1.680   3.48   0
       241      5.9147    465.1474 307.9212956  +6.4601237     8514.338      14773.5      16734.5     94.51142     188.4987     356.8916      1.905     2.60     1286.132     66.45853     2940.484        39     2.155     1.028  32.39  19
       242      8.1742    460.7416 307.9205043  +6.4620208     8234.431     19887.75     25010.18     94.06171     188.5737     375.9086      2.663     8.01     1286.082     66.45853     853.3856        64     2.719     1.389  28.79  19
       243    438.2437    461.0809 307.7416072  +6.4762363     10232.01     20824.38      24321.9     94.51141     188.5737     376.9974      2.258     6.85     1278.349     66.45853     1141.671        48     2.391     1.034  24.23   3
       244    440.5793    457.1041 307.7407691  +6.4779583     12133.07     31176.45     41126.39     94.36176     188.3487     376.8099      2.813     8.38     1277.833     66.45853     1203.662        77     2.824     1.470  25.23   3
       245    646.0904    460.1273 307.6551818  +6.4835461     3173.806     6527.929     7694.133     94.51142     188.8732     377.0349      2.260     6.91     1276.455     66.45853     352.2607        37     2.347     0.987  24.36   3
       246    648.4424    456.5533 307.6543232  +6.4851020     3596.901     8344.575     10889.27     94.51142     188.5737     376.9599      2.555     7.43     1276.182     66.45853     446.6284        48     2.499     1.252  27.78   3
       247    203.6609    458.7497 307.8392610  +6.4693775     4525.174     10381.67     13078.99     94.51142     188.4987     377.1099      2.575     8.42      1281.87     66.45853     449.1882        41     2.603     1.056  34.18   3
       248    206.0012    455.1133 307.8384099  +6.4709590      5645.52     14692.67     19433.31     93.60986     188.0483     376.6974      2.779     8.99     1281.361     66.45853     575.6826        61     2.870     1.344  32.06   3
       249    941.7714    453.5877 307.5324029  +6.4960627     1701.166     3252.864     5114.979     93.91134     188.3487     376.9224      2.594     6.76     1269.957     66.45853     198.4055        25     2.046     0.927  27.93   3
       250    943.0669    449.8760 307.5319880  +6.4976403     1778.711     3837.322     4968.523     94.66084     188.6486     376.9974      2.612     7.01     1269.701     66.45853     233.3964        25     1.850     1.118  22.89   3
       251    615.3693    452.7644 307.6682076  +6.4855691     1782.428     4157.379     5464.959     94.06172     188.2736     376.7724      2.600     8.83     1275.922     66.45853     227.3915        35     2.393     1.179  20.97   3
       252    616.6085    448.4376 307.6678371  +6.4873992     1646.062     3709.216     5554.095     93.60986     188.2736     376.7349      2.673     9.64     1275.461     66.45853     186.2914        33     2.520     1.028  11.09   3
       253    571.7505    454.7962 307.6862837  +6.4832785     749.0229      1772.31     3598.126     93.76072     188.3487     376.5473      4.041     9.48      1276.17     66.45853     97.19312        13     2.354     1.065  15.34   2
       254    964.8268    443.4483 307.5231507  +6.5010189     1349.059     3747.339     5102.011     94.06172     188.6486     376.9599      2.965     9.12     1269.047     66.45853     185.3884        29     1.854     1.767   8.88   2
       255    527.1787    444.3353 307.7051750  +6.4861207     1784.301     3446.833     4394.613     94.06171     188.5737     376.8849      2.101     6.10     1275.463     66.45853     241.3125        23     2.009     0.771  22.26   3
       256    529.3705    440.2469 307.7044004  +6.4878839     1936.005     5149.585     8399.655     94.06172     188.6486     376.9224      3.214    11.01     1275.041     66.45853     199.7572        45     2.483     1.414  25.86   3
       257    371.9805    444.0062 307.7697434  +6.4810880     783.5197     1431.618     2472.534     94.06171     188.2736     376.8099      2.967     6.24     1276.754     66.45853     120.9149         9     1.158     0.945 -54.04   0
       258    884.9374    438.2422 307.5565579  +6.5005236     1246.428     3543.136     5875.314     94.51141     188.4987     377.1099      5.000    11.06     1270.451     66.45853     180.7126        26     2.431     1.401 -39.25   2
       259    715.4537    430.0155 307.6273364  +6.4983007     961.8792     2203.929     3670.118     93.76072     188.5737     376.6974      2.840     6.36     1273.141     66.45853      140.949        11     1.544     0.736  33.67   0
       260    389.3294    425.3119 307.7631547  +6.4893953     1014.227     2823.992     4271.801     94.66084     188.8732     377.0349      3.302     9.31     1274.122     66.45853     122.1583        15     2.026     1.194  81.73   2
       261    385.5837    428.8354 307.7645944  +6.4878137     928.4935     1957.528     3529.034     94.06171     188.2736     376.8099      2.702     5.14     1274.666     66.45853     121.2079         8     1.102     0.677  30.85   0
       262    718.8232    426.3331 307.6260580  +6.4999351     786.4687     1842.213     3117.316     94.06171     188.5737     376.9599      3.044     3.76     1272.852     66.45853     113.0046         6     1.067     0.667  85.62   0
       263    613.7009    424.8472 307.6698371  +6.4970561      2621.02     5497.088      7194.84     94.51142     188.4237     377.2597      2.352     7.16      1273.37     66.45853     292.1622        33     2.163     1.019  20.20   3
       264    615.6689    420.9668 307.6691484  +6.4987259     2790.663     6865.943     8907.572     94.36176     188.5737     377.0724      2.620     8.20     1273.004     66.45853     314.6283        46     2.498     1.240  19.36   3
       265     78.3542    425.4264 307.8925037  +6.4789683     595.4501     1441.745     1902.215     93.91134     188.6486     376.9224      2.713     4.97     1284.888     66.45853     90.65466         5     1.160     0.603  54.89   0
       266    776.0364    421.0116 307.6024360  +6.5040350     4553.085     8801.592     10839.96     93.91134     188.3487     376.6599      2.129     6.40     1271.529     66.45853     558.5398        34     2.231     0.922  30.25   3
       267    778.0983    417.2712 307.6017034  +6.5056499     5182.252     12504.73     17714.56     94.36176     188.7984     377.0349      2.779     7.68     1271.305     66.45853     515.6843        60     2.604     1.462  26.98   3
       268    294.7057    422.0728 307.8026238  +6.4875796     693.5895      1376.86     2754.539     94.36176     188.6486     377.0724      2.415     5.97     1275.406     66.45853     104.5044         6     1.556     0.644  49.49   0
       269    299.8345    418.8477 307.8005988  +6.4890841     829.9189     1719.504     2799.511     94.21185     188.5737     376.9599      3.076     5.56     1274.959     66.45853     106.5547        11     1.260     0.691  81.66   0
       270    114.7219    414.0220 307.8777606  +6.4848989     1160.531     2666.682     3762.234     94.06171     188.2736     376.9974      2.507     7.47     1283.065     66.45853     145.2095        18     1.896     0.823   3.47   2
       271    116.7182    409.8256 307.8770716  +6.4867006     1310.775     3364.826     5498.091     94.36176     188.2736     377.0349      3.163     8.80     1282.785     66.45853     146.8367        25     2.461     0.878  31.59   2
       272   1016.3349    410.6992 307.5028166  +6.5162654      1493.39     2800.266     3761.396     94.51142     188.7235     377.0349      1.965     6.61     1266.648     66.45853     198.2526        15     1.555     0.789  19.53  19
       273   1016.3834    407.1702 307.5029142  +6.5177261      1676.88     3828.259     5134.703     94.06171     188.2736     376.9599      2.696     8.89     1266.215     66.45853      202.601        30     2.178     1.178   1.68  18
       274    350.1063    408.4407 307.7800370  +6.4950632     959.0528     1913.431      3946.33     94.66084     188.4987     377.1473      3.891     6.25      1273.15     66.45853     119.0273        11     1.246     0.882 -28.75   0
       275    350.3009    404.3360 307.7800940  +6.4967668     650.0172     1857.816     3300.712     94.51142     188.6486     377.0724      3.471     4.91     1272.998     66.45853     105.9647         5     1.422     0.479  33.68   2
       276    714.8084    393.0152 307.6288434  +6.5135772     4177.144     8489.642      10504.9     94.06171     188.2736     376.8474      2.196     6.73     1269.582     66.45853     502.4424        38     2.187     1.055  29.36   3
       277    716.8238    389.3219 307.6281287  +6.5151712     4168.397     10568.97      14244.3     94.06171     188.3487     376.9974      2.774     8.34     1269.119     66.45853     440.5477        52     2.676     1.273  26.34   3
       278    819.1165    391.2578 307.5855099  +6.5177666     689.9817     1820.225     2423.616     94.51142     188.5737     377.1099      3.089     6.01     1268.372     66.45853     100.3624         6     1.324     0.766   5.03   0
       279    635.4675    388.4951 307.6620004  +6.5128097     815.6965       2226.6     3371.484     94.36176     188.7235     377.0349      2.375     3.46     1268.989     66.45853     115.7849         5     1.057     0.327  22.18   2
       280    634.8115    384.9400 307.6623924  +6.5142577     704.8538     1694.383      3376.04     93.76072     188.4237     376.6974      2.740     4.41     1268.611     66.45853     102.7375         5     1.303     0.424 -53.74   2
       281    608.0053    384.2577 307.6735665  +6.5136486     4090.309      8747.04     12157.12     93.91134     188.4237     376.6974      2.701     7.96     1268.499     66.45853     502.0381        48     2.957     0.976  28.11   3
       282    610.0225    380.2325 307.6728623  +6.5153799     4642.033     12474.08     18063.47     93.91134     188.3487     376.7724      3.035     9.45     1267.982     66.45853     457.9849        76     3.326     1.384  28.90   3
       283    940.2604    382.3046 307.5354123  +6.5254855     1262.043     2137.014      3170.01     94.36176     188.5737     377.1473      2.343     6.09     1265.164     66.45853     210.5342        13     1.664     0.702  12.63   3
       284    941.5718    379.1462 307.5349723  +6.5268348     1527.577     3552.644     4932.604     94.21185     188.6486     376.9224      2.644     7.80       1264.9     66.45853     183.8563        28     1.924     1.200  12.48   2
       285    379.4110    379.6607 307.7688137  +6.5079391     6900.095     14907.39     18646.04     93.76072     188.4237     376.6974      2.407     7.62     1271.433     66.45853     739.2705        45     2.482     1.064  25.38   3
       286    381.7292    375.4901 307.7679895  +6.5097407     7792.321     20457.65     27149.87     94.36176     188.8732     377.0349      2.835     9.23      1271.12     66.45853     809.5608        70     2.872     1.402  26.15   3
       287    125.5568    378.9979 307.8744331  +6.4997413     575.5372     1576.046     3140.415     93.76072     188.1234     376.6599      3.066     4.62      1280.98     66.45853     92.11511         6     1.430     0.425 -24.91   2
       288    894.7834    373.9616 307.5546100  +6.5274276     737.0024     1695.256     2811.384     94.06171     188.4237     376.7349      3.272     6.56     1265.848     66.45853     100.6466         9     1.302     0.928  -1.45   0
       289    912.1516    369.3877 307.5475375  +6.5298945      1392.59     2207.864     3254.702     93.76072     188.4237     376.6599      2.080     6.80     1265.009     66.45853     170.4807        15     1.474     0.879  59.39   3
       290    908.5445    372.9932 307.5489176  +6.5282842     1373.591     2402.789     3417.132     93.91134     188.3487     376.6974      2.048     7.01     1265.373     66.45853     232.0856        16     1.811     0.803  22.99   3
       291    908.6022    368.8127 307.5490333  +6.5300145     1350.462     2613.492     3589.945     94.06172     188.1985     376.7724      2.404     6.65     1265.094     66.45853      159.344        15     1.662     0.746  58.76   3
       292    236.7455    370.2383 307.8284765  +6.5070763     3309.875     7111.631     8216.059     94.51142     188.6486     377.0349      2.350     7.47     1274.933     66.45853     375.0918        34     2.181     1.034  26.04   3
       293    239.3787    366.2112 307.8275167  +6.5088291     3612.406      9425.02     12465.04     94.06172     188.2736     376.8849      2.821     9.23     1274.688     66.45853     380.6917        56     2.765     1.357  24.29   3
       294    137.2069    358.6716 307.8702714  +6.5085342     1543.109     3640.075     5189.077     93.91134     188.0483     376.9599      2.750     9.35     1279.392     66.45853     193.7986        24     1.874     1.301  42.60   3
       295    141.1341    356.0002 307.8687278  +6.5097699     1305.644     2681.801     4153.929     93.60986     188.1234     376.6974      2.300     5.54     1278.977     66.45853     179.5863        14     1.356     0.873  61.02   3
       296    137.8791    353.7673 307.8701570  +6.5105843     1347.573     2671.244     4414.091     94.36176     188.5737     377.0349      2.397     5.75     1279.111     66.45853     188.4395        10     1.316     0.706  22.89   3
       297    161.3651    350.0241 307.8605133  +6.5129165     762.2422     2031.511     3271.058     93.91134     188.3487     376.7724      2.503     6.49     1277.369     66.45853     120.1245         9     1.961     0.603  33.29   0
       298     36.4639    341.6158 307.9127524  +6.5122178     1151.649     2763.144     4997.158     93.91134     188.4237     376.8849      3.463    10.52      1284.84     66.45853     153.1842        21     2.532     1.219 -14.08   2
       299    436.5686    342.6317 307.7462801  +6.5251532     1935.621     4436.462     6056.517     93.91134     188.2736     376.7349      2.608     8.36     1267.866     66.45853     255.5262        33     2.174     1.248  28.42   3
       300    438.7165    338.7899 307.7455155  +6.5268131     2004.027     5631.894     7312.741     94.06171     188.2736     376.8474      2.778    10.76     1267.524     66.45853     214.1969        40     2.572     1.255  28.01   3
       301    776.6162    339.3301 307.6049275  +6.5378260     3813.472     7375.002     10765.17     93.91134     188.4237     376.9224      2.484     6.67     1264.179     66.45853     500.1271        33     2.276     0.899  20.39   3
       302    778.7992    336.0980 307.6041275  +6.5392348     3670.195     9474.382     12638.83     93.91134     188.1234     376.6223      2.772     8.55     1263.963     66.45853      375.425        54     2.721     1.321  19.76   3
       303   1020.5529    333.4748 307.5036393  +6.5483344     1245.564     2335.891     2682.647     94.36176     188.6486     337.5151      2.078     6.12     1258.653     66.45853     169.4259        11     1.406     0.748  43.56  19
       304   1021.9449    330.7325 307.5031517  +6.5495144     1372.895     2525.029     3125.677     94.51142     176.5747     315.4814      2.172     7.64     1258.461     66.45853      158.801        18     1.740     0.939  40.14  27
       305    485.0266    327.0314 307.7266449  +6.5332169     854.9082     1844.334     3563.011     93.91134     188.2736     376.8474      3.140     6.16      1264.78     66.45853     122.1173        10     1.522     0.701  11.38   0
       306    842.1636    322.1977 307.5782313  +6.5470847     10114.49      20848.8     24345.48     93.45875     188.3487     376.8099      2.236     6.36     1262.522     66.45853     1150.289        48     2.226     1.144  22.58   3
       307    843.6811    318.4290 307.5777260  +6.5486933     10434.73     24818.82     31930.57     94.36176     188.3487     376.9974      2.663     7.81      1262.16     66.45853     981.0256        65     2.639     1.318  21.66   3
       308    458.9837    322.5963 307.7376278  +6.5341834     679.3229     1900.621     3283.688     94.06171     188.1234     376.8474      2.215     5.37      1265.42     66.45853     110.5287         8     2.346     0.346  32.17   0
       309    484.3117    321.2531 307.7271362  +6.5355821     672.8268     1605.504     3366.322     94.51142     188.4237     377.1848      1.810     3.46     1264.098     66.45853      89.5686         5     1.194     0.290 -35.22   0
       310    617.8581    311.0000 307.6719227  +6.5442648     558.6448     1399.719     2715.603     93.60986     188.1234     376.6223      3.385     3.99     1261.553     66.45853     108.6207         5     1.580     0.289   0.00   2
       311    615.0974    314.1781 307.6729647  +6.5428590     741.0123     2201.635     2975.444     94.36176     188.3487     376.8099      2.849     6.75      1261.74     66.45853     108.5029         9     1.466     0.871 -59.62   2
       312    698.8738    308.5669 307.6382998  +6.5479635     21992.88     44847.41     52176.16     94.36176     188.4987     377.0349      2.224     6.21     1262.086     66.45853      2568.05        55     2.362     1.053  27.76   3
       313    700.6272    304.8548 307.6376946  +6.5495565     21936.21     59187.01     77755.83     94.06171     188.6486     376.8474      2.814     8.12     1261.843     66.45853     2165.625        87     2.792     1.446  25.88   3
       314     98.5752    305.1736 307.8881432  +6.5293612     1413.986     2798.119     4583.707     93.91134     188.3487     376.9224      2.629     6.82     1281.684     66.45853     175.1543        16     1.919     0.679  37.50   3
       315    101.3166    301.1909 307.8871370  +6.5310994     1764.713      4836.31     6940.545     94.06171     188.1985     376.8474      3.262    12.01     1281.515     66.45853     218.2441        41     2.432     1.651  37.56   2
       316    544.9609    301.9892 307.7025516  +6.5455655     1820.392     3866.195     5191.444     93.76072     188.3487     376.7349      2.440     8.32     1261.105     66.45853     254.2986        25     2.359     0.883  27.32   3
       317    546.7231    297.8733 307.7019564  +6.5473259     2122.096     5465.882     8044.772     94.81004     188.8732     377.0724      3.140    10.16     1260.703     66.45853     217.3591        46     2.488     1.422  28.75   3
       318    407.6660    297.2159 307.7598287  +6.5429673     6376.129     13713.11      16789.9     93.91134     188.4237     376.9224      2.344     7.21     1266.364     66.45853     723.6377        42     2.357     1.050  25.18   3
       319    409.6577    293.1024 307.7591382  +6.5447343     6813.958     18312.97     25641.85     94.21185     188.4987     377.2223      2.891     9.08     1266.107     66.45853     664.7838        66     2.819     1.423  25.46   3
       320    276.9848    298.0739 307.8141644  +6.5382549     721.5851     1782.445     2465.327     93.91134     188.2736     376.8849      2.465     4.50     1271.094     66.45853     111.9541         6     1.086     0.530 -80.65   0
       321    496.6540    287.5178 307.7231337  +6.5499409     2304.315     4720.667     6643.644     94.51142     188.5737     377.1099      2.166     7.30     1260.152     66.45853     244.5914        28     2.113     0.905  27.21   3
       322    498.5883    283.5934 307.7224606  +6.5516278     2281.364     6075.563     9084.173     94.06172     188.3487     376.9224      2.905     9.96     1259.785     66.45853     239.4194        53     2.783     1.392  24.84   3
       323    768.3477    282.6532 307.6102639  +6.5609850     1006.367     2730.461     4701.343     94.81004     188.4237     377.0724      3.572     8.47     1260.372     66.45853      141.879        18     1.930     1.038  37.72   2
       324    386.0254    271.8385 307.7696839  +6.5527382     1736.379     3546.474     4303.123     94.06171     188.3487     376.8099      2.246     7.44      1265.61     66.45853     230.9611        24     2.033     0.879  31.87   3
       325    389.3285    268.0760 307.7684361  +6.5544039     2034.409     5230.106     6938.481     94.81004     188.8732     377.0349      2.794    10.71     1265.247     66.45853     212.0784        46     2.512     1.516  30.28   2
       326    754.2544    267.1344 307.6166467  +6.5669333     15542.99     31055.47     35816.63     94.51142     188.4987     376.9974      2.180     6.06     1259.654     66.45853      1885.78        47     2.248     1.014  30.99   3
       327    756.2031    263.0655 307.6159721  +6.5686804     14749.26     37560.36     49604.91     93.60986     188.2736     376.7724      2.739     8.54     1259.448     66.45853     1455.157        73     2.755     1.429  26.98   3
       328    989.6508    261.9324 307.5188843  +6.5768909     678.6211     1590.558     2266.581     94.36176     188.4237     376.9599      1.761     3.90     1255.543     66.45853     100.6914         5     1.280     0.341 -41.53   0
       329    930.7892    259.1439 307.5434669  +6.5760936     765.7412     1864.856     2856.415     93.76072     188.4987     376.6599      3.387     5.43     1256.735     66.45853     108.9059         6     1.364     0.611  11.61   0
       330    188.0912    254.5810 307.8526081  +6.5532691     557.1921     1139.739     2129.784     94.36176     188.2736     376.8849      2.192     4.29     1275.301     66.45853     108.8517         5     0.975     0.537  45.67   0
       331    753.3210    251.9213 307.6175442  +6.5731923      1802.29     3794.031     5884.743     94.81004     188.8732     377.1473      2.296     7.48     1258.911     66.45853     273.7095        24     1.927     0.912  18.34   3
       332    754.6871    248.0893 307.6171041  +6.5748220     1708.468     4517.418     6126.308     94.21185     189.0976     377.1848      2.809     9.67     1258.708     66.45853     199.3842        37     2.321     1.279  23.44   3
       333    768.7628    247.9144 307.6112538  +6.5753617     864.7827     2502.398     4196.785     94.51141     188.4987     377.0349      3.384     8.83     1258.678     66.45853     165.5011        12     2.246     0.968  86.19   0
       334   1007.5369    239.9816 307.5121755  +6.5865591      2184.71     4108.322     4977.957     94.06171     188.4987     376.8849      2.100     6.09     1254.547     66.45853     276.5856        29     1.911     1.045  29.99   3
       335   1008.2079    236.2127 307.5120221  +6.5881396     1853.936     3613.511     4621.038     94.06171     188.3487     376.9224      2.273     7.66     1254.444     66.45853     231.9786        25     1.968     0.948  23.30   3
       336    248.6156    237.2270 307.8280128  +6.5624647     1403.927     2601.153     3917.743     94.06172     188.3487     376.9224      2.305     8.95     1271.343     66.45853     210.8417        21     2.407     0.929  42.26   3
       337    251.0046    233.1982 307.8271545  +6.5642102     1608.894     4246.798     5914.202     93.76072     188.0483     376.7349      2.831    11.43     1271.173     66.45853     189.2336        41     2.584     1.409  36.13   2
       338    153.5873    223.4963 307.8680087  +6.5649680      650.336     1322.732     2351.699     94.36176     188.2736     376.7724      3.233     5.11     1278.016     66.45853     89.30652         6     0.959     0.770 -10.52   0
       339    905.4349    216.5912 307.5554378  +6.5928468     587.9774     1241.073     2142.355     93.91134     188.3487     376.8099      3.236     5.27     1254.636     66.45853      99.6532         5     1.004     0.781 -85.29   0
       340    725.4446    215.7409 307.6303534  +6.5872254     1410.368     3645.498     6508.232     94.36176     188.4987     377.1473      3.941     9.25     1256.601     66.45853     217.4656        28     2.427     1.260   3.52   2
       341    725.7850    211.9856 307.6303375  +6.5887893     1220.176     3426.638     4942.268     94.21185     188.1985     376.9599      3.116     7.16     1256.396     66.45853     176.0098        14     1.300     1.104 -52.09   3
       342    784.6788    190.1311 307.6065654  +6.5997808     3958.364     7608.396     8923.261     94.66084     188.8732     376.9974      2.118     6.37     1255.413     66.45853     455.3154        28     1.900     0.967  35.56   3
       343    786.3856    186.6429 307.6059720  +6.6012797     3825.428     10274.01     14604.35     93.60986     188.2736     376.7349      3.004     9.00     1255.228     66.45853     384.6036        56     2.706     1.431  27.52   3
       344    458.6541    191.5111 307.7421653  +6.5883691     5994.856     12329.53     15524.12     94.51142     188.4237     377.1848      2.328     7.09      1255.47     66.45853     700.0851        42     2.481     1.050  27.48   3
       345    460.9413    187.5549 307.7413465  +6.5900810     5706.282     16533.94     23004.76     94.36176     188.5737     377.1473      2.949     9.46     1255.208     66.45853     556.9841        67     2.786     1.528  27.05   3
       346    147.4957    185.0635 307.8718372  +6.5806539     816.7761     1728.675     2751.112     94.36176     188.7235     377.0724      2.968     4.31      1280.66     66.45853     120.4497         7     1.224     0.808 -46.18   0
       347    582.5155    176.9482 307.6911205  +6.5985132     1237.991     2700.793     4112.432     94.51141     188.4987     377.1473      2.545     7.86     1252.543     66.45853     165.1993        19     1.952     0.885  28.19   2
       348    584.5478    172.6151 307.6904202  +6.6003723      1127.89     3147.914     4476.373     93.76072     188.5737     376.6974      3.010     7.47     1252.369     66.45853     123.2579        19     1.862     0.840  10.00   2
       349    889.8759    172.9538 307.5633701  +6.6103731     3644.206     6475.262     7962.906     94.36176     188.6486     377.0724      1.939     5.04     1253.094     66.45853     469.5432        29     1.974     0.855  26.81   3
       350    891.1371    169.6933 307.5629543  +6.6117629     3637.697     8657.015     10871.72     94.51142     188.5737     377.1099      2.517     7.04     1252.933     66.45853      376.465        42     2.254     1.241  22.11   3
       351     16.1567    170.9751 307.9269529  +6.5820868     6725.777      13564.5     15762.11     94.06171     188.5737     376.9224      2.230     6.81     1287.912     66.45853     749.2494        40     2.240     1.041  26.34   3
       352     18.5119    167.0547 307.9261053  +6.5837864     7815.985     19562.96     25690.52     94.51141     188.4237     377.2223      2.737     8.69     1287.848     66.45853     775.6104        64     2.744     1.418  28.91   3
       353    688.4688    171.3115 307.6472257  +6.6043664      915.288      2379.22     4477.476     94.66084     188.8732     376.9974      3.738     9.42     1252.891     66.45853     110.0597        16     2.299     1.076   1.88   2
       354    976.1895    170.2443 307.5275471  +6.6143542     3503.611     6812.825     8553.085     93.91134     188.4237     376.6974      2.146     6.48     1250.448     66.45853      416.818        31     2.051     1.037  20.22   3
       355    977.5575    167.3871 307.5270733  +6.6155809     3264.539     7203.397     9476.525     93.76072     188.3487     376.7349      2.487     8.21     1250.174     66.45853     334.5718        33     2.601     0.976  22.97   3
       356    944.8516    169.9180 307.5405972  +6.6134507     807.3917     2068.043     2839.334     94.51142     188.5737     377.1099      2.564     6.57     1251.504     66.45853     120.0441         9     2.028     0.598  24.16   0
       357    497.5732    166.5921 307.7268092  +6.5999679     541.5615     1122.341     2062.072     94.06172     188.3487     376.8474      2.214     3.93     1253.199     66.45853     79.83557         5     1.075     0.412  15.62   0
       358    828.7977    161.4606 307.5891679  +6.6130990     677.8102     1460.722     2130.568     93.76072     188.1985     376.6974      2.779     4.94     1253.387     66.45853     104.0161         5     1.104     0.625 -64.31   0
       359    739.7281    159.1293 307.6263059  +6.6111060     11815.03     22583.01     26637.29     94.66084     188.7235     376.9224      2.144     6.26     1253.507     66.45853     1373.921        43     2.251     0.988  26.78   3
       360    741.5793    155.4559 307.6256587  +6.6126863     10896.22     28443.26     36745.71     93.91134     188.5737     376.8099      2.743     8.70     1253.266     66.45853     1070.864        69     2.732     1.349  25.27   3
       361    344.1192    156.8905 307.7909810  +6.5988655     1979.949     6779.788     12382.61     94.21185     188.7984     377.0724      3.788    10.77     1265.462     66.45853     233.0414        86     2.650     2.370 -65.73   0
       362    974.3198    155.6934 307.5288111  +6.6203084     1161.184     3397.608     3658.616     94.21186     188.8732     377.1099      2.578    10.47     1249.578     66.45853     144.6511        30     2.043     1.495  79.90   0
       363    907.7910    155.9159 307.5564855  +6.6180115     2486.922     4280.718     5497.407     94.06171     188.1985     376.8474      1.923     4.90     1251.785     66.45853     350.9869        21     1.676     0.768  33.17   3
       364    909.0554    152.8329 307.5560624  +6.6193281     2378.305      6017.08     8225.526     94.36176     188.5737     376.9974      2.769     7.77     1251.542     66.45853     282.6332        40     2.355     1.224  25.26   3
       365   1012.9719    156.2692 307.5127091  +6.6213507     681.5739     1757.765     2585.671     94.21185     188.5737     376.9599      3.175     3.35     1248.048     66.45853     114.0457         5     0.837     0.646 -25.38   2
       366    454.0335    152.2043 307.7454074  +6.6044664      1140.38     3068.101     4246.059     93.60986     188.4237     376.7724      2.726     8.63     1254.524     66.45853      151.396        21     2.211     0.940  60.64   3
       367    451.5442    156.2152 307.7463085  +6.6027252     1188.516     2474.072     3281.854     93.76072     188.4987     376.6599      2.197     7.39     1254.645     66.45853     153.1254        18     1.991     0.769  18.13   3
       368    450.5239    151.7681 307.7468823  +6.6045298     1059.793     2425.373     3502.041     94.36176     188.5737     376.9974      2.653     5.29     1254.655     66.45853     143.3918        10     1.119     0.873 -64.15   3
       369    111.1101    143.7349 307.8883671  +6.5965245     1418.048     4094.236      6900.34     94.36176     188.7984     377.0724      3.547    12.02     1284.233     66.45853     195.1597        34     2.066     1.949  77.37   2
       370    278.9410    144.1436 307.8185273  +6.6019611     9102.004     19547.04     22827.64     94.66084     188.5737     377.0724      2.322     6.72     1273.687     66.45853     1010.358        49     2.353     1.101  28.19   3
       371    281.8197    140.3173 307.8174583  +6.6036392     8904.654     23430.01     32062.98     94.06171     188.1985     376.9599      2.868    10.11     1273.757     66.45853     842.8594        72     2.989     1.502  29.29   3
       372    255.0443    145.4949 307.8284242  +6.6006049     1878.152     4134.413     5482.132     94.51141     188.5737     377.1848      2.473     9.95     1275.334     66.45853     241.2185        32     2.207     1.251  25.19   3
       373    256.6953    141.1171 307.8278846  +6.6024700     1828.608     4633.596     6473.179     94.36176     189.0228     377.1848      2.733     9.35     1275.439     66.45853     209.3788        33     2.285     1.066  29.07   3
       374    157.4019    140.5958 307.8692133  +6.5993694     862.6859     1837.345     3589.798     93.76072     188.0483     376.7349      2.402     4.38     1281.571     66.45853     112.4498         7     1.386     0.394  66.10   2
       375    161.1313    137.3872 307.8677698  +6.6008206     1152.276     3265.025      4781.76     93.91134     188.4237     376.8849      3.111     9.93     1281.375     66.45853     148.8524        24     2.207     1.266  27.37   2
       376    403.3299    139.6500 307.7669251  +6.6079674     13285.04     28290.57     33674.27     94.51142     188.4987     377.0724      2.346     7.17     1258.158     66.45853      1522.15        50     2.482     1.084  24.90   3
       377    405.4990    135.4433 307.7661639  +6.6097789      12984.1     34658.52        45611     94.51142     188.4237     377.2972      2.822     9.63     1257.924     66.45853     1249.899        74     2.864     1.436  25.80   3
       378    307.2133    137.4254 307.8069903  +6.6056821     4831.255      10539.8     13475.99     94.21186     188.3487     376.9599      2.524     7.53     1271.259     66.45853     545.0255        43     2.490     1.094  30.02   3
       379    309.8803    133.5348 307.8060115  +6.6073796      5076.41     13396.54     20607.37     94.81003     188.6486     376.9974      3.299     9.66     1271.093     66.45853     519.9084        66     2.935     1.460  26.47   3
       380    743.9393    131.4481 307.6254805  +6.6226907     9229.212     24221.85     32777.62     94.51141     188.4987     377.1099      2.836     8.29     1251.818     66.45853      863.641        73     2.773     1.441  24.40   3
       381    742.0688    135.0448 307.6261384  +6.6211415     9775.882     18374.29     20692.08     94.51142     188.4987     377.0724      2.041     6.15     1252.059     66.45853     1235.901        37     2.146     0.893  26.70   3
       382     59.2605    133.2769 307.9102912  +6.5991144     2444.351     4863.234     6043.406     94.66084     188.6486     376.9974      2.227     7.08       1286.4     66.45853     261.1963        27     2.019     0.924  30.10   3
       383     61.8549    129.4221 307.9093417  +6.6007948     2646.875      7037.48     10710.74     93.91134     188.5737     376.8099      3.117     9.06     1286.286     66.45853     280.7858        50     2.487     1.447  34.52   3
       384   1001.4887    129.2306 307.5183900  +6.6321497      596.228     900.9416     1357.257     94.66084     188.3487     376.9599      1.617     4.64     1246.729     66.45853      101.791         5     1.190     0.513 -28.36   0
       385   1001.8716    114.7284 307.5187150  +6.6381584     821.7548     2293.556     3895.309     94.81004     188.7235     376.9224      3.767     8.56     1245.765     66.45853      104.481        10     2.245     0.911  61.08   2
       386    278.0827    110.6454 307.8200112  +6.6157819     8318.025     17451.17     21934.41     94.51142     188.5737     377.0349      2.435     7.60     1276.056     66.45853     921.2836        49     2.486     1.129  20.90   3
       387    280.5179    106.3360 307.8191429  +6.6176449      8105.64     21870.87     30878.16     94.66084     188.7235     377.0349      3.050     9.67     1276.232     66.45853     767.2916        82     2.985     1.629  23.02   3
       388     24.7756    109.3849 307.9254440  +6.6078383      1142.13     2284.422     3283.972     94.21186     188.3487     376.9599      2.407     6.26     1287.517     66.45853     146.9083        11     1.308     0.841 -29.01   3
       389     21.6733    108.3179 307.9267707  +6.6081757     997.6323     1901.033     2899.054     94.81004      188.948     377.0724      2.509     4.51     1287.616     66.45853     129.6073         9     0.941     0.880  80.85   3
       390     25.3841    105.1969 307.9253320  +6.6095901     1359.091      3313.79     4577.431     94.06172     188.1234     376.8474      2.650     9.66     1287.502     66.45853     152.0945        27     2.396     1.086  29.30   0
       391    709.3652    106.2414 307.6407105  +6.6319639       2507.9     4956.016     6521.124     94.21186     188.5737     376.8099      2.316     6.52     1250.208     66.45853     302.9127        31     2.131     1.014  31.20   3
       392    711.0587    102.4266 307.6401337  +6.6335974     2269.443     5730.284     7903.903     94.06171     188.6486     376.8474      2.762     9.71     1250.017     66.45853     233.2839        38     2.505     1.085  28.77   3
       393    119.9564    104.5653 307.8860062  +6.6130141     1202.709     2225.599     2786.036     94.21185     188.5737     376.8474      1.995     6.71     1283.835     66.45853     162.3802        14     1.533     0.823  11.01   3
       394    122.7807    100.3843 307.8849720  +6.6148371     1534.737     4108.443     5854.738     94.21186     188.2736     376.9224      3.612    10.65     1283.695     66.45853     163.2175        38     2.623     1.412  33.49   2
       395    390.5762     99.6435 307.7735756  +6.6240827     1167.521     2820.179      4727.36     93.91134     188.4237     376.8099      3.114     8.72     1260.839     66.45853     140.6301        19     2.242     0.946  19.53   2
       396    394.3758     97.1095 307.7720798  +6.6252570     1184.966     3015.607     4785.452     94.66084     188.3487     376.8474      3.175     8.60     1260.359     66.45853      156.316        16     2.012     1.027  26.30   3
       397    358.9835     95.4720 307.7868608  +6.6247540     916.3898     2262.196     4902.268     93.91134     188.4987     376.9224      3.609     7.43     1266.868     66.45853     114.4038        14     1.980     0.780  75.43   2
       398   1002.4286     91.1798 307.5192696  +6.6479131     668.7941     1715.905     2904.082     94.06172     188.3487     376.9599      2.376     4.87     1243.991     66.45853     107.0157         6     1.541     0.436  19.19   0
       399    207.3738     87.8829 307.8501968  +6.6228321     1519.539     3484.857     4677.255     94.36176     188.2736     376.9599      2.453     9.48     1280.358     66.45853     168.2249        30     2.044     1.226   3.18   3
       400    209.8508     83.7995 307.8493037  +6.6246030     1369.755     3616.646     5575.645     93.60986     188.0483     376.5097      2.802     9.49     1280.239     66.45853     179.5642        31     2.671     0.940  28.67   2
       401    669.1915     86.1232 307.6581007  +6.6389468     1900.548     4008.256     5588.652     94.06171     187.9731     376.8474      2.449     8.24     1249.754     66.45853     224.3121        27     2.234     0.885  37.50   3
       402    671.3140     82.6877 307.6573326  +6.6404377     1675.728     4283.271     6697.927     94.21186     188.7984     377.1848      2.858    10.41     1249.681     66.45853     218.2365        37     2.475     1.219  34.21   3
       403    621.3819     83.6556 307.6780768  +6.6383774     2670.607     6903.436     10510.41     93.91134     188.4987     376.7349      3.297    14.74     1250.735     66.45853     312.5643        58     2.572     2.349  69.49   3
       404    624.7544     75.1024 307.6769603  +6.6420259     15607.73     33993.08     43712.56     94.51141     188.4237     377.2223      2.552     6.47     1250.412     66.45853     1836.397        68     2.332     1.531  29.83   3
       405    626.6630     71.1998 307.6762969  +6.6437029     14120.62     37362.17     49413.36     93.60986     188.2736     376.6974      2.785     8.90     1250.273     66.45853     1356.154        75     2.818     1.397  25.14   3
       406    348.2191     80.0798 307.7918570  +6.6307588     986.4825     2298.327     4533.098     94.06171     188.1985     376.9599      3.737     7.72     1269.105     66.45853     159.5076        16     1.627     1.025  18.78   2
       407    351.3468     76.1751 307.7906869  +6.6324774     1123.372     3112.766     5163.056     93.91134     188.5737     376.9224      3.606     9.30     1268.839     66.45853     134.0054        20     2.115     1.142  15.80   2
       408    530.5991     79.0157 307.7160067  +6.6372754     589.2262     1501.349     2459.925     94.06171     188.1234     376.7349      3.521     4.33     1251.805     66.45853     89.58337         5     0.818     0.653  -2.22   0
       409    307.0808     65.9711 307.8094483  +6.6352196     1131.919     3287.533     6317.889     94.36176     188.3487     376.9974      4.183    11.84     1274.912     66.45853       134.61        32     2.703     1.443  24.56   2
       410      2.1919     52.8297 307.9367474  +6.6304640     466871.6     685432.4     700638.2       92.241     164.2158      299.957      1.615     6.00     1288.688     66.45853     55319.56        40     1.527     1.043  31.64  31
       411      6.2295   1013.3400 307.9026945  +6.2334917     6433.537     15941.36     18730.71     94.21186     188.5737     360.3597      2.519     5.61     1307.637     66.45853     878.4993        62     2.098     1.679  26.37  24
       412    689.3056     58.9166 307.6506427  +6.6508638     1006.521     2213.023     3569.027     94.21185     189.0228     377.1848      2.548     6.48     1249.315     66.45853     156.0078        14     1.618     0.834  32.63   2
       413    689.5509     54.5384 307.6506873  +6.6526821     885.4583      2239.31     3197.804     94.51142     188.4987     377.1099      3.130     7.53      1249.26     66.45853       116.11        11     1.873     0.847  14.18   2
       414    430.9393     50.2300 307.7584411  +6.6458574     1181.388     2514.862     4162.587     94.21185     188.5737     376.9974      2.561     7.95     1259.763     66.45853     158.2814        20     2.172     0.814  11.27   2
       415    431.2059     46.2786 307.7584629  +6.6475000     798.0269     1967.927      3241.19     94.06171     187.9731     376.7724      2.485     3.85      1260.14     66.45853      137.166         5     1.091     0.390  74.13   3
       416    435.5070     47.5011 307.7566321  +6.6471379     855.6356     1722.413     2900.696     94.51142      189.247     376.9599      2.018     4.96     1259.362     66.45853     108.8812         8     1.395     0.499  88.43   3
       417    433.0000     45.0158 307.7577587  +6.6480819     764.2187     1808.771     2656.928     93.91134     187.9731     376.6974      2.471     4.34      1259.99     66.45853     118.1412         6     1.023     0.525  78.20   3
       418    903.4957     43.8095 307.5620202  +6.6642199      1599.77     4073.944     5219.404     94.21186     188.1234     376.7724      2.934     8.47     1244.557     66.45853     204.0247        35     2.182     1.488  47.96   2
       419    144.1696     38.7386 307.8781494  +6.6410383     931.7355     2433.989     3452.107     94.21185     188.5737     376.9599      2.737     8.79       1282.3     66.45853     126.9641        16     2.152     1.002 -21.80   0
       420     26.9040     33.6652 307.9271119  +6.6392141     4003.411     9657.688     12763.43     94.51142     188.7235     377.0724      2.704     8.63     1287.527     66.45853     391.9885        55     2.653     1.445  27.85   3
       421     24.4783     37.4890 307.9279922  +6.6375521     3343.432     6626.755     8725.309     94.21186     188.8732     377.1848      2.293     6.69     1287.681     66.45853     368.9602        29     2.078     0.914  25.85   3
       422      2.4623     34.6207 307.9372492  +6.6380011     759.7778     1570.315     3047.572     94.06172     168.6319     304.9107      1.645     3.51     1288.869     66.45853     117.0852         5     1.127     0.316 -19.93  25
       423    825.7447     30.8386 307.5948081  +6.6670036     2024.617     3427.278       4508.4     94.51142     188.6486     377.0349      1.916     5.20     1245.444     66.45853     298.1094        22     1.707     0.859  28.51   3
       424    827.5978     27.5650 307.5941466  +6.6684185     1854.896     4911.604     6235.574     93.45876     188.3487     376.7724      2.708     8.54     1245.243     66.45853     208.5675        36     2.187     1.227  28.42   3
       425    770.4814     30.9495 307.6178007  +6.6651233     1052.484     2610.245     4181.409     94.51141     188.6486     377.0349      3.196     7.58     1247.119     66.45853     153.6636        15     1.808     0.917  42.98   2
       426     66.5464     24.9913 307.9109101  +6.6441264     925.0889     2488.185     3780.627     93.91134     188.4237     376.6974      2.707     8.16     1285.265     66.45853     122.8267        17     1.852     1.006  19.93   2
       427      8.7369     20.5032 307.9351147  +6.6440476     783.2421     1894.285     2410.398     94.36176     188.7235     377.1099      2.236     6.50     1288.602     66.45853     90.29749        10     1.864     0.637  18.05  16
       428    765.5284     18.8712 307.6202662  +6.6699526     699.2526     1316.422     2486.079     94.81003     188.7235     376.9224      2.704     5.51     1246.827     66.45853     104.6875         7     1.576     0.543  21.40   2
       429    769.0447     14.9553 307.6189341  +6.6716884     591.8608     1243.166     2207.471     94.51142     188.5737     377.0349      2.750     5.60     1246.528     66.45853     95.56335         5     1.660     0.533 -53.22   2
       430    704.8239   1013.6197 307.6122299  +6.2566517     2411.879     6251.075     6839.241     94.21185     188.3487     376.9599      2.523     6.43     1310.004     66.45853     295.4342        44     1.829     1.655   9.51  16
       431    281.7675   1014.8256 307.7880876  +6.2420768     740.6624     1607.482     2297.116     93.91134     188.3487     376.8474      2.105     4.93     1309.983     66.45853     104.9956         7     1.300     0.530  19.21   0
       432    614.6133   1011.1946 307.6498197  +6.2546577     937.9524     1759.434      1743.82     94.06172     188.2736     376.8849      2.187     5.85      1310.45     66.45853     140.3296        10     1.460     0.659  13.54   0
       433     68.9679   1005.0000 307.8768917  +6.2390366     1963.155     3272.296     4021.465     93.60986     188.2736     376.6974      1.827     5.82     1307.344     66.45853      243.285        13     1.274     0.813  20.70   3
       434     71.4315   1002.5430 307.8759501  +6.2401347     3938.681     7646.675     10102.88     94.36176     188.5737     376.9224      2.370     6.29     1307.301     66.45853     582.7625        44     2.428     1.323  43.41   3
       435    799.9456   1002.5402 307.5730492  +6.2643896     7923.021     18820.01     21141.23     94.66084     188.4987     376.9974      2.397     5.44     1308.787     66.45853       911.74        60     1.959     1.650  15.42   0
