#   1 NUMBER                 Running object number                                     
#   2 X_IMAGE                Object position along x                                    [pixel]
#   3 Y_IMAGE                Object position along y                                    [pixel]
#   4 ALPHA_J2000            Right ascension of barycenter (J2000)                      [deg]
#   5 DELTA_J2000            Declination of barycenter (J2000)                          [deg]
#   6 FLUX_APER              Flux vector within fixed circular aperture(s)              [count]
#   9 FLUXERR_APER           RMS error vector for aperture flux(es)                     [count]
#  12 FLUX_RADIUS            Fraction-of-light radii                                    [pixel]
#  13 FWHM_IMAGE             FWHM assuming a gaussian core                              [pixel]
#  14 BACKGROUND             Background at centroid position                            [count]
#  15 THRESHOLD              Detection threshold above background                       [count]
#  16 FLUX_MAX               Peak flux above background                                 [count]
#  17 ISOAREA_IMAGE          Isophotal area above Analysis threshold                    [pixel**2]
#  18 A_IMAGE                Profile RMS along major axis                               [pixel]
#  19 B_IMAGE                Profile RMS along minor axis                               [pixel]
#  20 THETA_IMAGE            Position angle (CCW/x)                                     [deg]
#  21 FLAGS                  Extraction flags                                          
         1    442.9978     28.1082 307.7558096  +6.6695580     13382.02     31945.29     35763.27     88.46935     177.2928     354.8685      2.351     5.66     1110.312     62.60738     1361.181        70     1.943     1.656  48.21   0
         2    692.7090     17.0283 307.6523601  +6.6824951      1228.17     2625.371     2786.715     89.17542     177.3635     355.0452      2.152     5.90     1101.399     62.60738     143.3274        14     1.251     1.034 -17.85   2
         3    181.1706     10.6588 307.8652552  +6.6679690      6766.91     15510.71        17471     88.75246     177.7168     355.0805      2.273     5.48     1129.307     62.60738     671.3864        52     1.824     1.545  62.35  16
         4    926.6737      8.2502 307.5553755  +6.6939350     3422.507     6021.177     6638.715     89.03466     177.7168     354.6563      1.912     4.14     1095.258     62.60738     389.7054        31     1.555     1.166  50.87  16
         5    525.4643      8.6557 307.7221785  +6.6803525     1948.631     4158.564     4186.552     89.17543     177.6462     355.1864      2.182     5.93     1106.082     62.60738      198.399        26     1.450     1.256  65.55  16
         6    727.5394      6.9867 307.6382160  +6.6878052     1571.826     3128.773     3188.218     88.46935     177.5049     346.2455      2.004     5.48     1099.099     62.60738     186.0562        23     1.424     1.238  87.14  16
         7    463.1551      6.7461 307.7481493  +6.6790524     1103.046     2773.204     3287.003     89.03466     177.6462      344.393      2.455     8.04     1108.289     62.60738     141.4941        19     1.493     1.210 -75.09  18
         8    991.4750      4.6162 307.5285534  +6.6975966     1694.246     2811.338     2160.402     88.46936     177.3635     320.2366      1.771     5.00     1085.924     62.60738     191.3339        18     1.387     1.036  68.76  16
         9    711.1333      1.9929 307.6452054  +6.6893182     4449.643     6760.448     7003.536     85.14605     151.7529     279.1812      1.616     4.58     1099.713     62.60738     566.9709        22     1.438     0.965   4.35  24
        10    631.2176      1.6237 307.6784455  +6.6867969     1779.307     2274.607     2200.262     81.37997     146.1101     272.4508      1.395     4.11      1102.45     62.60738     252.2064        14     1.309     0.670  -4.94  24
        11    718.8811   1004.6229 307.6082851  +6.2756645     2625.915     4273.812     4856.827     88.61102     177.2928     355.1158      1.740     3.95     1158.236     62.60738     311.2584        22     1.336     1.015  51.48   0
        12    893.7394   1021.5992 307.5350699  +6.2744940     1526.996     2113.093     2147.516     88.18535     170.1447     302.3878      1.494     3.71      1156.41     62.60738     219.9802        14     1.173     0.831  56.11  24
        13    795.3493   1023.4866 307.5758830  +6.2704312     4110.921     5192.348     4926.932     79.98078     144.2092      270.603      1.187     3.76      1158.33     62.60738     861.7466        16     1.255     0.626   8.55  24
        14    586.4332   1020.6495 307.6627715  +6.2646196     70206.88     113279.4     121324.3     88.89367      177.222     316.4542      1.770     3.65     1161.116     62.60738     8453.006        87     1.646     1.468  38.31  24
        15    442.0403   1005.6105 307.7232640  +6.2659935     834.3854     1217.041     861.9994     88.32746     177.4342     354.9038      1.552     4.94     1162.913     62.60738     122.9456         8     1.124     0.614  33.50   0
        16    734.6487   1003.3745 307.6017763  +6.2767067     1225.192     1888.465     1954.278     88.61102     177.7168     355.0805      1.734     6.00     1157.732     62.60738     152.5758        11     1.372     0.753  88.70   0
        17    365.8206   1002.3980 307.7550366  +6.2647650     1743.213     2691.617     2854.717     88.61102     177.2928     354.8685      1.783     4.44      1164.19     62.60738     223.2152        17     1.282     0.876  31.79   0
        18    975.6013   1000.0410 307.5017821  +6.2861236      683.406     1059.997     765.1078     88.32746     177.2928     354.8685      1.389     4.35     1151.031     62.60738     110.6752         6     0.848     0.635 -58.01   0
        19    547.8484    992.3156 307.6797543  +6.2750253     4001.611     6709.271     7026.504     89.03466     177.6462     355.2217      1.806     3.79     1161.026     62.60738     533.5198        32     1.582     1.146  69.90   3
        20    545.0689    984.5434 307.6811705  +6.2781409     7574.753     12537.99     14052.32     89.17542     177.5756     355.1511      1.849     3.90     1160.955     62.60738     850.9545        38     1.590     1.190  45.93   2
        21    518.1247    993.4805 307.6920637  +6.2735494     1156.258     1889.647     1810.684     89.31597     177.9284     355.2924      1.766     5.08     1161.154     62.60738     168.8511        14     1.311     0.954  48.57   0
        22    752.3368    991.7035 307.5948195  +6.2821157     7818.348     12233.67     12390.33     88.89367     177.7873      355.257      1.679     3.46     1156.982     62.60738     979.0093        36     1.410     1.186  42.36   0
        23    298.1267    991.0718 307.7835408  +6.2671700     13362.99      22796.2     25188.31     89.31597     177.7873     355.2217      1.865     3.91     1165.646     62.60738     1582.616        58     1.632     1.529  39.11   0
        24    813.5644    991.2579 307.5693969  +6.2843443     1121.429      1724.29     2212.559     88.89367     177.6462     355.1864      1.807     5.68     1155.937     62.60738     132.7871        13     1.291     0.850  72.45   0
        25    422.8338    991.5296 307.7317174  +6.2711628     1016.675     1488.988     1653.758     88.89367     177.6462      355.257      1.560     4.00     1163.411     62.60738     152.1652         8     0.831     0.752  25.32   0
        26    269.1358    988.4204 307.7956740  +6.2672917     944.2515     1730.865     1938.124     88.61102     177.6462     355.0452      1.907     5.30     1165.839     62.60738     144.6974         9     1.188     0.669  60.88   0
        27    913.6224    985.1326 307.5280318  +6.2902118     9346.868      13633.8     13777.15     88.61102     177.5756     355.1511      1.555     3.38     1153.403     62.60738     1364.721        33     1.447     0.970  53.82   0
        28   1008.9352    980.6569 307.4885821  +6.2952369     5361.464     7406.396     7541.535     89.17543     177.5756     355.2217      1.453     3.24     1147.712     62.60738     795.0577        25     1.382     0.921  49.41   0
        29    887.2713    981.2366 307.5391104  +6.2909413     12646.43     19328.83     20202.38     88.89367     177.6462     355.2217      1.629     3.46     1153.933     62.60738      1666.85        43     1.461     1.199  45.25   0
        30    600.1690    982.2977 307.6583546  +6.2809118     1035.987     1670.675      2129.14     89.17543     177.3635     355.2924      1.636     4.45     1159.532     62.60738     140.3058         9     0.917     0.705 -78.65   0
        31    531.4561    980.5557 307.6869602  +6.2793314     3892.438     6595.171     8071.498     89.03466     177.6462     355.1864      1.967     3.94      1160.95     62.60738     446.6266        34     1.644     1.167  33.94   0
        32    641.1310    979.2795 307.6414382  +6.2835279     1177.957     2142.093     2027.558     89.31597     177.8579     355.1511      1.951     6.23     1158.781     62.60738     141.0507        16     1.330     1.001  67.80   0
        33     67.1866    980.0851 307.8798505  +6.2639480     678.7924     1092.081     1613.564     88.61102     177.5049     355.0098      1.651     4.30     1165.837     62.60738     100.4437         5     0.758     0.695 -70.28   0
        34    484.5451    976.9459 307.7065708  +6.2792508     1932.926     3162.169     3544.819     89.31597     177.6462     355.1864      1.795     4.94     1161.187     62.60738     216.0587        21     1.342     1.071  38.83   0
        35    919.0084    968.8619 307.5263394  +6.2971085     45258.04     68199.73     71339.93     88.32746     177.4342     354.9745      1.584     3.42     1152.196     62.60738     6397.152        63     1.541     1.156  50.89   0
        36    226.4773    967.4551 307.8141032  +6.2745145     1650.868       2517.2      2435.53     89.17543     177.6462     355.1864      1.796     4.79     1165.535     62.60738     220.4244        19     1.441     0.991  50.74   0
        37    625.4220    965.6744 307.6484219  +6.2886191     927.2296     1444.929     1448.783     88.61102     177.5049     355.1158      1.701     5.17     1158.477     62.60738     121.3062         8     0.950     0.794 -76.39   0
        38    816.9520    962.4741 307.5689552  +6.2963403     2316.635     3407.122     3569.971     88.89367     177.7168     355.2217      1.604     3.36     1153.937     62.60738     346.3385        20     1.343     0.892  58.07   0
        39    765.1717    960.5455 307.5905331  +6.2954075     6820.426     10726.17      11105.3     88.75246     177.7168     355.0805      1.712     3.64     1155.121     62.60738     837.2642        32     1.438     1.126  56.51   0
        40    731.8522    961.2628 307.6043522  +6.2939983     558.3497     772.9517     670.9498     89.03466     177.5756     355.1511      1.596     5.65     1156.076     62.60738     93.99219         7     1.344     0.669   8.34   0
        41    234.5799    959.6968 307.8109989  +6.2779893     1366.055     2246.509     2140.027     88.89367     177.4342     354.9391      1.715     4.72     1165.367     62.60738      175.873        17     1.370     0.988  48.35   0
        42    551.5924    959.7762 307.6792935  +6.2885838     865.5948     1179.676     1350.278     88.46935     177.4342     355.0098      1.576     4.82     1160.247     62.60738     129.1985         6     0.934     0.706  23.13   0
        43    199.6773    959.1700 307.8255165  +6.2770347     754.2078     1331.117     1345.482     88.89367     177.7168     355.1864      1.862     5.13     1165.429     62.60738     113.8853         7     1.289     0.577  57.41   0
        44     59.7597    957.9771 307.8836831  +6.2728247      2390.77     4017.688      3685.44     88.61102     177.4342     354.9391      1.731     4.22     1165.328     62.60738     304.8462        26     1.479     1.076  52.02   0
        45    953.3095    955.5953 307.5125327  +6.3037292     6947.238     10373.16      11343.2     88.46936     177.2928     354.8685      1.609     3.36     1149.538     62.60738     977.9104        29     1.379     0.993  48.61   0
        46    614.8755    952.4934 307.6532468  +6.2937078     1517.175     1290.209     1132.266     88.89367     177.8579     355.1864      0.730     1.09     1158.068     62.60738     553.8796         5     0.531     0.424  55.89   0
        47    927.1071    947.3003 307.5236973  +6.3062800     2253.026     3350.291     3537.682     89.03466     178.2101     355.1158      1.585     3.53     1150.495     62.60738     332.3412        18     1.218     0.944  39.67   0
        48    786.5543    943.6730 307.5822156  +6.3030871     1335.573     2044.575     2664.079     88.89367     177.7168     355.1864      1.796     4.91     1153.411     62.60738     174.2772        17     1.334     0.987  70.29   0
        49    647.9380    943.3683 307.6398171  +6.2985807     4212.947     7060.644     7828.305     88.75246     177.7168     355.1158      1.817     3.76     1157.238     62.60738     559.4397        31     1.435     1.189  61.55   0
        50    260.2807    943.4919 307.8008685  +6.2855417     4042.087     6806.777     7106.736     88.75246     177.9284      355.257      1.810     3.94     1164.879     62.60738     472.8029        32     1.487     1.190  53.61   0
        51    997.4000    942.8491 307.4946410  +6.3104609     761.0566     1276.237     2221.613     88.18534     177.1512     354.6563      1.824     4.95     1145.934     62.60738     113.2468         7     1.070     0.648  47.96   0
        52    470.6554    942.3269 307.7135068  +6.2930771     1078.641     1647.374     1187.802     88.89367     177.5049     355.0805      1.647     5.00     1161.389     62.60738      139.949        10     0.962     0.818 -44.02   0
        53     28.8466    941.2157 307.8970920  +6.2787041     2022.178     3399.749     3909.331     88.46935     177.5049     354.9038      1.778     4.65     1164.793     62.60738     240.3246        25     1.515     1.123  36.33   0
        54    879.7424    939.8665 307.5436256  +6.3077690     959.8829     1273.317     1064.277     89.17543     177.5756     355.1864      1.354     4.18     1151.474     62.60738      149.329         9     1.024     0.617  60.64   0
        55    970.8282    938.0349 307.5058424  +6.3115628      569.772     1016.022     907.5039     88.46935     177.3635     354.9391      1.829     4.66      1147.22     62.60738     91.72937         5     0.926     0.666  61.18   0
        56    951.4702    936.7932 307.5139270  +6.3114301     769.2614     1133.304     1573.893     88.46935     177.1512     355.0452      1.629     5.07     1148.399     62.60738     129.8663         9     1.372     0.530  46.91   0
        57   1003.3340    935.7593 307.4924129  +6.3135856     873.6943     1465.055     1726.201     89.03466     177.5756     355.2924      1.828     4.49     1145.095     62.60738     178.0763         8     0.980     0.644  78.71   0
        58    572.5036    935.5278 307.6714214  +6.2992940     1539.371     2227.172      2229.24     88.75246     177.8579     355.1511      1.605     4.15     1158.921     62.60738     175.7007        16     1.136     0.958  28.33   0
        59     61.7428    932.8477 307.8837088  +6.2832650     676.0878     1317.946     1322.359     89.03466     177.6462     355.3277      1.768     6.43     1164.747     62.60738     99.88196         9     1.506     0.770  58.00   0
        60    611.8629    932.2936 307.6551775  +6.3019461     1208.513     2040.974      1486.27     89.03466     177.7168      355.257      1.781     4.96     1157.337     62.60738     175.3291        17     1.287     1.061  37.02   0
        61    291.8689    930.3604 307.7881882  +6.2920229     1144.277     2497.635     3517.928     88.89367     177.6462     355.2924      3.132     8.05     1164.339     62.60738     132.4087        19     1.577     1.149  36.90   0
        62    758.6838    926.3021 307.5943783  +6.3093275     770.7621     1340.284     1240.025     89.03466     178.0693      355.257      1.867     3.76      1153.54     62.60738     128.3104         6     0.970     0.808 -43.74   0
        63    896.0695    922.4987 307.5374243  +6.3154838     7153.658     10726.72     11143.37     89.03466     177.7873     355.1864      1.637     3.42      1149.84     62.60738     922.5513        34     1.504     1.043  49.66   0
        64    432.1152    919.7037 307.7302807  +6.3011252     1735.296     2768.776     2235.499     89.03466     178.0693      355.257      1.723     4.80     1161.728     62.60738     196.8618        21     1.294     1.156  29.46   0
        65    333.6611    918.1620 307.7712367  +6.2984607     8098.752     13983.39     14672.69     89.03466     177.7168     355.1864      1.839     4.14      1163.93     62.60738     934.9248        38     1.581     1.222  48.96   0
        66    253.8012    917.1382 307.8044495  +6.2962035     5866.783     10402.53     11150.17     88.32746     177.4342     354.8685      1.882     4.45     1164.485     62.60738     699.9252        37     1.622     1.210  51.92   0
        67    582.2349    911.4706 307.6681875  +6.3095511     1016.716     1865.173     1479.387     88.89367     177.5756     355.1864      2.056     5.73     1157.555     62.60738     128.4441        11     1.247     0.822  31.16   0
        68    912.0017    907.7819 307.5312981  +6.3220908     1091.466     1669.466     2044.567     88.61102     177.1512     354.8685      1.477     3.79     1148.478     62.60738     162.1388        10     0.976     0.704  56.24   0
        69    868.4332    906.7395 307.5494354  +6.3210676     667.7844     1087.817     1066.359     88.75246     177.7168     355.1158      1.979     5.16     1149.841     62.60738     120.6527         6     1.063     0.707 -79.25   0
        70    979.4022    903.1790 307.5034478  +6.3262384     950.6721      1327.94     1611.839     88.61102     177.2928     354.9038      1.569     4.68      1144.79     62.60738     118.4171         8     1.062     0.585  68.41   0
        71    572.2535    901.5801 307.6726671  +6.3133001     624.9542     760.8787     1181.786     88.46936     177.6462     354.9745      1.311     3.83     1157.574     62.60738     98.52454         5     1.004     0.419  82.59   0
        72    748.1336    900.5685 307.5996258  +6.3195987     1443.342     2191.572     2951.032     88.89367     177.7168     355.1158      1.746     4.37     1152.771     62.60738     166.8359        13     1.124     0.818  35.77   0
        73    979.7198    896.5602 307.5035375  +6.3289814     1512.837     2258.156     3405.712     89.03466     177.7168     355.1158      1.781     4.18     1144.427     62.60738     177.7098        15     1.095     0.980 -34.94   0
        74    533.5203    896.6146 307.6889270  +6.3140536     1169.862     1989.086     1935.463     88.61102     177.3635     354.9745      1.790     6.15     1158.851     62.60738     135.5282        15     1.284     1.044  45.85   0
        75    611.6868    897.0250 307.6564366  +6.3165000     579.4492     728.3317     348.7929     89.17542     177.4342     355.0452      1.508     4.17     1155.713     62.60738     89.28564         5     1.078     0.460  24.90   0
        76    666.6879    893.9579 307.6336875  +6.3196057     2209.351     3545.444      3485.17     89.03466     177.6462     355.2217      1.737     3.80     1154.274     62.60738     273.6305        21     1.298     1.009  40.59   0
        77   1018.4046    892.7850 307.4875904  +6.3318291     585.8096      749.038     1424.991     88.61102     177.2928     342.8599      1.208     3.42     1142.156     62.60738     97.93787         5     0.762     0.444 -70.30  16
        78    957.4029    892.0817 307.5129602  +6.3300864     748.3024     1142.842     1134.177     88.32746      177.222     354.8685      1.733     4.81     1145.417     62.60738     100.8174         8     1.088     0.602  67.39   0
        79    207.1528    889.8172 307.8247521  +6.3059157     1793.621     3101.562     3227.282     88.46935     177.5756     354.9391      1.879     5.78     1164.237     62.60738     274.0741        23     1.720     1.023  70.65   0
        80     63.3524    890.3756 307.8844759  +6.3008521     2401.454     4158.339     3998.715     88.61102     177.6462     355.0452      1.871     5.34     1163.651     62.60738     266.5909        22     1.501     1.038  57.80   0
        81     81.0670    889.7244 307.8771384  +6.3017167     1829.943     2875.216     2644.381     89.17543     177.7168     355.1511      1.618     4.24     1163.694     62.60738     230.5636        18     1.225     1.030  46.15   0
        82    944.5899    889.3033 307.5183771  +6.3308062     812.4627     1030.058     1041.185     88.75246      177.222     354.9391      1.585     6.15     1145.891     62.60738     97.55334        11     1.293     0.823  59.52   0
        83    827.9854    889.9431 307.5668047  +6.3266518     739.8633     1065.847     1397.607     88.32746     177.5049     354.7978      1.422     5.23     1149.943     62.60738     124.5739         7     1.161     0.667  34.93   0
        84    661.2839    883.1620 307.6362957  +6.3238818     6245.818     10634.02      10919.5     89.03466     177.5756     355.1158      1.807     3.96     1153.768     62.60738     719.6719        33     1.536     1.136  54.78   0
        85     34.7492    880.0643 307.8967078  +6.3041465     926.1748     1753.034     1394.785     89.03466     177.5756     355.2217      2.076     7.52     1163.353     62.60738     131.5746        14     1.603     0.987  50.51   0
        86     21.7362    881.6770 307.9020595  +6.3030430     1074.472      1776.55     2078.304     89.31597     177.6462     355.1511      1.857     6.02     1163.379     62.60738     118.1072        13     1.047     0.975  57.15   0
        87    898.9548    879.4371 307.5376693  +6.3333573     2778.318     4338.267     4671.447     88.75246     177.6462     355.0805      1.688     3.70     1147.144     62.60738     397.1923        23     1.339     0.999  62.55   0
        88    344.3778    876.4196 307.7681916  +6.3160523     13471.05     24276.95     27068.08     88.75246     177.5756     355.1158      1.973     4.42     1163.532     62.60738     1609.159        55     1.725     1.375  51.40   0
        89     79.3861    877.7238 307.8782424  +6.3066141     1105.272     1937.815     1963.124     88.61102     177.3635     354.9745      1.909     4.55     1163.361     62.60738     144.6674        12     1.133     0.963  64.53   0
        90    215.8628    876.0878 307.8215969  +6.3118759     1064.451     1707.771     1481.739     88.89367     177.8579     355.1864      1.667     5.95     1164.019     62.60738     169.0299        12     1.200     0.935  69.06   0
        91    422.5163    867.1743 307.7360383  +6.3224889     841.9476      1270.53     1117.883     89.03466     177.3635     355.1158      1.665     5.33     1161.437     62.60738     140.4207         7     1.118     0.717 -57.62   0
        92    107.7165    866.8506 307.8668397  +6.3120553     1424.542     2706.508     2459.187     89.03466     177.5756     355.2924      1.964     7.10     1163.161     62.60738     172.5967        21     1.625     1.051  59.45   0
        93    676.2790    863.5912 307.6307230  +6.3324626     814.2303     1504.873      2014.46     88.61102     177.1512     355.0098      1.953     5.86     1152.232     62.60738     130.5754        10     1.173     0.860  78.01   0
        94    889.2287    861.0063 307.5423286  +6.3406417     1823.458     2695.923     2931.743     88.46935     177.4342     354.9745      1.548     3.33     1146.385     62.60738     307.6877        18     1.196     0.949  36.36   0
        95    860.0809    860.7442 307.5544485  +6.3397773     1805.589     2696.119      2766.08     89.17543     177.6462     355.2217      1.579     3.76     1147.456     62.60738     264.4664        18     1.261     0.929  40.01   0
        96    823.4803    860.0179 307.5696806  +6.3388555     2972.144     4780.683     5075.837     88.61102     177.2928     355.0805      1.744     3.66     1148.779     62.60738     358.5431        23     1.338     1.012  62.96   0
        97     91.4269    860.8514 307.8738102  +6.3139841      2023.33     3523.821     3949.495     88.61102     177.7873     355.1158      1.862     4.34     1162.948     62.60738     261.0936        23     1.398     1.062  52.80   0
        98    559.4193    851.5621 307.6796823  +6.3335194     277809.2       490446     524608.8     88.61102     177.4342     354.9038      1.900     4.09     1155.862     62.60738     31030.94       166     1.837     1.514  48.19   0
        99    647.4530    855.1777 307.6429829  +6.3349721     1032.372     1595.351     1316.549     88.46935     177.6462     354.9745      1.662     4.83     1152.524     62.60738     143.8341        13     1.337     0.871  85.97   0
       100    403.8250    854.2091 307.7442411  +6.3272146     6079.161     11248.31     11767.46     88.61102     177.4342     355.0452      1.968     4.41     1161.181     62.60738     735.2014        38     1.595     1.263  51.53   0
       101    346.9368    852.6157 307.7679309  +6.3259648     9923.247     18625.38     20015.18     88.46935     177.5756     355.0098      1.968     4.33     1162.911     62.60738     1177.272        45     1.660     1.331  45.16   0
       102    665.2999    848.9164 307.6357780  +6.3381537     2933.166     5299.657     5849.851     89.03466     178.2101     355.2924      1.922     4.28     1151.641     62.60738     360.3992        29     1.519     1.188  40.35   0
       103    897.4685    847.6020 307.5393544  +6.3464504     4850.778     7735.287     8174.248     88.32747     177.1512     354.9745      1.761     3.72     1145.194     62.60738     615.8707        32     1.675     1.100  23.71   0
       104    640.0875    842.9268 307.6464552  +6.3397833     2857.309     4978.729     5632.661     89.17543     177.9284     355.1864      1.825     4.52     1151.987     62.60738     335.7328        28     1.543     1.115  58.77   0
       105    828.5466    841.7407 307.5681889  +6.3465701     1628.826     2420.361     2497.369     89.03466     177.5756     355.1864      1.634     4.13     1147.519     62.60738     224.5985        17     1.315     0.857  60.59   0
       106    630.5929    842.2170 307.6504240  +6.3397587     836.5679     1321.866     1238.107     88.61102     177.3635     355.0098      1.631     4.68     1152.176     62.60738     93.68005         8     0.970     0.641 -73.56   3
       107    632.8571    837.1931 307.6496522  +6.3419085     1792.298     3330.731     4224.559     88.46935     177.5049     354.8685      2.051     5.16     1151.807     62.60738     216.9917        25     1.543     1.133  48.85   2
       108    955.5571    840.5908 307.5154527  +6.3512821      764.197      1187.19      1280.94     88.46936     177.4342     354.9038      1.977     4.43      1142.24     62.60738     131.5706         7     1.099     0.507  47.43   0
       109    326.7184    837.4352 307.7768432  +6.3315534     791.2487      1604.13     1215.959     89.03466     177.6462     355.1511      2.009     7.05     1162.722     62.60738     116.8439         9     1.530     0.909  85.74   0
       110    916.6976    835.5162 307.5317696  +6.3520812     3200.492     4902.662     5440.569     89.03466     178.0693      355.257      1.697     3.61     1143.375     62.60738     428.6282        23     1.387     0.941  42.70   0
       111    374.9767    831.4589 307.7569939  +6.3356392     2083.217     3824.812     3774.552     88.61102     177.6462     355.0452      1.929     5.02     1160.844     62.60738     242.5461        27     1.504     1.234  46.26   0
       112    511.0981    821.1137 307.7007844  +6.3444714     2527.695      4486.81     4102.265     89.03466     178.1397      355.257      1.896     4.44      1155.71     62.60738     282.8132        25     1.377     1.163  53.56   0
       113    855.6777    820.3482 307.5576332  +6.3563072     888.1823     1226.215     1760.471     89.03466     177.7168     355.1864      1.658     4.14     1145.394     62.60738     160.7556         6     1.058     0.463  86.10   0
       114    557.8781    817.3677 307.6814731  +6.3475841     5007.424     8836.384     10237.41     88.89367     177.6462     355.1511      1.999     4.33     1154.156     62.60738     552.6592        35     1.562     1.232  54.24   0
       115    564.8338    816.8091 307.6786018  +6.3480476     952.7841     2041.875      1656.12     88.46935     177.4342     355.0098      2.182     6.03     1153.744     62.60738     136.8611         9     1.393     0.734  62.08   0
       116    475.6458    816.3069 307.7156767  +6.3452684     1145.036     2213.486     2413.383     88.89367     177.5756     355.3277      2.129     5.25     1155.992     62.60738     175.8903        16     1.305     1.164  72.22   0
       117    117.5821    815.7322 307.8644683  +6.3334892     970.6939     1584.267     1705.131     88.46936     177.5756     355.1158      1.925     6.35     1162.339     62.60738     138.7069        12     1.290     0.878  65.41   0
       118    893.4153    815.4302 307.5421174  +6.3595968     1323.175     1879.771     1630.636     88.61102     177.3635     355.1158      1.619     4.01     1143.158     62.60738     175.4258        12     1.028     0.841  45.68   0
       119    528.5006    811.2729 307.6938848  +6.3491167     16058.49     29089.83     30836.44     88.75246     177.7873     355.1864      1.928     4.24     1154.838     62.60738     1842.039        56     1.743     1.343  45.68   0
       120    942.1255    809.3865 307.5220797  +6.3637165     3731.318     5761.685     6332.645     88.46935     177.3635     354.9745      1.656     3.94      1140.23     62.60738     477.5927        25     1.375     1.009  46.15   0
       121    321.3422    799.9557 307.7803410  +6.3468453     2583.356     4786.464     4632.382     88.89367     177.6462      355.257      1.930     4.73      1161.82     62.60738     282.6464        29     1.584     1.170  40.54   0
       122     39.2414    801.5669 307.8974961  +6.3367021     1062.742     1746.157     1523.537     88.75246     177.6462     355.0098      1.714     6.25     1162.182     62.60738     163.8938        12     1.278     0.860  31.61   0
       123    786.6450    795.7222 307.5871443  +6.3641689     48569.27     81055.34     86459.33     88.89367     177.6462     355.1864      1.808     3.76     1146.124     62.60738     5674.921        77     1.671     1.358  47.32   0
       124     21.1885    798.4697 307.9051014  +6.3373732      1734.87     3209.903     3362.417     88.46935     177.4342     355.0098      1.956     5.65     1162.043     62.60738     217.9897        21     1.471     1.121 -88.18   0
       125    243.8799    793.6883 307.8127378  +6.3468326     4016.206     8750.007      11802.3     88.75246     177.9284     355.3277      2.834     5.24     1162.925     62.60738     489.2941        45     1.844     1.495  52.13   0
       126    429.8606    794.3438 307.7354405  +6.3528011     730.9314     1426.362     1926.279     89.17543     177.6462     355.2217      2.076     7.40     1155.971     62.60738     88.09204         8     1.546     0.992  60.58   0
       127    715.1567    790.5261 307.6170240  +6.3639257     18124.11     31736.27     34503.87     88.89367     177.7168     355.2217      1.884     4.53     1147.529     62.60738     2103.573        48     1.576     1.326  56.43   3
       128    708.5992    786.8787 307.6198713  +6.3652123     73156.71     130226.8     140943.9     88.18534     176.9387     354.9391      1.904     4.02     1147.302     62.60738     8076.945        97     1.773     1.456  48.49   3
       129    911.9637    790.9083 307.5352323  +6.3703390      8073.56     12558.03     13460.61     89.17543     177.5049     355.2217      1.658     3.53     1140.651     62.60738      1040.26        35     1.475     1.112  46.77   0
       130    353.5398    787.8264 307.7673719  +6.3529326     15302.01     30147.09     32419.12     88.61102     177.6462     355.0452      2.068     4.69      1159.29     62.60738     1709.411        61     1.781     1.470  51.62   0
       131    415.4482    785.6575 307.7417216  +6.3559039     17143.46     32660.01     35279.01     89.03466     177.6462     355.3277      2.019     4.56     1156.117     62.60738      1861.67        59     1.753     1.440  46.86   0
       132    403.0569    787.9280 307.7467938  +6.3545512     1110.006     1906.245     2175.505     89.17543     177.6462     355.1511      2.130     5.71     1156.821     62.60738     140.6069        14     1.291     0.885  33.50   0
       133    243.3609    772.3591 307.8136733  +6.3556203     769580.9      2169612      2481736     88.75246     177.7168     355.0452      2.563     8.62     1161.511     62.60738     63197.54       558     2.484     2.129  55.47   4
       134    952.4879    784.5992 307.5186046  +6.3742951     2225.312     3292.879     3908.684     88.18535     177.0804     354.9038      1.661     3.73      1139.16     62.60738     293.5652        17     1.265     0.857  44.56   0
       135    908.8528    782.4224 307.5368096  +6.3737385     6297.306     10104.54     10995.11     88.46935     177.6462     354.9745      1.715     3.63     1140.545     62.60738     832.2828        33     1.516     1.124  50.30   0
       136    649.4949    781.4686 307.6446124  +6.3654696     5342.175     9556.238     10234.08     88.89368     177.7873     355.2217      1.949     4.29     1147.947     62.60738      548.952        38     1.545     1.399  57.92   0
       137    438.4556    779.8141 307.7323587  +6.3590873     1247.364     2600.921       2573.3     88.32746     177.5756     354.8685      2.042     7.84     1155.028     62.60738     155.2103        21     1.391     1.237  39.12   0
       138    684.3899    771.4856 307.6304482  +6.3707577     1987.233      3631.94     4096.213     88.61102     177.2928     355.0098      1.973     5.16      1146.42     62.60738     196.7316        24     1.404     1.182  72.24   0
       139    601.5924    772.9944 307.6648020  +6.3673656     706.7635     1580.426     1221.515     88.32746     177.4342     355.0098      2.197     5.03     1149.023     62.60738     111.5684         6     1.099     0.652  28.31   0
       140    418.3420    768.3690 307.7411017  +6.3631380     40511.61     78232.91     85111.94     88.89367     177.6462     355.1158      2.040     4.60     1155.115     62.60738     4482.117        83     1.840     1.508  47.18   0
       141    153.7194    771.9561 307.8509329  +6.3527753     734.8185     1477.699     1740.288     89.03466     177.6462     355.1511      2.094     7.36     1161.067     62.60738     90.42932        10     1.542     0.984  46.35   0
       142    129.2930    771.8202 307.8610865  +6.3520104     767.8324     1390.248      1382.01     88.89367     177.4342     355.0098      1.844     4.62     1160.969     62.60738     144.2419         8     1.132     0.753  53.00   0
       143    961.3067    770.0238 307.5154286  +6.3806064     697.2952     755.9553     920.0109     89.17542     177.4342     355.0098      1.197     3.27     1138.713     62.60738     122.2461         5     0.870     0.461 -88.65   0
       144    536.0065    767.2897 307.6922464  +6.3675254     5305.453     10040.68     10175.28     88.46935     177.2928     354.9391      1.996     4.61     1150.847     62.60738     568.3417        38     1.683     1.262  49.99   0
       145    452.8658    766.1160 307.7268324  +6.3652251     3339.608     6570.667     7108.708     89.17542     177.9284      355.257      2.085     5.24     1153.854     62.60738     388.3009        36     1.765     1.277  55.93   3
       146    449.4112    759.3057 307.7284973  +6.3679208     1746.078     3409.903     3230.107     88.75246     177.2928     354.9391      1.947     5.93      1153.65     62.60738     173.8425        24     1.512     1.113  46.35   3
       147    781.1830    763.8501 307.5904840  +6.3771443     9855.989     17004.57     17955.32     88.46935     177.7168     354.9038      1.824     3.98     1144.333     62.60738     1100.217        44     1.544     1.281  46.74   0
       148     10.7345    760.1680 307.9107405  +6.3528327      771.087       1337.5     491.8101     88.89367     177.7168     355.1158      1.815     6.54     1160.058     62.60738     131.9845        10     1.253     1.050  72.64   0
       149    131.3428    753.4576 307.8608553  +6.3596596     2201.658     4486.891     6167.312     89.03466     177.7168     355.2217      2.477     5.77     1160.256     62.60738     280.6337        29     1.707     1.211  51.90   3
       150    131.4750    746.8919 307.8610223  +6.3623744     1624.058     3182.697     3827.818     89.03466     177.7873     355.1864      2.224     5.61     1160.028     62.60738     185.7072        22     1.376     1.212  68.82   3
       151    139.1672    756.1736 307.8575125  +6.3588014     8484.525     16808.47     19792.17     88.46935     177.3635     354.9745      2.167     4.65     1160.418     62.60738     1070.318        57     1.804     1.499  45.57   3
       152    147.5533    756.3278 307.8540229  +6.3590196     2429.962     4335.175     4789.132     89.03466     177.7168     355.1864      1.982     5.32     1160.473     62.60738     295.2776        23     1.549     1.072  58.39   2
       153    803.0286    758.2471 307.5815945  +6.3801870      957.003     1534.351     1348.498     88.61102     177.7168     355.1158      1.766     5.48      1143.44     62.60738     124.2725        10     1.087     0.846 -13.40   0
       154    926.7209    752.4226 307.5303905  +6.3867195     6033.335     9581.663     10443.56     88.61102     177.2928     355.1511      1.726     3.45     1139.114     62.60738     810.8385        35     1.484     1.164  52.74   0
       155    976.0807    752.5825 307.5098738  +6.3882993      1515.88     2338.012     3138.421     88.61102     177.2928     355.0805      1.588     4.21     1138.056     62.60738     240.8175        13     1.280     0.800  44.04   0
       156    682.5168    749.8996 307.6319520  +6.3796064     1459.811     2629.583     3728.396     89.03466     178.2101     355.2924      2.584     5.70     1144.961     62.60738     184.0531        18     1.338     1.010  20.60   0
       157    569.3294    749.4403 307.6790005  +6.3760097      1767.39     3290.493     3470.063     88.89367     177.6462      355.257      1.968     4.95     1148.197     62.60738     195.3606        23     1.409     1.166  24.37   0
       158    417.5295    748.8577 307.7420968  +6.3711654      794.429     1527.994     1732.566     89.17543     177.6462     355.1864      2.134     5.79     1154.195     62.60738     122.1727         9     1.535     0.616  59.51   0
       159    981.3442    743.7656 307.5079821  +6.3921147     1712.985     2514.533     2332.544     88.89367     177.6462     355.1864      1.604     4.66     1137.748     62.60738     242.9271        14     1.243     0.855  69.62   0
       160    950.4201    743.9710 307.5208257  +6.3909989     2882.229      4560.88     4366.195     88.46935     177.4342     355.0805      1.676     3.74     1138.459     62.60738     352.2773        21     1.300     0.989  53.67   0
       161    920.9264    744.4106 307.5330670  +6.3898338     2817.022     4466.465     4840.664     88.46935      177.222     355.0452      1.723     3.71     1139.103     62.60738     378.6306        21     1.266     1.029  58.89   0
       162    673.5984    743.4930 307.6358732  +6.3819531     1181.801     2137.235     2226.025     88.46936     177.2928     354.9038      1.933     6.71     1144.571     62.60738     161.8115        16     1.391     0.920  38.88   0
       163    820.6189    741.9670 307.5748314  +6.3874953      860.998     1244.941     699.3046     88.46935     177.4342     354.9745      1.504     4.08     1141.819     62.60738     123.3723         7     0.885     0.729   6.06   0
       164    245.7443    738.6294 307.8138215  +6.3696245     1449.166      3109.39     4317.509     88.75246     177.7168     355.0805      2.601     5.67     1159.374     62.60738     182.7784        23     1.397     1.258  21.89   0
       165    938.8901    734.4371 307.5259366  +6.3945503     922.5173     1402.853     1013.409     89.17542     177.5756     355.2217      1.514     2.71     1138.388     62.60738     157.2115         7     0.834     0.583 -74.97   0
       166    912.7079    732.6647 307.5368761  +6.3944088     1062.283     1824.055     2105.913     89.03466     177.8579     355.2217      1.971     5.15     1138.797     62.60738       136.76        10     1.094     0.685  75.39   0
       167    965.3807    731.5393 307.5150255  +6.3966300     2498.464     3796.259     4219.471     88.61102     177.5756     355.0098      1.672     4.25     1137.652     62.60738     301.0797        18     1.247     0.964  37.75   0
       168    685.6208    731.3424 307.6312858  +6.3873712     731.5821     1260.138     2196.127     88.61102     177.5049     354.9745      1.964     5.12       1143.6     62.60738     116.1815         5     1.032     0.717 -64.81   0
       169   1007.1782    725.4330 307.4978609  +6.4005441     1778.428     2534.894     2448.924     88.46935     177.4342     354.9745      1.570     3.92     1136.295     62.60738     229.3977        18     1.201     0.996  53.34   0
       170    807.7440    723.2140 307.5808110  +6.3948073     918.5988     1724.964     2233.236     88.32746     177.5049     354.8685      2.116     6.61     1141.064     62.60738     111.5138        13     1.407     0.872  59.97   0
       171    894.7322    721.0590 307.5447351  +6.3986004     1323.628     2379.534      2448.28     89.17543     177.5756     355.1864      1.925     6.75     1138.312     62.60738     141.1921        17     1.345     0.981  39.17   0
       172    869.0509    716.2398 307.5555688  +6.3997330     759.3234     1233.251     1790.961     89.03466     177.6462     355.1864      1.730     4.77     1138.497     62.60738     121.0397         7     1.067     0.664  41.65   0
       173     50.9051    711.4771 307.8956968  +6.3742845     1820.041     3602.213     3926.187     88.75246     177.7873      355.257      2.132     6.36     1158.321     62.60738     216.0502        27     1.722     1.154  58.16   0
       174    851.5568    712.1534 307.5629757  +6.4008361     1236.267     2109.014     2135.598     89.03466     177.6462     355.1158      1.843     4.77     1138.793     62.60738     211.2194        14     1.506     0.852  53.07   0
       175    115.6141    709.9493 307.8688611  +6.3770915     640.3096     1180.973     1258.962     88.32746     177.6462     354.9038      2.198     6.28     1158.425     62.60738     100.9449         6     1.258     0.880  70.40   0
       176    663.3862    699.8141 307.6415851  +6.3996435     4707.161     8834.807     9867.867     88.89367     177.2928     355.1158      2.002     4.54     1142.184     62.60738     502.3986        41     1.700     1.296  51.02   0
       177    610.5731    699.4305 307.6635445  +6.3980353     1112.958     2073.094     2475.374     88.46936     177.3635     355.0098      2.127     5.78      1144.58     62.60738     158.7826        19     1.366     1.122   6.57   0
       178    637.6182    695.8386 307.6524267  +6.4004229     1711.246     3200.853     3960.621     88.61102     177.5049     354.9391      1.984     6.23      1143.11     62.60738     182.7891        21     1.502     1.079  56.65   0
       179    126.6161    695.6747 307.8647721  +6.3833542       2736.9     5334.567     5778.277     88.46936     177.3635     355.0452      2.053     5.19     1157.789     62.60738     339.6819        31     1.719     1.224  53.83   0
       180   1000.2614    694.8201 307.5017609  +6.4129517     2439.344     3669.016     3374.703     88.61102     177.6462     355.0805      1.592     3.93     1134.717     62.60738     322.5248        21     1.301     0.992  64.24   0
       181    780.1929    691.8698 307.5933124  +6.4068271     16251.88     29277.31     30889.14     88.46935      177.222     355.0805      1.897     4.10     1139.325     62.60738     1826.634        55     1.651     1.348  44.10   0
       182    910.2921    691.6453 307.5392556  +6.4112625     3377.992     5641.309     6280.736     89.03466     177.5756     355.3277      1.877     3.55     1136.093     62.60738     450.8243        27     1.367     1.135  56.49   0
       183    479.0461    692.2012 307.7184434  +6.3966161     893.3452     1844.732     1970.669     88.32746     177.2928     354.6917      2.212     7.74     1148.479     62.60738     112.6093        14     1.621     1.035  40.80   0
       184    508.0249    691.8282 307.7064140  +6.3977408     707.9616     1323.429     1185.288     88.46935     177.4342     355.0452      1.893     6.12     1147.379     62.60738     107.1305         8     1.347     0.781   9.29   0
       185    253.9326    685.6985 307.8122058  +6.3917502     4275.639     8864.899     9536.385     89.03466     177.7873     355.1864      2.150     5.07     1155.881     62.60738     489.9441        40     1.677     1.383  58.67   0
       186    660.8044    684.6677 307.6431672  +6.4058101     5260.334     10281.34     11665.45     88.32746     177.2928     354.9391      2.071     4.60     1141.296     62.60738     599.0753        43     1.662     1.382  37.28   0
       187    643.4103    685.8347 307.6503562  +6.4047465     684.4568     1177.383     2123.661     88.46935     177.3635     354.9745      2.497     5.94     1142.229     62.60738     96.74231         7     1.109     0.896 -87.60   0
       188    356.1750    684.6470 307.7697560  +6.3956156     616.2571     1158.453      1157.22     88.61102     177.6462     355.0452      1.847     3.95     1153.371     62.60738     91.85107         6     1.091     0.408  14.19   0
       189    920.9810    677.5454 307.5352864  +6.4174400     1092.302     1568.152     1360.244     88.46935     177.6462     354.9745      1.574     4.61     1134.846     62.60738     133.7644        12     1.086     0.771  81.84   0
       190    732.4109    673.1382 307.6137979  +6.4129636     2987.213     5540.622     6145.797     88.46935     177.4342     354.9391      2.004     5.12     1138.296     62.60738     313.6772        32     1.596     1.272  44.11   0
       191    687.2603    673.1256 307.6325613  +6.4114596     691.3414     1287.682     891.1639     89.31597     177.6462     355.1511      1.941     4.44     1139.536     62.60738     113.8813         5     1.391     0.403  82.56   0
       192    998.8162    669.6141 307.5032061  +6.4233095     8439.304     13018.25     12890.62     88.75246     177.2928     355.1158      1.623     3.47     1133.212     62.60738     1152.525        35     1.466     1.091  45.36   0
       193    937.3362    670.1368 307.5287381  +6.4210440     2196.039     3697.394     3745.441     89.03466     177.6462     355.2217      1.809     4.92     1134.051     62.60738     295.7675        23     1.546     1.012  38.71   0
       194     18.2421    669.4711 307.9106896  +6.3905258     1603.971     3031.803      3690.04     88.89367     177.6462      355.257      2.078     7.77     1157.226     62.60738     187.1925        24     1.806     1.077  33.29   0
       195    537.5706    665.7797 307.6950132  +6.4094838     1478.753     2940.313     3220.903     88.46935     177.4342     355.0452      2.088     5.68     1145.237     62.60738     164.2976        24     1.424     1.209  68.81   0
       196     76.2917    664.7602 307.8867281  +6.3944237     18820.86     37245.54     40372.86     89.17543     177.5756      355.257      2.093     4.84     1156.841     62.60738     2181.999        63     1.844     1.458  53.67   0
       197    506.5987    663.0896 307.7079743  +6.4095571      911.907     1800.874     1893.846     88.18534     177.1512     354.9391      2.176     6.34         1146     62.60738     113.2693        13     1.509     0.748 -72.65   0
       198    927.3613    661.9816 307.5331569  +6.4240780      892.293     1567.537     1562.872     88.61102     177.4342     354.9391      1.940     6.59     1133.937     62.60738     125.4452        11     1.360     0.895 -20.71   0
       199    547.0418    660.0831 307.6912691  +6.4121526     774.8397      1572.64      1717.14     89.03466     177.6462     355.1158      2.339     4.49     1144.561     62.60738     114.3929         7     0.947     0.605 -12.96   0
       200    744.1974    655.0682 307.6095069  +6.4208173     3203.965     5912.877      6040.25     88.32746      177.222     354.9745      1.918     4.49     1137.262     62.60738     380.1365        32     1.526     1.265  45.36   0
       201    722.1027    656.8222 307.6186299  +6.4193548     2706.331     5148.022     5909.942     88.89367     177.3635     354.9745      2.047     4.83     1137.708     62.60738      302.757        28     1.427     1.274  23.82   0
       202    575.6567    653.1191 307.6796123  +6.4159854     2359.994     4595.619     4840.339     89.17543     177.6462     355.1864      2.041     4.95     1142.948     62.60738     263.1699        27     1.390     1.282 -41.33   0
       203    411.7524    653.8976 307.7476977  +6.4101734     854.9727     1928.821     1705.561     89.03466     177.5756      355.363      2.224     6.38     1149.893     62.60738     90.67578        10     1.176     0.971   8.99   0
       204    236.4845    652.9136 307.8205629  +6.4046984     1275.247     2670.007     3067.833     88.75246     177.8579      355.257      2.211     6.37     1154.119     62.60738     190.8477        20     1.415     1.202  52.55   0
       205   1016.9182    651.1121 307.4963032  +6.4315511     4718.721     7392.336     7432.833     88.75246     177.8579     354.0192      1.628     3.58     1131.169     62.60738      656.587        27     1.398     1.035  49.16  16
       206    982.4532    649.9967 307.5106636  +6.4308628      7498.04     12182.66     12590.71     88.32746     177.4342     354.7624      1.715     3.57     1132.021     62.60738     957.7883        34     1.468     1.155  52.17   0
       207    320.4670    651.8760 307.7856995  +6.4079461     1075.579     2088.063      1845.08     89.17542     177.7168     355.1511      2.193     6.67     1152.183     62.60738     118.5531        14     1.304     0.956  60.74   0
       208    702.5906    648.7479 307.6270098  +6.4220360     851.0325     1658.932     1911.676     88.46936     177.5049     354.9038      2.190     6.13     1137.615     62.60738     113.4529        12     1.493     0.706  -2.22   0
       209     94.5632    647.3227 307.8797253  +6.4022367     680.5054     1217.177     1435.621     88.89367     177.7168     355.1864      1.935     5.17     1155.588     62.60738     103.8641         5     1.067     0.707 -72.65   0
       210    141.0330    643.6530 307.8605396  +6.4053141     16414.74     33912.93     36481.98     88.89367     177.6462     355.1158      2.134     5.05     1154.909     62.60738      1858.24        62     1.856     1.482  50.87   0
       211    427.9263    644.5703 307.7412909  +6.4145661     1842.112     3553.452     4415.907     88.89367     177.6462     355.1511      2.186     5.63     1148.654     62.60738     230.3788        24     1.371     1.287 -28.25   0
       212    809.3687    644.0328 307.5827941  +6.4275501     973.8966     2010.643     2414.087     88.46935     177.3635     354.8685      2.248     4.10     1136.322     62.60738     148.1284         9     0.938     0.829 -60.49   0
       213    977.2556    632.8982 307.5133968  +6.4377484      6258.31     10787.34     12013.86     88.89367     177.6462     355.4335      1.883     4.15     1131.006     62.60738     690.1761        39     1.725     1.114  47.18   0
       214     22.5273    632.6456 307.9101550  +6.4058719      890.392     1581.395     724.0703     88.89368     177.7168     355.1864      1.777     6.79     1157.245     62.60738     122.5493        12     1.372     0.944  77.48   0
       215    570.9242    628.3821 307.6824114  +6.4260391     33186.85     68337.64     75066.35     88.46935     177.3635     355.1158      2.136     4.77     1141.442     62.60738     3347.371        81     1.848     1.570  48.51   0
       216    178.6265    625.3035 307.8455379  +6.4141525     1863.517     3809.179     4125.484     89.17543     177.3635     355.0805      2.181     6.86     1153.601     62.60738     193.1661        28     1.738     1.225  63.95   0
       217     71.6238    618.5455 307.8902306  +6.4133446      921.542     1879.289     2108.653     88.61102     177.6462     354.9745      2.354     6.09     1154.937     62.60738     113.7832        11     1.581     0.659  55.74   0
       218    468.2395    612.2145 307.7256284  +6.4292745     41932.86     89319.73     98742.78     88.61102     177.4342     354.9391      2.209     5.00     1145.831     62.60738     4294.921        94     1.916     1.662  49.59   0
       219     12.0765    613.9441 307.9151304  +6.4132402     1208.276     2498.244      2679.98     89.03466     177.6462     355.1158      2.226     7.60     1157.833     62.60738      177.489        18     1.644     1.107  48.57   0
       220    142.9821    607.2175 307.8609610  +6.4204206     1216.355     2545.385     2300.002     88.75246     177.2928     355.1158      2.098     6.35     1152.816     62.60738     162.5785        21     1.589     1.269  41.88   0
       221    313.7366    601.5845 307.7901930  +6.4284815     1376.609     3266.546     4206.193     88.46936     177.5049     355.0098      2.588     8.33     1147.807     62.60738     145.1106        24     1.490     1.413  67.26   0
       222    740.1469    595.5781 307.6131888  +6.4452413     4018.022     7602.406     8119.941     88.46935     177.6462     354.9745      2.014     4.53     1134.657     62.60738     483.8091        36     1.614     1.281  57.14   0
       223   1010.8555    591.2747 307.5008277  +6.4560520     840.2657     1292.466     1226.045     88.89367     177.5756     355.1158      1.932     5.33     1126.556     62.60738     114.1785         9     1.537     0.522  69.16   0
       224    793.7593    590.8392 307.5910671  +6.4489888     10726.09      19936.2     21496.61     88.75246     177.7168     355.0452      1.957     4.27     1134.029     62.60738     1190.902        49     1.676     1.364  45.78   0
       225    536.1507    590.2980 307.6981443  +6.4405970     924.9797      1935.33     1785.727     89.03466     177.5756      355.363      2.092     7.10      1140.83     62.60738     126.6831        13     1.231     1.148 -66.11   0
       226    617.6608    588.9544 307.6643152  +6.4438800     2036.681     4471.011     4665.059     88.89367     177.5756      355.257      2.231     5.73      1136.96     62.60738     226.6257        31     1.652     1.282  53.37   0
       227    934.7175    584.8513 307.5326862  +6.4561655     889.0174     1782.401     2218.022     89.03466     177.6462      355.257      2.055     5.06     1129.566     62.60738     123.9978         8     1.030     0.702  52.75   0
       228    230.6984    582.6284 307.8253405  +6.4335189      1024.43     1853.228     1924.995     89.17543     177.3635     355.1511      2.036     7.46     1150.714     62.60738     129.7181        15     1.397     1.115  46.29   0
       229    194.5484    582.6862 307.8403612  +6.4322806     483.9401     1228.752     2211.297     89.03466     177.5049      355.257      2.372     4.67     1151.204     62.60738     97.39478         6     1.602     0.387  55.26   0
       230    374.6666    582.8391 307.7655047  +6.4382643     509.7219     999.7302     1572.898     88.89367     177.5756      355.257      2.761     5.12     1145.095     62.60738     83.20374         5     1.072     0.692 -26.42   0
       231    869.6775    574.0659 307.5600787  +6.4584481     2301.676     4014.258     4514.107     89.17543     177.7168     355.1511      1.946     4.94     1131.342     62.60738     243.6305        23     1.446     1.079  59.77   0
       232    828.7110    571.4981 307.5771907  +6.4581406      2108.58     3529.737     4011.782     89.03466     178.1397     355.1864      1.879     4.63      1132.23     62.60738     261.1123        21     1.332     1.063  56.48   0
       233    256.7354    566.7824 307.8150554  +6.4409348     4684.075     10368.81     11259.77     88.61102     177.5756     354.9745      2.236     5.60     1147.975     62.60738     511.7485        48     1.829     1.494  50.78   0
       234    799.7054    567.6774 307.5893738  +6.4587493     2024.332      3955.49      5710.88     88.75246     177.8579      355.257      2.553     4.64     1132.782     62.60738     246.2452        25     1.346     1.238  -2.89   0
       235    809.1438    562.7488 307.5856166  +6.4610992     119406.6     225738.7     243596.2     89.03466     177.6462     355.1511      2.013     4.36     1132.287     62.60738     12634.75       119     1.836     1.540  53.39   0
       236    190.8426    561.2336 307.8426259  +6.4410120     36851.55     83400.38     94225.92     88.75246     177.6462     354.9745      2.291     5.38     1149.854     62.60738     4164.227       102     2.001     1.726  46.66   0
       237    114.8905    557.5333 307.8743140  +6.4399863      4074.53     8611.322     9418.825     89.17542     177.7873     355.2217      2.173     5.28     1151.616     62.60738     481.9581        40     1.690     1.453  45.93   0
       238    979.4407    554.4319 307.5151187  +6.4702149     1163.068      1980.14     2082.493     88.61102     177.5049     355.0452      1.789     5.94     1125.526     62.60738     163.7994        10     1.089     0.912   1.54   0
       239    845.6191    550.0408 307.5708839  +6.4675634     3474.964     6395.619     6925.712     88.61102     177.4342     354.8685      1.986     4.60     1130.416     62.60738     369.2529        33     1.657     1.193  54.58   0
       240    364.2116    548.3252 307.7710135  +6.4521616      10552.4     24209.17     26889.03     88.61102     177.2928     354.9745      2.287     5.59     1141.924     62.60738     1098.586        62     1.904     1.602  48.06   0
       241    166.5619    547.2770 307.8531877  +6.4459575     1220.874     2760.562     2806.941     88.89367     177.7168     355.1864      2.230     6.15     1149.177     62.60738      146.286        19     1.359     1.182 -72.99   0
       242    799.6244    543.3929 307.5902229  +6.4687720     4480.955     8264.374     8795.116     88.46936     177.5049     355.0098      1.986     4.50     1131.495     62.60738     462.1777        35     1.580     1.249  58.20   0
       243    530.6555    543.2623 307.7020117  +6.4598305     4303.393     9140.572     9617.629     89.17543     177.6462     355.1864      2.130     5.39     1138.411     62.60738     416.2805        41     1.691     1.457  48.08   0
       244    102.9435    544.9521 307.8797042  +6.4447782     685.5429     1311.833       1007.6     89.03466     177.6462     355.2924      1.950     5.09     1151.815     62.60738     110.7188         5     1.183     0.619 -14.92   0
       245    387.8097    541.2761 307.7614442  +6.4558631     615.9777     902.2352     816.3357     88.61102     177.1512     354.9745      1.380     3.46     1141.308     62.60738     102.3839         5     0.981     0.353  44.96   0
       246    177.7239    536.4179 307.8489160  +6.4508154     4227.063      9177.67     9910.471     88.46936     177.3635     355.1158      2.247     5.10     1148.333     62.60738     478.1174        45     1.797     1.444  61.54   0
       247    816.4270    535.5472 307.5835030  +6.4725721     1053.285     2030.322     2094.939     88.75246     177.7873     355.1158      2.065     8.03      1130.62     62.60738     130.9474        16     1.587     1.200 -65.71   0
       248    575.5486    536.2393 307.6835906  +6.4642328     1499.056     3530.437     3039.141     88.89367     177.6462     355.1864      2.318     6.49     1136.058     62.60738     171.2931        30     1.635     1.477  64.95   0
       249    272.8431    532.9159 307.8095047  +6.4554564     52832.05       121921     136429.3     89.03466     177.5756     355.1511      2.311     5.52     1144.304     62.60738     5400.951       106     1.997     1.719  51.62   0
       250    256.2141    529.8152 307.8165201  +6.4561780     646.1098     1493.428      2097.99     88.75246     177.2928     355.1158      2.393     4.27     1145.118     62.60738     81.24573         6     1.104     0.471  59.53   2
       251     49.3042    535.2231 307.9023239  +6.4469899     3395.801     7365.943     7506.736     89.03466     177.3635     355.0098      2.187     5.82     1152.252     62.60738     363.1508        37     1.767     1.341  61.79   0
       252    972.0684    526.5231 307.5191184  +6.4814909     1369.549     2297.204     2610.818     89.17542     177.7873     355.1511      1.859     5.96     1123.874     62.60738     172.3029        18     1.478     0.992  70.73   0
       253    795.9042    525.2148 307.5923795  +6.4761523     11926.83     22799.48     24821.54     88.75246     177.3635     354.9391      2.009     4.47     1130.749     62.60738     1300.485        53     1.714     1.387  54.70   0
       254    499.5536    523.6630 307.7155976  +6.4668798     25867.42     60346.49     68980.92     88.89367     177.5049      355.257      2.384     5.45     1137.875     62.60738     2484.339        92     2.049     1.743  42.06   0
       255    212.0056    520.3403 307.8352124  +6.4586044     1077.436     2497.604     2275.047     88.46935     177.5049     354.9391      2.247     6.81     1146.478     62.60738     141.2439        13     1.370     0.951 -78.12   0
       256     47.5755    520.5264 307.9035395  +6.4529986     1060.226     2126.849     2466.521     88.61102     177.4342     355.1158      2.220     7.26     1151.414     62.60738     138.6292        15     1.286     1.148   5.09   0
       257    659.3893    518.7766 307.6493333  +6.4742473     1948.196     4242.963     4420.659     88.61102     177.4342     355.0805      2.201     5.69     1132.931     62.60738     208.7725        32     1.678     1.313  31.43   0
       258    670.5620    519.1705 307.6446766  +6.4744583     772.3372      1343.05      1435.33     88.61102     177.3635     355.0452      1.675     6.39      1132.68     62.60738     139.9514         8     1.392     0.825 -33.82   0
       259    722.1486    516.6074 307.6233227  +6.4772412     782.5111     1547.469     2078.924     88.46935     177.4342     354.7624      2.299     4.26     1131.893     62.60738     131.6086         7     1.073     0.483   4.46   0
       260    397.6506    514.2627 307.7582652  +6.4673448      1019.99     2146.286     2054.999     89.03466     177.5756      355.257      2.063     8.13     1139.589     62.60738     122.5408        18     1.485     1.244  22.32   0
       261    328.8282    512.5561 307.7869251  +6.4657405     2217.021      4946.07     5533.721     88.61102     177.7168     355.0805      2.241     6.89     1140.333     62.60738     250.5308        34     1.773     1.338  51.37   0
       262    143.9291    511.2906 307.8638096  +6.4600523     16415.43     36714.71     40832.98     88.89367     177.9284     355.1864      2.261     5.29     1147.918     62.60738     1807.292        67     1.902     1.592  50.75   0
       263    871.7776    510.9145 307.5613251  +6.4845891     1138.971         2169     1999.253     89.03466     177.4342     355.0805      1.931     5.05     1127.016     62.60738     199.2744        15     1.262     1.224  67.37   0
       264    109.2763    509.5403 307.8782698  +6.4596096     1847.532      4201.88     4249.629     89.17543     177.7168     355.1511      2.234     6.49     1149.738     62.60738     194.6954        32     1.722     1.367  68.47   0
       265    969.4124    505.6670 307.5209215  +6.4900124      4410.28     7414.895     7503.466     88.46936     177.4342     355.0805      1.803     4.06     1122.569     62.60738     546.3865        31     1.498     1.147  54.61   0
       266    509.4569    511.6031 307.7118880  +6.4721901     1202.885     2587.009     2537.234     88.32747     177.4342     354.8331      2.265     5.96       1136.8     62.60738     149.7556        13     1.562     0.641  48.85   2
       267      8.2841    495.7170 307.9207076  +6.4619176      16965.8     35911.11     40168.64     88.75246     177.9284     354.7624      2.169     5.15     1150.052     62.60738     2001.653        66     1.908     1.524  57.98  16
       268    440.9056    492.3700 307.7410263  +6.4778328     26194.61     59390.98     66101.29     89.17543     177.3635     355.0805      2.291     5.40     1137.196     62.60738     2519.359        77     1.917     1.653  49.20   0
       269    648.9475    492.0141 307.6545732  +6.4849463      7868.86     16959.22     18910.04     88.32746     177.5756     354.9038      2.226     5.04     1132.137     62.60738     772.4128        56     1.785     1.562  51.88   0
       270    206.1254    490.0323 307.8386800  +6.4709184     11799.92     27522.15      31451.2     88.89367     177.7168     355.1511      2.353     5.52     1144.045     62.60738     1284.081        69     2.005     1.628  51.28   0
       271    290.5652    491.5621 307.8035355  +6.4731229     550.6645     1217.776      1341.46     88.75246     177.5049     354.9391      2.765     5.24     1139.046     62.60738     76.48718         5     1.082     0.716  23.96   0
       272    172.3192    491.3744 307.8526842  +6.4692283     1182.616     2251.643     1950.365     88.89367     177.4342     355.1864      1.955     6.50     1145.373     62.60738     139.4088        18     1.298     1.168 -37.74   0
       273    983.0453    490.4144 307.5157666  +6.4967637     942.1068     1962.687     2480.797     88.32746     177.4342     354.9391      2.436     6.12     1120.885     62.60738     129.4772        11     1.233     0.854  13.21   0
       274    570.6222    488.7848 307.6872353  +6.4836583     1662.178     3906.914     4239.661     88.75246     177.4342     355.1158      2.311     6.86     1134.053     62.60738     181.1895        30     1.590     1.366 -88.67   0
       275    944.5418    485.9875 307.5319184  +6.4973074         3999     6796.762     7423.188     88.32746     177.5756     354.8685      1.847     3.97     1122.325     62.60738     446.9012        32     1.519     1.248  68.73   0
       276    822.6290    489.3141 307.5824776  +6.4918657     600.3766     989.1546     1144.518     89.17543     177.2928     355.0098      1.968     3.89     1127.936     62.60738     85.09949         5     1.068     0.406 -74.64   0
       277    617.6910    484.2326 307.6678258  +6.4871130     4206.156     8923.226     9952.825     89.17543     177.5049     355.2217      2.201     4.98     1132.756     62.60738     424.6576        42     1.605     1.545  48.01   0
       278    105.5167    484.7062 307.8806720  +6.4697348     711.7345     1416.133     1037.464     88.75246     177.9989     355.3277      1.931     4.85      1148.63     62.60738     126.0203         7     0.914     0.730  83.66   0
       279    967.0326    477.9253 307.5228408  +6.5013858     2879.255     4876.302     5158.665     88.89367     177.6462     355.1511      1.788     4.41     1120.827     62.60738     349.9634        24     1.401     1.070  53.01   0
       280    529.9372    475.6260 307.7045877  +6.4877283      4397.96     10111.84     12275.83     88.61102     177.5756     355.1158      2.376     5.55     1133.831     62.60738     438.5148        46     1.822     1.486  53.64   0
       281    375.9122    475.9382 307.7685921  +6.4824368     1652.567     3769.902     3889.437     89.03466     177.8579      355.257      2.258     6.21     1137.329     62.60738      184.614        27     1.556     1.309  83.87   0
       282    886.3908    471.2565 307.5565823  +6.5014489     2437.006     4558.167     5659.134     88.32746     177.5756     354.8685      2.155     5.07     1123.985     62.60738      316.989        31     1.571     1.341  59.11   0
       283    893.9980    465.8883 307.5536006  +6.5039189      1659.63     2755.032     2683.078     88.32746      177.222     354.9038      1.739     5.65     1123.338     62.60738      198.046        17     1.235     1.045  35.79   0
       284    933.3219    465.4453 307.5372708  +6.5054137     1148.468     1951.201     1997.546     88.89367     177.6462     355.1864      1.801     4.77     1121.589     62.60738     168.8687        14     1.285     0.866 -10.26   0
       285    717.8291    461.8860 307.6269572  +6.4996874     2070.695     4147.708     4571.191     89.17542     177.2928     355.0098      2.112     5.12     1129.117     62.60738      254.665        29     1.500     1.299  72.81   0
       286     79.8487    461.1812 307.8921350  +6.4785828     1214.123      2830.08     3192.488     88.46935     177.7168     354.9391      2.355     8.22     1147.912     62.60738     138.0852        21     1.575     1.198  64.48   0
       287    388.6602    460.1741 307.7638255  +6.4893721     2259.239     5204.748     5291.556     88.61102     177.6462     355.0452      2.203     6.52      1135.74     62.60738     229.5214        33     1.615     1.435  47.90   0
       288    616.3729    456.5544 307.6693049  +6.4984952     6386.009     13850.82     15345.81     88.46936     177.7168     355.0805      2.203     5.26     1130.818     62.60738     611.1227        47     1.793     1.447  48.58   0
       289    779.2431    452.8188 307.6017360  +6.5054830     11432.41     23317.27     26384.75     88.46935     177.5049     354.9391      2.164     4.88     1127.379     62.60738     1155.462        65     1.962     1.664 -57.63   0
       290    299.0094    453.5281 307.8013098  +6.4891075     1512.083     3782.726     4107.668     88.46935      177.222     354.9745      2.365     7.88     1136.274     62.60738     162.4525        30     1.717     1.354  40.92   0
       291    382.2042    450.1834 307.7668457  +6.4932799     1057.195     2382.046     3520.928     88.61102      177.222     355.0098      2.743     7.72     1135.062     62.60738     182.3788        17     1.347     1.238  59.62   0
       292    807.7002    450.1133 307.5899990  +6.5075504      863.315     1618.114     1507.884     89.03466     178.2101      355.257      1.917     5.29     1126.367     62.60738     114.2001         8     1.146     0.691 -13.46   0
       293    964.3982    447.8191 307.5249452  +6.5137268     1598.553     2836.484     2901.599     88.61102     177.1512     354.8685      1.883     5.29     1119.259     62.60738     206.5692        21     1.476     1.068  61.51   0
       294    116.7048    445.2167 307.8773576  +6.4864128     2755.367     6185.808     7358.829     88.89367     177.4342     355.0098      2.394     6.08     1145.753     62.60738      317.094        40     1.844     1.450  48.30   0
       295   1018.1849    442.7967 307.5027571  +6.5175933     3602.023     6564.854     7523.656     88.61102      177.222     345.0116      2.046     4.70     1116.837     62.60738     390.8828        35     1.654     1.258  54.48  16
       296    754.6246    444.0273 307.6122638  +6.5082898     1589.116     3216.834     3171.933     88.46935     177.4342     355.0098      2.103     5.30     1127.389     62.60738     184.8934        24     1.528     1.151  66.11   0
       297    274.4616    442.2154 307.8118941  +6.4929533     911.0347     2063.298     2561.999     88.46935     177.5756     354.9745      2.457     7.42     1136.528     62.60738     114.5748        15     1.377     1.118 -87.61   0
       298    351.9378    441.6537 307.7797127  +6.4957858     1228.937     1987.969     2306.264     89.03466     177.5756     355.1511      1.724     4.95     1135.441     62.60738     175.7922        10     1.487     0.466  28.84   3
       299    353.0266    438.8499 307.7793547  +6.4969797      1537.43     2931.489     3335.776     88.61102     177.7168     355.1158      1.934     6.76     1135.247     62.60738     182.4796        19     1.536     0.944  36.24   3
       300    708.2773    437.2944 307.6317539  +6.5095202      1073.24     2092.493      2162.98     88.75246     177.8579      355.257      1.937     7.29     1127.723     62.60738     110.4174        15     1.380     1.079  60.02   0
       301    472.2375    429.1521 307.7301346  +6.5049807     815.3538     1717.787     2226.546     88.89367     177.6462     355.0805      2.129     6.53     1129.568     62.60738     102.2482        12     1.485     0.806 -17.38   0
       302    834.4517    427.7498 307.5796308  +6.5176761     1126.792     2150.358     2338.556     89.17543     177.5049     355.1158      1.951     6.36      1123.81     62.60738     134.6161        14     1.203     0.943  66.92   0
       303    820.1867    426.8863 307.5855890  +6.5175562     1265.942     2272.407     1903.727     88.61102     177.4342     355.0805      1.919     4.52     1124.406     62.60738      154.924        13     1.192     0.799  68.61   0
       304    717.4968    424.7431 307.6283438  +6.5150099     10040.45     21173.33     23636.79     88.89367     177.5756     355.4335      2.211     4.98     1126.897     62.60738     1056.672        60     1.873     1.514  48.58   0
       305    638.7797    420.7715 307.6611957  +6.5140170     1648.569      3950.08     4903.797     88.46935     177.4342     355.1158      2.457     6.97     1127.597     62.60738     190.9626        30     1.796     1.394  69.82   0
       306    611.0012    416.0461 307.6729006  +6.5150382     9243.327     22906.55     29431.31     88.32746     177.2928     354.6917      2.638     6.98     1127.602     62.60738     924.6427        84     2.656     1.591  36.88   0
       307    942.8131    414.5877 307.5350316  +6.5267260      2894.52     5426.159     5461.691     88.89367     177.2928     355.1158      1.948     4.42      1118.12     62.60738     332.6096        32     1.539     1.256  52.90   0
       308   1002.9648    415.5908 307.5099953  +6.5283175     11482.89     11743.33     11792.24     88.46935     177.4342     354.9391      0.629     0.39      1116.06     62.60738     6551.128        11     0.679     0.362 -88.83   0
       309    381.9485    410.7887 307.7682806  +6.5095342     16344.51     39812.96     44364.83     88.32746     177.5049     354.9038      2.348     5.71     1131.805     62.60738     1650.003        72     1.956     1.668  51.28   0
       310    128.3303    410.2928 307.8737068  +6.5012207     1354.011     3045.824     3451.107     89.03466     177.7873     355.1864      2.215     8.61     1143.325     62.60738     151.7439        25     1.686     1.227  59.18   0
       311    897.8964    409.4483 307.5538740  +6.5273493     1233.731     2521.858     2789.334     88.89367     177.5049      355.363      2.324     8.12     1119.786     62.60738     178.2736        21     1.920     1.030  39.08   0
       312    911.4982    405.0048 307.5483694  +6.5296375     3952.271     7309.796     7740.204     88.75246     177.2928     354.7978      1.964     4.11     1119.026     62.60738     487.7799        36     1.570     1.269  33.28   0
       313     61.6393    406.1926 307.9015631  +6.5006698     923.3091     2179.946     3155.303     88.32746     177.3635     354.8331      2.775     6.30     1145.663     62.60738     122.4225        11     1.158     0.964 -69.80   0
       314    239.5766    401.4153 307.8277707  +6.5086246      8235.45     19927.02     22333.02     88.75246     177.4342     355.0805      2.383     5.83     1136.134     62.60738     851.6594        62     1.973     1.623  56.73   0
       315    962.7993    392.9532 307.5274496  +6.5363240     756.7093     1492.114     1136.691     88.32746      177.222     354.6917      1.588     4.09     1116.018     62.60738      114.894         6     1.127     0.423 -61.84   0
       316    139.9210    390.0755 307.8695730  +6.5099564     3026.692     7142.801     7834.735     89.31597     177.9284     355.2924      2.330     5.91     1141.853     62.60738     312.4608        42     1.840     1.445  60.09   0
       317    352.5609    390.9578 307.7811640  +6.5167348     890.8645     1908.508     1174.289     88.75246     177.7168     355.0452      1.943     8.21     1131.616     62.60738     120.1453        15     1.583     1.229   8.57   0
       318    244.9756    389.0967 307.8259428  +6.5138912     858.6423     1825.693      2058.41     89.17543     177.3635     355.0452      2.261     7.70     1135.219     62.60738     96.50012        15     1.717     0.967  71.42   0
       319    162.0212    386.2526 307.8605169  +6.5122776     1595.511     3408.024     3561.278     88.46935     177.6462     354.9745      2.196     7.40     1140.638     62.60738     184.4883        26     1.675     1.275  66.83   0
       320    558.1407    384.2330 307.6959428  +6.5264019     605.1745     1370.437     1480.761     88.89367     177.7168     355.1511      1.914     4.93     1124.718     62.60738     86.80627         5     1.514     0.454  23.13   0
       321    385.3847    380.8636 307.7678617  +6.5220031     1303.488     2859.365     2519.681     88.46935     177.5049     355.0452      2.183     8.17     1129.297     62.60738     156.1672        26     1.780     1.235  74.64   0
       322    973.6852    380.1033 307.5233556  +6.5419918     815.9644      1518.36     2136.462     89.03466     178.0693      355.257      2.108     4.08     1114.535     62.60738     140.0652         8     1.128     0.629 -80.68   0
       323      4.0672    381.2181 307.9263359  +6.5090413      578.085     1126.013      1354.67     88.61102     175.6581      312.345      2.147     4.23     1147.078     62.60738     107.7838         5     1.368     0.372  -7.80  16
       324    439.1940    374.2166 307.7457203  +6.5265516     4283.362     10266.29     11382.82     88.61102     177.3635     355.0098      2.350     5.72     1126.323     62.60738      414.131        49     1.834     1.596  64.86   0
       325     35.6869    375.3109 307.9133942  +6.5125444     2065.786     4717.245     5827.157     88.75246     178.1397     355.3277      2.474     6.11     1145.663     62.60738     271.2874        34     1.650     1.504  57.33   0
       326    779.6699    371.3807 307.6042945  +6.5391172      8892.46     18027.16     20043.96     88.61102     177.5049     355.1158      2.120     4.83     1120.839     62.60738     943.8754        54     1.776     1.472  54.43   0
       327    771.8884    373.2055 307.6074678  +6.5381039     1281.915     2638.861     3535.793     88.46935     177.2928     354.9038      2.435     7.18     1121.261     62.60738     158.2477        17     1.225     1.179  15.77   1
       328   1023.0349    366.3881 307.5033019  +6.5492989     2942.697     4321.711     4468.215     84.85091     151.1732     278.6415      1.540     3.92     1110.105     62.60738     416.2227        19     1.396     0.809  74.74  24
       329    344.4079    368.6133 307.7853066  +6.5256854     552.6705     1074.536     1507.353     88.61102     177.3635     355.0452      1.434     3.48     1130.092     62.60738     78.95654         5     1.077     0.325  20.70   0
       330    487.5986    357.7672 307.7261553  +6.5349646     1811.187     4054.521     4164.113     88.18535     177.4342     354.9038      2.196     6.77     1123.003     62.60738     182.0741        27     1.473     1.356 -65.69   0
       331    459.5651    358.4337 307.7377850  +6.5337500     1362.034     3137.169     2944.632     88.75246     177.3635     354.9038      2.273     8.19     1124.101     62.60738     152.4897        25     1.511     1.281  49.54   0
       332    845.0342    354.2581 307.5776996  +6.5483690     24367.85     48026.49     52644.51     88.89367     177.6462     355.1511      2.091     4.49     1118.366     62.60738     2675.781        72     1.813     1.524  63.03   0
       333    616.8111    346.4308 307.6728284  +6.5439716     1575.852     3910.654     4470.655     88.46935     177.3635     355.0452      2.412     7.03     1120.449     62.60738     159.7737        33     1.639     1.475  64.71   0
       334     26.7075    346.9446 307.9180864  +6.5239519     665.5249     1230.518     1023.142     88.89367     177.5049      355.363      1.722     4.28     1145.292     62.60738     102.9534         5     1.019     0.513  52.74   0
       335    701.5039    340.2967 307.6378305  +6.5493370     52808.92     111412.5     122927.6     89.03466     178.2805     355.0098      2.184     5.01      1119.74     62.60738     5480.333       103     1.935     1.648  48.01   0
       336    859.3215    341.4625 307.5721903  +6.5541284     933.9868     1582.158     1545.802     89.31597     177.7168     355.1864      1.904     5.23     1117.417     62.60738     129.5503         7     1.098     0.705  85.38   0
       337     81.1437    340.0745 307.8956935  +6.5286201     788.3576     1735.239      1746.06     88.89367     177.5049     355.1158      2.068     7.69     1142.568     62.60738     98.18933        13     1.433     1.156  68.77   0
       338    563.8629    336.8518 307.6951597  +6.5461535     1688.309     3914.406      3946.78     89.03466     177.5756     355.1511      2.274     6.61     1120.376     62.60738     196.3469        31     1.757     1.364  50.52   0
       339    101.3591    336.1064 307.8874256  +6.5309383     3667.516     8761.578     9321.128     89.17543     177.5756     355.2924      2.320     6.41     1141.598     62.60738     371.5077        43     1.817     1.508  63.25   0
       340    942.5817    338.1881 307.5376904  +6.5582585     529.4368     913.9546     804.2119     88.61102     177.2928     355.0805      1.726     3.44     1113.809     62.60738     74.81274         5     0.775     0.442 -69.84   0
       341    547.1905    333.2347 307.7022116  +6.5470885      4414.92     10194.96     11230.57     88.46935     177.4342     354.9745      2.285     5.73     1120.275     62.60738     427.3413        47     1.805     1.518  65.75   0
       342    276.5308    331.1613 307.8147837  +6.5388675      1499.54     3787.325     4068.618     88.89367     177.6462     355.2924      2.395     8.54     1131.051     62.60738      165.361        33     1.991     1.402  88.67   0
       343    410.1721    328.4667 307.7593259  +6.5444648     14723.03     35759.39     40640.36     88.61102     177.5756     355.1511      2.395     5.75     1124.058     62.60738     1431.661        77     2.000     1.712  52.41   0
       344    517.8724    328.7019 307.7145509  +6.5479777     759.5142     1599.137     1518.541     88.75246     177.7873     355.2217      2.112     6.23     1120.265     62.60738     109.7004         9     1.179     0.924   5.14   0
       345    389.4146    325.9727 307.7680381  +6.5447982     520.1558     1511.846     2603.612     88.61102     177.4342     355.0805      2.027     3.49     1125.093     62.60738     83.09851         5     1.467     0.240 -72.70   0
       346    489.7019    324.6081 307.7263983  +6.5487238      736.644     1555.373     2139.303     88.75246      177.222     354.9391      2.292     5.36     1120.234     62.60738      110.411         7     1.380     0.588 -34.69   0
       347    805.1454    321.7234 307.5953732  +6.5604682     657.0449     1131.645     1331.914     89.17543     177.6462     355.1864      1.979     5.23      1117.18     62.60738       84.771         7     1.272     0.607  81.29   0
       348    499.3035    318.8951 307.7225997  +6.5514040     5228.412     12239.69     13855.12     89.03466     178.2805     355.0098      2.344     5.70      1119.64     62.60738     493.0663        49     1.800     1.577  56.62   0
       349    768.3222    317.5251 307.6108211  +6.5609711     2075.147     4264.399     4444.254     89.31597     177.9284      355.257      2.141     5.27     1117.599     62.60738       263.76        26     1.487     1.230  43.67   0
       350    924.7990    317.8367 307.5457652  +6.5660670     721.4158     1380.035     1223.793     88.04299     177.4342     354.9745      1.858     6.85     1113.104     62.60738     115.3201        10     1.392     0.946 -39.94   0
       351    326.2956    315.1216 307.7946402  +6.5471597      681.215     1122.477     676.3619     88.75246     177.9284     355.2217      1.758     5.22     1127.946     62.60738     107.1362         6     1.081     0.712  65.72   0
       352    389.1792    303.0343 307.7689096  +6.5542596     4182.757     10368.63     11724.92     88.46935     177.4342     354.9391      2.374     6.21     1123.514     62.60738     417.4641        47     1.927     1.557  52.63   0
       353    245.1111    303.6632 307.8287721  +6.5491637     1371.226     2988.152     3488.684     88.89367     177.7873     355.2217      2.336     6.28     1131.273     62.60738     183.2146        20     1.434     1.184  29.84   0
       354    756.9851    298.8378 307.6161618  +6.5683069     36975.14      76005.9     83261.05     88.75246     177.4342     354.9038      2.142     4.78      1116.63     62.60738     3674.484        85     1.878     1.566  52.75   0
       355    742.6477    302.3591 307.6220033  +6.5663740     704.9164      1259.61     1758.874     88.89367     177.6462     355.0452      2.112     5.96     1116.916     62.60738     115.3442         8     1.272     0.786  81.32   0
       356    429.0568    298.3159 307.7524929  +6.5575449     1427.923     3117.512     3049.501     89.03466     177.6462     355.2924      2.195     7.00     1120.499     62.60738     175.7924        24     1.600     1.238 -84.83   0
       357    991.9902    296.0803 307.5185639  +6.5772894     1315.458     2511.352      2549.14     88.61102      177.222     355.0452      1.945     5.52     1107.982     62.60738     190.8531        13     1.256     0.886  44.33   0
       358    932.8080    294.8984 307.5432055  +6.5758037     1846.526     3159.549     2957.885     88.75246      177.222     354.9391      1.824     4.97     1110.602     62.60738     221.2097        26     1.596     1.078  54.43   0
       359    574.5909    296.1396 307.6920711  +6.5633196     721.1674     1416.106     1594.775     88.32746     177.5049     354.9038      1.888     4.78     1116.966     62.60738     112.2241         7     1.412     0.459 -82.37   0
       360    466.5825    294.9318 307.7370085  +6.5602000     759.5019      1587.19      2030.59     88.46935     177.5756     355.0805      2.484     5.23     1118.476     62.60738     115.7266         8     1.200     0.644 -45.75   0
       361    414.9883    293.9939 307.7584865  +6.5588573     1082.241     2827.204     3231.631     88.61102     177.4342     355.0805      2.392     8.56     1120.867     62.60738     148.3578        19     1.569     1.305  82.98   0
       362    835.9456    287.7227 307.5837119  +6.5755333     744.1479     1489.223     1123.406     89.17543     177.6462     355.1864      2.027     5.90     1114.601     62.60738     124.8361         9     1.587     0.618  69.64   0
       363    192.0309    285.3526 307.8514540  +6.5549389     1274.565     3058.193     3432.332     88.61102     177.6462     355.0805      2.447     8.65     1134.162     62.60738     175.9309        22     1.781     1.174  52.96   0
       364    755.4442    283.3656 307.6173223  +6.5746427     4167.948     8405.499     9129.475     88.75246     177.5756     355.0452      2.096     4.81     1115.563     62.60738      462.734        39     1.777     1.297  57.43   0
       365     88.3998    283.0664 307.8946062  +6.5523975     775.4368     1695.354     1845.226     88.18534     177.0804     354.8685      2.209     7.73     1141.245     62.60738     100.8491        13     1.543     1.083 -27.11   0
       366    771.8707    281.3773 307.6105607  +6.5760125     1831.549     3938.694     4264.996     88.61102     177.5049     355.1511      2.146     6.36     1115.382     62.60738     200.8195        27     1.654     1.224  64.45   0
       367     75.3760    276.8279 307.9002307  +6.5545345     876.3904     1905.266     2476.958     88.46935     177.5049     355.0098      2.482     7.54     1141.458     62.60738     109.8252        13     1.653     0.962  79.14   0
       368    360.9400    276.4010 307.7815464  +6.5643069     990.1005     2370.429     3027.056     88.32746     177.4342     354.8331      2.685     7.57     1123.831     62.60738     107.0563        15     1.437     1.115  39.84   0
       369    487.9372    272.2169 307.7288974  +6.5702928     1083.839     2935.979     3404.338     88.46935     177.5756     355.0098      2.458     9.36     1115.575     62.60738     120.2917        26     1.630     1.501  67.58   0
       370   1009.9730    272.2090 307.5118887  +6.5877437     5045.601     8786.442     9357.758     88.61102     177.4342     355.0452      1.841     3.77     1105.141     62.60738     663.3412        34     1.647     1.097  47.31   0
       371    250.8411    267.9785 307.8275957  +6.5640873     3490.292     8489.674     10005.68     88.61102     177.4342     354.9745      2.471     6.17     1130.204     62.60738     365.6908        46     1.824     1.571  57.82   0
       372    385.4305    258.7780 307.7719608  +6.5724036      1170.72     2260.093     2203.834     88.46935     177.4342     355.0098      1.989     6.76     1120.967     62.60738     146.1263        18     1.338     1.239 -19.74   0
       373    971.9205    257.3998 307.5282042  +6.5925888     933.5273     1861.403     2200.586     88.18534     176.9387     354.9038      2.303     6.50     1106.105     62.60738     119.7787        12     1.478     0.802  76.06   0
       374    156.2456    254.7021 307.8673648  +6.5663886     830.4084     1678.016     2171.622     89.03466     177.5049     355.3983      1.991     5.76     1136.695     62.60738     116.3916        10     1.518     0.616  84.54   2
       375    153.5618    254.5538 307.8684854  +6.5663596      774.468     1630.711     1723.172     88.75246     177.5756     355.0452      1.883     3.97     1136.826     62.60738     91.21887         5     1.063     0.425  74.78   3
       376    307.8217    254.5809 307.8043628  +6.5715316     627.5493     1175.858     814.5267     88.75246     177.5049     355.1158      1.974     4.53     1126.688     62.60738     96.42615         5     1.330     0.439  30.11   0
       377    564.5512    250.3983 307.6977847  +6.5818664     1398.499     2938.838     2484.189     88.32747      177.222     354.7271      2.029     7.67       1112.9     62.60738     153.4493        24     1.484     1.232  47.96   0
       378    727.9945    247.6405 307.6299341  +6.5884735      3464.56     7200.474     7869.158     88.18534     177.2928     354.8685      2.150     5.06     1112.863     62.60738     375.5214        41     1.708     1.485  38.36   0
       379    907.9539    248.8721 307.5550820  +6.5939755     1130.835     2334.063     2239.329     89.03466     177.7168     355.1864      2.205     6.40     1109.048     62.60738     142.3209        19     1.479     1.114  35.43   0
       380    668.5397    247.3979 307.6546578  +6.5865854     1377.172      3222.09     3513.831     88.32747     177.2928     354.8685      2.293     8.52     1112.987     62.60738     167.9574        27     1.672     1.331  39.94   0
       381    965.7470    247.9338 307.5310880  +6.5962908     599.2637     927.6138     909.2067     89.03466     177.5756     355.1158      1.534     3.81     1105.879     62.60738     107.5276         5     1.169     0.357 -77.09   0
       382    923.7774    240.1881 307.5487953  +6.5980885     841.1456      1535.03      1122.09     88.61102     177.4342     355.0805      1.676     4.37     1108.259     62.60738     127.0616         7     1.059     0.512  62.29   0
       383    227.5636    233.1807 307.8384472  +6.5776701     1324.654     3150.046     3350.175     88.46935     177.4342     354.9391      2.378     8.70     1130.948     62.60738     127.9751        23     1.708     1.236  40.41   0
       384    760.8276    231.8754 307.6168151  +6.5960791     1145.617     2394.271     3048.514     88.89367     177.6462     355.1511      2.328     7.79     1111.547     62.60738     140.3966        19     1.435     1.183  50.49   0
       385    869.8840    231.5706 307.5714890  +6.5998475     1398.595     2465.352     3205.063     89.03466     177.3635     355.0805      1.965     5.17     1108.501     62.60738     161.8364        16     1.248     0.933  43.86   0
       386    461.5277    222.6877 307.7415450  +6.5898542     13419.38     32342.26     36912.66     89.17543     177.9284     355.1864      2.427     5.92     1112.727     62.60738     1322.287        83     2.174     1.931 -41.45   0
       387    787.2719    221.8420 307.6061590  +6.6011048     9481.342     19290.14     22097.22     88.89367     177.6462     355.2217      2.180     4.66     1110.858     62.60738     1034.975        56     1.757     1.567  39.52   0
       388    725.9604    217.8945 307.6317798  +6.6006853     570.8177     1251.075     1066.857     89.17543     177.5756     355.2924      1.946     3.88     1110.771     62.60738     88.80396         5     1.283     0.336 -63.59   0
       389    149.9355    216.2207 307.8712889  +6.5820618     1393.932     3243.951     3030.125     88.61102     177.6462     355.0452      2.286     7.83     1136.622     62.60738     148.9814        25     1.577     1.333  64.71   0
       390    923.7493    212.5456 307.5497346  +6.6094991     1218.236     2032.795     2095.621     89.03466     177.6462     355.2217      1.858     6.40      1106.58     62.60738     147.7491        14     1.210     1.038  27.57   0
       391    585.3511    208.6463 307.6905441  +6.5997990      2910.85     6439.008     7350.426     89.03466     177.5049     355.2217      2.290     5.52      1109.78     62.60738      286.973        37     1.649     1.446  54.40   0
       392    548.4569    208.4156 307.7058891  +6.5986587     1309.016     3085.397     3121.955     88.32747     177.5756     354.9038      2.251     7.49     1110.138     62.60738     148.6598        25     1.646     1.301  62.59   0
       393    389.6010    207.0154 307.7719733  +6.5939119     900.9652     2331.197     2649.761     88.61102     177.2928     354.9391      2.624     6.65     1117.383     62.60738     118.5315        11     1.339     1.172  46.55   2
       394    946.3026    205.4301 307.5405974  +6.6131890     2194.036     3856.851     3868.731     89.17543     177.3635     355.2217      1.898     4.99     1104.658     62.60738     250.5751        28     1.591     1.168  45.89   0
       395    892.3524    204.9808 307.5630411  +6.6115744     8563.571     15799.79      16891.4     88.46935     177.6462     354.9745      1.948     4.22     1106.687     62.60738     1037.629        45     1.705     1.292  52.27   0
       396     18.7076    201.8860 307.9263223  +6.5835631     16042.17     36587.58     41443.28     88.89367     178.1397     355.2924      2.306     5.53     1142.912     62.60738     1806.925        71     1.931     1.641  60.34   0
       397    978.9881    202.7809 307.5270979  +6.6153727     8234.053     14298.39     15078.13     88.61102     177.3635     355.0805      1.821     4.17     1102.375     62.60738     1070.362        36     1.565     1.184  52.08   0
       398    690.1652    202.8897 307.6471651  +6.6056828     1700.969       3907.7     4322.133     89.17542     177.5756     355.1864      2.312     6.95      1110.52     62.60738     191.3712        30     1.771     1.234  62.45   0
       399    499.3763    198.1870 307.7266370  +6.6012370     1204.254     2822.696     2801.405     88.75246     177.4342     355.1158      2.194     8.72     1110.098     62.60738     171.1473        21     1.482     1.431   6.64   0
       400    830.9056    194.3510 307.5889431  +6.6139113     1481.003     2774.396     2566.925     88.89367     177.5049     355.3277      1.924     5.38     1108.331     62.60738      188.476        20     1.406     1.134  57.14   0
       401    510.4737    193.8752 307.7221690  +6.6033888     1440.714     3442.465     3687.542     89.31597     177.9284      355.257      2.385     7.21     1109.875     62.60738     207.3134        20     1.600     0.944  83.41   2
       402    883.2680    193.6213 307.5671990  +6.6159607     1567.185     2788.772     3361.505     88.61102     177.5756     355.1158      2.019     4.59     1106.396     62.60738     173.9426        16     1.159     0.965  26.55   0
       403    742.5801    190.9784 307.6257756  +6.6123525     27191.21     56589.89     61800.27     88.75246     177.5756     355.1158      2.154     4.86     1109.651     62.60738     3027.653        79     1.871     1.581  50.96   0
       404    345.6800    190.5626 307.7907865  +6.5992300     3988.421     10934.36     13732.28     88.89367     177.7168     355.1511      2.814     7.16     1120.657     62.60738     405.0978        63     2.223     1.740  89.64   0
       405    976.1542    189.6040 307.5287180  +6.6207180     2214.493     4136.834     4786.613     88.32746     177.2928     354.8331      1.926     4.54     1102.058     62.60738     301.8226        23     1.444     1.038  50.23   0
       406   1014.4606    188.3469 307.5128348  +6.6225141     1440.016     2515.785     2349.824     89.03466     177.5756     355.1511      1.839     5.07     1100.095     62.60738     165.1328        18     1.389     0.967  50.98   0
       407    910.4620    188.0221 307.5560816  +6.6191798      5982.56      10641.3     10989.56     88.61102     177.6462     355.0805      1.884     3.99     1105.058     62.60738      716.698        38     1.566     1.274  46.48   0
       408    453.2920    188.6407 307.7461164  +6.6036332     2478.904     4153.682     4220.938     89.03466     177.5756      355.257      1.839     5.70     1111.638     62.60738     325.3175        20     1.789     0.781  53.94   3
       409    455.6748    187.3241 307.7451703  +6.6042566     2283.331     4203.105     4761.147     89.31597     177.9284     355.2924      2.031     7.51     1111.356     62.60738     277.7198        21     1.929     0.819  47.37   3
       410    111.5498    178.8089 307.8885106  +6.5962144     2944.228     6811.341     7609.655     88.46935     177.5049     354.8331      2.299     5.74     1137.823     62.60738     337.0433        39     1.724     1.477  83.12   0
       411    281.7125    175.3528 307.8178915  +6.6033611     19371.42     47399.18     53306.86     89.03466     177.5049     355.2217      2.399     5.75     1129.665     62.60738     1791.273        79     1.983     1.729  54.73   0
       412    257.0722    176.4533 307.8280973  +6.6020791      3957.48      9298.68     10773.24     88.89367     177.5756     355.1511      2.392     5.57      1130.52     62.60738     369.2133        48     1.812     1.551  65.86   0
       413    930.5430    177.2306 307.5480954  +6.6243048      711.381     1073.313     1215.855     88.89367     177.6462     355.0452      1.638     4.84     1103.271     62.60738       103.52         7     1.034     0.643 -65.64   0
       414    161.8599    172.2819 307.8678178  +6.6006010     2354.383     5651.999     6255.253     89.17543     177.6462     355.2217      2.377     6.18     1134.697     62.60738     242.2361        41     1.735     1.596  44.15   0
       415    710.1831    174.2020 307.6398081  +6.6181951     688.6934     1311.315     1166.521     88.61102     177.1512     354.9391      2.001     3.30     1109.444     62.60738     119.2358         5     0.927     0.344 -44.77   0
       416    405.7913    170.7997 307.7664647  +6.6094053     28257.88     70048.13     79073.98     88.32746     177.2928     354.9391      2.375     5.90     1113.179     62.60738     2839.353        85     2.011     1.726  50.43   0
       417    423.1731    171.2530 307.7592235  +6.6098012     743.3405     1822.539     1808.758     88.75246     177.7873     355.1158      2.405     7.84       1111.7     62.60738     98.74866        11     1.403     1.226  75.15   0
       418    309.7540    168.5287 307.8064649  +6.6071198     10679.29     25737.86     29455.21     89.03466     177.6462     355.1864      2.391     5.73     1126.152     62.60738     1024.337        75     1.950     1.792  48.31   2
       419    317.1697    168.3200 307.8033892  +6.6074550     1218.031     3343.918     3807.326     88.89367     177.5756     355.1511      2.542     8.60     1125.024     62.60738     135.1909        23     1.480     1.397 -34.09   3
       420    745.0411    166.9117 307.6255617  +6.6223701     22860.79     46863.47     51116.93     89.03466     177.5756     355.2217      2.158     4.76     1108.684     62.60738     2312.233        75     1.876     1.568  50.48   0
       421    693.5533    168.9805 307.6468972  +6.6197945     730.0592     1483.811     1571.106     88.61102     177.6462     354.9745      2.196     6.27     1109.555     62.60738     99.17615         8     1.109     0.998   5.03   0
       422    793.7986    167.1279 307.6052842  +6.6239102     974.9686      1885.25     2891.516     88.46935     177.1512     355.0098      2.909     6.94     1108.255     62.60738     113.9678        13     1.493     0.904 -63.69   0
       423     61.9785    164.3927 307.9096047  +6.6004972     5858.606     13204.88     14119.42     88.46935     177.4342     354.9745      2.251     5.36     1140.551     62.60738     591.7191        50     1.796     1.532  62.52   0
       424   1003.6909    161.6150 307.5182086  +6.6331908     969.4493     1585.642     2426.309     88.75246     177.4342     355.0098      1.991     5.16     1100.312     62.60738     135.4338        10     1.153     0.653  52.61   0
       425     96.5529    161.4223 307.8953329  +6.6028871     690.3727     1413.878     1704.766     88.61102     177.6462     355.0452      1.849     4.59     1138.172     62.60738     97.38757         7     1.675     0.357  37.12   0
       426   1004.3810    147.3842 307.5183989  +6.6390886     2128.351     3130.489     4014.876     88.75246     177.3635     355.0805      1.811     3.97     1099.109     62.60738     271.1901        17     1.292     0.850  60.98   0
       427    587.7947    145.1812 307.6916652  +6.6260804     704.4889     1645.427     2164.843     88.61102      177.222     354.9745      2.496     7.61     1107.874     62.60738     119.8235         9     1.594     1.018  68.12   0
       428    280.5917    141.6172 307.8194968  +6.6172499      17579.1     43254.94      49059.6     88.61102     177.3635     355.0098      2.418     5.88     1129.925     62.60738     1627.656        81     1.968     1.817  52.43   0
       429    595.1838    143.6597 307.6886446  +6.6269559     1147.156     2422.844     3551.279     88.46935     177.5756     354.9038      2.402     6.62     1107.863     62.60738     151.7257        13     1.479     0.870  88.91   2
       430     25.9907    140.4594 307.9253748  +6.6091653     2897.002     6513.845     6914.171     88.32746     177.5049     354.8685      2.231     5.85       1142.4     62.60738     337.1029        39     1.794     1.462  63.45   0
       431    712.1879    138.0853 307.6401893  +6.6331719     5351.628     11280.44     12304.67     88.61102     177.3635     355.0098      2.168     4.82     1107.578     62.60738     636.4299        48     1.792     1.461  55.09   0
       432    189.8173    139.4251 307.8573068  +6.6151045     608.0115       1371.8     1866.736     88.75246     177.4342     355.1158      2.340     4.47     1132.684     62.60738     87.06482         5     1.181     0.482  -5.82   0
       433    122.9705    135.3747 307.8852324  +6.6145284     2941.684     6867.413     7691.213     88.46935     177.4342     355.0452      2.247     5.83     1135.594     62.60738     326.1281        41     1.861     1.468  63.75   0
       434    394.6915    130.8418 307.7724271  +6.6255281     2049.885      4265.66     5390.242     89.03466     177.6462     355.2924      2.427     8.00     1113.477     62.60738     219.2202        23     1.913     0.936  51.58   2
       435    392.6474    132.3672 307.7732254  +6.6248298     1710.185     2645.115     3363.807     88.75246     177.6462     355.1158      1.808     4.70      1113.75     62.60738     244.3009        12     1.293     0.802  51.98   3
       436    462.8790    132.8410 307.7440123  +6.6269896     896.6187     1853.152     1604.136     88.89367     177.6462     355.1864      1.925     5.46     1109.225     62.60738     134.2723         9     1.413     0.595   2.22   0
       437    358.2834    130.4376 307.7875764  +6.6244733     1918.107     4600.862     5098.987     89.03466     177.5756     355.1158      2.391     6.99     1118.382     62.60738      204.536        33     1.643     1.501  60.04   0
       438    112.7326    130.9980 307.8896364  +6.6159907     984.0775     2158.618     2229.603     88.46935     177.1512     354.9745      2.131     7.45     1135.984     62.60738     111.3265        12     1.439     1.078 -69.80   0
       439    748.6270    128.8039 307.6253521  +6.6382217     590.5485     844.3243     562.3582     88.46935     177.4342     355.0098      1.454     3.51     1106.602     62.60738     95.84363         5     0.795     0.447  73.62   0
       440   1004.8820    124.0236 307.5189740  +6.6487493     1328.485     2075.083     1780.516     88.89367     177.3635     355.1158      1.618     3.65     1097.111     62.60738     199.1406        14     1.157     0.903  48.16   0
       441    210.1329    119.3347 307.8495405  +6.6240808     3226.792      7565.14     8323.225     89.03466     177.6462     355.2217      2.280     5.92     1131.656     62.60738     323.3916        41     1.672     1.564  55.86   0
       442    671.8333    117.9969 307.6576422  +6.6401151     4016.242     8650.919     9634.788     88.18534     177.4342     354.9038      2.213     5.07     1106.594     62.60738     471.6368        40     1.689     1.406  57.05   0
       443     92.9130    119.1278 307.8982771  +6.6202238     1288.167     3013.792      3033.63     89.17543     177.9284     355.1864      2.292     8.25     1136.658     62.60738     145.3831        28     1.794     1.422  63.59   0
       444    819.2671    117.5763 307.5963609  +6.6452170     780.4722     1122.924      1113.19     88.61102     177.5756     355.1158      1.511     4.83     1104.147     62.60738      98.8645         7     0.954     0.693  70.30   0
       445    623.9830    115.1691 307.6776309  +6.6396814     5943.509     13380.79     14557.34     88.61102     177.3635     355.0805      2.296     5.45     1106.739     62.60738     633.7316        50     1.811     1.563  60.49   3
       446    627.5032    106.6689 307.6764535  +6.6433082     34710.96     75581.66      83797.1     88.89368     177.7873     355.1864      2.220     5.19     1106.331     62.60738     3421.571        89     1.931     1.637  50.63   2
       447    351.1336    111.1749 307.7911989  +6.6321852     2258.275     5567.544     6273.503     88.61102     177.5756     355.0805      2.418     6.04     1119.377     62.60738     243.8213        39     1.742     1.518  78.27   0
       448    533.0071    110.0965 307.7156242  +6.6387291     1068.652     2562.559     2762.661     88.75246      177.222     354.9391      2.412     7.18     1107.189     62.60738     136.7318        16     1.537     0.939  53.53   0
       449    306.7425    100.8376 307.8100026  +6.6349623     2230.994      5124.63     6073.441     89.03466     177.7168     355.1864      2.417     6.41     1126.649     62.60738      217.876        35     1.743     1.420  72.47   0
       450      4.2462     83.7089 307.9363359  +6.6318595       756569      2055965      2293302     89.03466     176.7969     315.2628      2.503     6.21      1141.65     62.60738     61552.36       283     2.223     1.873  70.16  28
       451    678.3143     95.3188 307.6557108  +6.6496939     847.9981     1851.322     2309.898     88.75246     177.9989     355.2924      2.184     4.50     1104.978     62.60738     113.4611         7     0.884     0.852  70.05   2
       452    691.8772     90.5913 307.6502310  +6.6520991     2215.362     4686.813     4986.629     88.61102     177.0804     355.0098      2.137     5.57     1104.781     62.60738      214.856        30     1.568     1.287  48.95   0
       453    433.8121     81.7969 307.7578177  +6.6470866     2527.721     6006.823     6447.241     88.61102     177.2928     355.0452      2.350     5.90      1109.91     62.60738     259.8461        38     1.623     1.541   9.06   0
       454    906.0331     76.9813 307.5616502  +6.6648724     3069.537     5449.358     5552.474     88.46935     177.4342     354.9745      1.839     4.72     1098.187     62.60738     434.6885        28     1.648     1.018  64.57   0
       455    597.5007     75.8705 307.6899640  +6.6550180     984.9611     2021.137     2481.087     88.89367     177.7873     355.2217      2.289     5.21     1105.627     62.60738     120.1307        10     1.198     0.640 -87.86   2
       456    398.2372     73.0925 307.7729014  +6.6494866     1101.417     2424.386     3029.234     89.17542     177.5756      355.257      2.471     4.94     1113.274     62.60738     149.5564        11     1.191     0.744  29.39   2
       457    145.1200     70.6940 307.8782124  +6.6419739     2014.456     4590.311     5024.574     88.75246     177.9284      355.257      2.282     7.01     1132.204     62.60738     193.6897        33     1.669     1.505  21.62   0
       458     26.9128     68.4191 307.9274308  +6.6389345     8022.912     17753.11     20533.28     88.75246     177.3635     355.0452      2.308     5.40      1138.62     62.60738     795.9471        59     1.883     1.586  62.42   0
       459    293.7227     69.6539 307.8164685  +6.6473979     815.6164     2068.371     2526.801     89.17543     177.6462     355.1864      2.574     7.03     1128.543     62.60738     109.8656        11     1.887     0.733 -31.50   0
       460    828.4480     62.7207 307.5943868  +6.6681693     4776.644     8843.489      9586.57     89.03466     177.7168     355.1158      1.982     4.31     1100.065     62.60738      571.333        39     1.661     1.259  53.78   0
       461    773.5795     62.9450 307.6171920  +6.6662436     2286.825      4630.34     4880.865     88.46935     177.6462     354.9745      2.042     6.10     1102.013     62.60738     275.0862        28     1.681     1.173  44.75   0
       462    418.7172     64.1534 307.7646885  +6.6538638     813.6728      1576.21     1238.986     89.03466     177.6462     355.1864      1.992     6.94      1111.32     62.60738     96.51868         9     1.242     1.087 -57.87   0
       463    888.1601     77.8310 307.5690528  +6.6639252     1544.648     2664.956     2155.213     88.61102     177.4342     355.0098      1.788     5.98     1098.456     62.60738     205.7485        19     1.525     0.945  70.61   0
       464     67.3829     60.5765 307.9108721  +6.6435345     1922.733      4365.93      4706.21     88.75246     177.5049     355.0805      2.236     6.24     1136.229     62.60738      198.632        33     1.646     1.440  61.04   0
       465    536.3604     62.4120 307.7158368  +6.6585263     732.9171     1232.595      1446.54     88.46936     177.4342     354.9038      1.739     3.97     1106.527     62.60738     100.6138         5     1.057     0.427  14.69   0
       466    590.5251     56.8820 307.6935036  +6.6626232     773.0618     1848.702      1417.36     89.31597     177.9989      355.257      2.300     5.92     1105.213     62.60738     103.8458        10     1.543     0.640 -88.26   2
       467      9.9531     55.9479 307.9349037  +6.6435114     1856.802     4178.538     6074.165     89.17543     177.5756     355.2217      2.886     5.94     1138.196     62.60738     210.7753        30     1.522     1.440  72.77  16
       468    768.0180     50.7013 307.6199159  +6.6711122     1520.334     2666.247     2835.531     89.03466     177.5049     354.9038      1.849     5.25     1101.305     62.60738     192.3401        20     1.365     1.047  71.85   0
       469     94.8557     44.4827 307.8999956  +6.6511027     5993.413     13553.53     15082.34     89.03466     177.6462     355.2924      2.303     5.51     1134.732     62.60738     627.4138        52     1.909     1.494  52.33   0
       470    424.0125     44.3462 307.7631552  +6.6622181     1610.707     3461.757      3882.95     88.32746     177.5756     354.8685      2.187     5.44     1111.652     62.60738     194.1315        24     1.522     1.241  41.20   0
       471     30.1886     40.6571 307.9270092  +6.6505049     3168.661     3082.487     3213.155     88.32746     177.5756     354.8685      0.879     2.71     1136.125     62.60738     990.3914         6     0.817     0.379 -82.30   0
       472    261.4396     38.4508 307.8309440  +6.6591943     925.5521     2545.926     3591.456     89.03466     177.6462     355.1864      3.322     9.27     1129.404     62.60738     122.1268        18     1.621     1.479  28.49   3
       473    255.7099     33.4771 307.8334942  +6.6610550       1281.3     2935.225     4624.395     88.89367     177.9284     355.2217      3.121     7.35     1129.375     62.60738     184.7111        22     1.437     1.231 -82.42   3
       474    637.5799     36.3635 307.6746307  +6.6726687     12094.11     25862.01     28885.34     88.61102     177.4342     354.9038      2.198     5.07     1103.539     62.60738     1347.848        60     1.860     1.521  44.01   0
       475    537.4830     32.5377 307.7163767  +6.6708964       3193.7     7037.255     7750.255     89.17543     177.6462     355.1511      2.249     5.51     1106.258     62.60738     309.7743        40     1.734     1.466  47.33   0
       476      5.4692     30.9566 307.9376143  +6.6536766      935.928     1983.194      2669.76     89.03466     177.5756     331.0978      2.579     6.86     1135.538     62.60738     161.1844        12     1.441     0.915 -31.52  16
       477    216.3115   1020.3108 307.8165425  +6.2523535     1975.155     3134.614      3343.76     88.75246     178.2101     321.2534      1.752     4.46     1166.451     62.60738     283.7836        19     1.258     1.113  88.05  16
       478    263.6455     28.5799 307.8303605  +6.6633432     5668.842     13101.78      14964.1     88.61102     177.5049     354.9745      2.380     5.54      1129.26     62.60738     545.2552        52     1.796     1.592  54.52   0
       479     29.1565     28.5269 307.9278490  +6.6554774      1603.92     3751.914     4056.555     88.89367     177.7168     355.2217      2.225     6.50     1135.094     62.60738     172.0776        29     1.664     1.319  61.22   0
       480    920.8513     28.1000 307.5571301  +6.6855462     1584.763     2507.667     1758.143     89.03466     177.6462     355.4335      1.735     5.46     1096.055     62.60738     207.0262        19     1.494     0.956  45.41   0
       481    624.0959     26.5537 307.6805672  +6.6762671     2195.778     4976.368     5845.367     89.03466     177.5756      355.363      2.435     5.93     1103.443     62.60738     224.6904        35     1.728     1.375  51.35   0
       482    251.4476     25.4172 307.8355386  +6.6642389     1809.271     4515.264     5808.702     88.46936     177.5756     354.9391      2.766     6.91     1129.287     62.60738     171.2927        35     1.664     1.496  86.67   0
       483    434.3214   1017.2437 307.7260790  +6.2609325     3562.909     6078.085      6071.25     88.89367     177.6462      352.172      1.842     4.08     1163.471     62.60738     465.8319        32     1.748     1.055  48.99  16
       484    941.8646     18.6470 307.5487103  +6.6901497     694.8451     1149.121     665.6231     88.89367     177.5756      355.257      1.941     5.11     1093.939     62.60738     126.1034         6     1.244     0.751  31.92   0
       485    719.4921   1017.0496 307.6076139  +6.2705548     7389.952     11252.15     11646.22     88.89367     177.5049     353.4518      1.632     3.53     1158.733     62.60738      973.943        32     1.419     1.058  52.26  16
       486    575.7002   1016.1279 307.6673825  +6.2661271     3961.571      6647.49     7743.687     88.75246     177.8579     355.2217      1.861     4.04     1161.104     62.60738     482.0759        29     1.472     1.153  55.07  17
       487    711.8500   1016.2581 307.6108154  +6.2706262     1204.259     1445.183     1663.485     89.03466     177.6462     355.2217      1.384     4.13     1158.876     62.60738     168.7083         9     0.888     0.748  70.86   0
       488    751.6948   1012.7698 307.5943790  +6.2733975     1402.132     2214.574     2984.091     89.17543     177.3635     355.1864      2.323     7.30     1157.983     62.60738     194.8151        16     1.712     0.913  77.81  16
       489    959.0822   1006.5239 307.5084280  +6.2828966     7379.694     10618.95     11021.93     89.31597     177.9284     355.3277      1.520     3.31     1152.557     62.60738     1058.014        32     1.389     1.024  55.26   0
       490    713.8086   1007.2189 307.6103052  +6.2744233     977.2585      1791.96     2800.453     88.75246     177.2928     354.9745      2.582     6.19     1158.451     62.60738     114.0629        12     1.313     0.819  51.74   0
       491    243.5196   1006.4166 307.8057085  +6.2590028     1098.191     1765.783     1310.985     88.61102     177.2928     355.0098      1.730     6.08     1166.237     62.60738     139.8615        14     1.417     0.879  50.52   0
