#   1 NUMBER                 Running object number                                     
#   2 X_IMAGE                Object position along x                                    [pixel]
#   3 Y_IMAGE                Object position along y                                    [pixel]
#   4 ALPHA_J2000            Right ascension of barycenter (J2000)                      [deg]
#   5 DELTA_J2000            Declination of barycenter (J2000)                          [deg]
#   6 FLUX_APER              Flux vector within fixed circular aperture(s)              [count]
#   9 FLUXERR_APER           RMS error vector for aperture flux(es)                     [count]
#  12 FLUX_RADIUS            Fraction-of-light radii                                    [pixel]
#  13 FWHM_IMAGE             FWHM assuming a gaussian core                              [pixel]
#  14 BACKGROUND             Background at centroid position                            [count]
#  15 THRESHOLD              Detection threshold above background                       [count]
#  16 FLUX_MAX               Peak flux above background                                 [count]
#  17 ISOAREA_IMAGE          Isophotal area above Analysis threshold                    [pixel**2]
#  18 A_IMAGE                Profile RMS along major axis                               [pixel]
#  19 B_IMAGE                Profile RMS along minor axis                               [pixel]
#  20 THETA_IMAGE            Position angle (CCW/x)                                     [deg]
#  21 FLAGS                  Extraction flags                                          
         1    191.4180     20.3038 307.8648314  +6.6679528     9254.552     16203.21     16869.91     78.09965     155.8891     311.8713      1.873     5.81     826.9729     55.00521     1417.164        40     1.926     0.913  33.48   0
         2    937.0337     17.9243 307.5551989  +6.6939554     3434.939     6441.229     6510.146     78.09965     156.0753     312.0265      1.920     6.20     822.0121     55.00521       486.15        30     1.889     0.892  36.28   0
         3    535.5436     18.3453 307.7219591  +6.6803329     2610.783     4583.313     4688.553     78.34719     156.1373     312.0885      1.838     5.73     823.5009     55.00521     417.2614        22     1.720     0.742  36.14   0
         4    738.0333     16.6131 307.6379063  +6.6878377     1685.107     3064.338     2811.127     77.72685      155.827     311.9644      1.736     5.49     822.0674     55.00521      346.899        19     1.819     0.681  35.26   0
         5    473.6060     16.6749 307.7477427  +6.6789426     1651.414     2649.541     2620.545     77.85132     155.5782     311.9023      1.819     4.34     823.9047     55.00521     327.1727        20     1.582     0.789  34.77   0
         6   1001.7426     14.3525 307.5284383  +6.6975920     1570.324     2797.217      2277.36     78.22352     156.0753     312.1816      1.805     5.00     819.3389     55.00521       258.75        17     1.607     0.747  28.84   0
         7    796.4893     13.4899 307.6137289  +6.6910843      461.212     963.7177     1567.923     78.22352     156.5708     312.1505      2.920     4.23     821.9398     55.00521     77.58588         6     1.243     0.410  45.00   0
         8    721.1634     10.7172 307.6451116  +6.6897061     6323.102     11227.96     11679.34     78.22352     156.0132     312.0265      1.846     6.09     821.7898     55.00521     1085.883        34     1.938     0.832  32.43  16
         9    641.3793     10.0164 307.6782765  +6.6873213      3304.28     5476.937     5853.962     77.97558     155.8891     311.9644      1.792     5.72     821.9988     55.00521       515.92        23     1.799     0.700  32.58  16
        10    343.5183      9.8822 307.8020059  +6.6773738     843.1891     1514.633     1673.199     78.09965     156.3232     312.1505      1.885     5.82     830.4951     55.00521     157.4572        12     1.923     0.496  24.44  16
        11    441.5499      6.2386 307.7614089  +6.6821733     5515.496     9552.271     10204.25     77.97559     156.0753      298.321      1.908     5.91     825.1404     55.00521     833.9513        33     1.898     0.850  31.67  24
        12     42.5717      5.8660 307.9271419  +6.6688937     7191.563     12685.56     13316.45     77.97559     156.0132     294.6965      1.878     5.54     827.9866     55.00521     1025.208        36     1.945     0.867  30.68  16
        13    688.0950      4.9036 307.6590429  +6.6909976     868.6688     1382.679     1841.156     78.22352     156.6326     284.4317      1.705     3.73     821.5625     55.00521     167.1196         6     0.942     0.425  48.98  16
        14    517.2153      3.0624 307.7300858  +6.6860256     727.2137     1442.461     1624.216     77.72685     146.2104     260.9265      2.039     4.96     823.3201     55.00521     134.4519         9     1.585     0.439  36.53  16
        15    396.5698      7.5563 307.7800482  +6.6801177     726.3953     1281.773     1553.007     77.85132     156.0753     308.1549      1.989     5.36     827.5754     55.00521     121.3411         8     1.425     0.568  55.33  16
        16    338.7175      1.8520 307.8042703  +6.6805268     9379.854     13819.39     14682.93     73.89556     131.6453     243.2997      1.551     5.99      830.653     55.00521     1660.857        27     1.626     0.763  15.62  24
        17    112.0772      1.8754 307.8984074  +6.6728850     1914.206     3033.322     3415.293      74.4178     132.0858     243.6178      1.698     6.46     826.0336     55.00521     420.3372        19     1.675     0.699  21.17  24
        18    808.1278      1.3224 307.6093021  +6.6964960     406.0858     530.9429     527.9099     68.17096      124.151      234.588      1.129     3.48     821.4141     55.00521     95.05933         5     0.818     0.428  15.66  24
        19    103.7105      1.3627 307.9018999  +6.6728145     680.8117     847.1846     1108.479     68.45442     124.6181     235.1651      1.216     4.11     825.8824     55.00521     134.6537         7     1.046     0.462   8.17  24
        20    611.1389    991.9260 307.6578978  +6.2810164     1032.671     2004.844     2528.978     78.47067     156.0753     312.0575      2.136     6.91     855.1049     55.00521     135.6685        17     1.737     0.770  31.57   0
        21    761.8307   1022.2477 307.5943364  +6.2735474     1128.677     2010.766     2219.823     77.85132     142.7255     256.5862      1.972     5.73     854.3339     55.00521     162.9617        17     1.464     0.955  36.46  24
        22    584.4709   1023.7339 307.6679000  +6.2669934     966.3427     1123.511     1489.915     67.16945     123.1331     233.8026      1.066     2.59     855.4788     55.00521     249.3644         7     0.945     0.419   9.61  24
        23    542.2309    990.4268 307.6865488  +6.2793250     3255.406     6436.188     7424.012     77.72686      155.827     311.9023      2.193     7.16     855.0886     55.00521     435.0337        39     2.229     1.057  26.58   0
        24    651.1910    989.8035 307.6413449  +6.2832346     1169.578     2216.105     2732.784      77.6022     155.7648     311.9023      2.139     5.10      855.071     55.00521     153.4331        20     1.480     1.065  34.82   0
        25    495.1366    987.0022 307.7062104  +6.2791587     1741.672     3479.747      3398.23      77.6022      155.827     311.8402      2.011     6.92     854.8242     55.00521     214.0418        26     1.873     0.906  30.81   0
        26     75.5708    988.2292 307.8803058  +6.2645459     746.7851      1128.09     1521.552     77.72686      155.827     311.8092      1.813     5.71     849.8541     55.00521     99.91675        10     1.253     0.734  -0.02   0
        27    929.5654    978.8577 307.5261663  +6.2970660      32092.2      64576.9     72687.86     78.09965     156.0753     312.0885      2.170     5.85     852.2598     55.00521     3824.189        80     2.186     1.289  33.75   0
        28    334.5572    979.8811 307.7730980  +6.2767058     569.8311     1060.731     1054.705     78.22352     156.0753     312.0265      2.056     6.29     854.7925     55.00521     97.22516         6     1.305     0.887  66.78   0
        29      2.8897    978.9322 307.9107836  +6.2659337     2235.325     4070.178     3960.978     78.34719     144.4115     258.6532      1.858     7.48     849.4735     55.00521     334.3904        24     1.758     0.891  39.04  24
        30    236.7605    977.0659 307.8137826  +6.2745797     1379.963     2565.935     2581.718     78.22352     156.0132     312.1816      1.994     6.29     853.4228     55.00521     237.7547        20     1.977     0.751  37.12   0
        31    636.1426    975.6426 307.6480654  +6.2885755     702.4536     1456.071     1097.057     78.09965     156.0132     312.0885      1.972     6.53     854.8449     55.00521     120.7437        11     1.564     0.765  46.88   0
        32    124.8515    976.3735 307.8602523  +6.2710991     671.5097     1022.013     1358.584     77.85132     156.1993     311.9644      1.712     5.51     850.5811     55.00521     116.1567         7     1.195     1.014  22.05   0
        33    827.7214    972.9222 307.5686378  +6.2961116     1677.357     3354.997     3791.178     78.47067     156.3232     312.1816      2.150     6.94     853.0335     55.00521      212.366        26     1.864     0.912  36.48   0
        34    775.6909    970.5309 307.5903144  +6.2953581     5171.644      10222.5     11975.31     78.22352     156.1993     312.0265      2.127     5.78     853.5198     55.00521     635.5161        46     2.069     1.203  34.05   0
        35    209.5947    969.5954 307.8253089  +6.2767492     752.1791     1366.795     1096.855      77.6022     155.7648     311.9333      1.931     6.47     852.5602     55.00521     99.74719        12     1.343     0.874  57.17   0
        36    561.9047    969.4495 307.6790866  +6.2886433     744.7892     1380.722     1436.091     78.09965     155.9512     312.2126      1.964     6.46     854.9291     55.00521     113.6044        13     1.600     0.732  27.07   0
        37    245.2038    969.5787 307.8105302  +6.2779540     1097.582     2030.121     2302.433     77.85132     155.7648     311.8402      1.937     6.19     853.4099     55.00521     175.1599        17     1.602     0.745  27.75   0
        38     69.9191    967.7457 307.8833417  +6.2728099     2095.334     4076.578       3929.3     78.22352     156.0753     312.1195      2.057     6.99     849.4808     55.00521     266.8365        26     2.009     0.846  32.27   0
        39    963.9131    965.5358 307.5123544  +6.3037123     4953.089     9940.304     11450.46     78.22352     156.2613     312.0575      2.191     5.93     850.9982     55.00521     535.7498        45     2.091     1.159  32.96   0
        40    645.8911    960.1637 307.6445379  +6.2952912     734.2094     1079.686     904.1624     78.34719     156.0132     312.0885      1.575     3.24     854.5782     55.00521     116.3009         8     0.904     0.733  71.56   0
        41    937.8989    957.5061 307.5234207  +6.3061577     1455.384     2930.287     3088.387     78.22352     156.5708     311.9023      2.102     7.54     851.3647     55.00521      170.939        23     1.834     0.921  31.93   0
        42    658.4623    953.2597 307.6395512  +6.2985620     3728.167      6841.89     7373.488     78.22352     156.0132     312.0885      1.922     6.42     854.4525     55.00521     454.1953        31     1.917     0.909  33.25   0
        43    270.5040    953.4562 307.8005717  +6.2854595     3542.099     6690.659      7106.28     78.09965     156.0132     312.2436      1.995     6.08     853.6062     55.00521     466.0869        34     1.942     0.940  32.75   0
        44    797.1196    953.6140 307.5819859  +6.3030577     1158.119     2059.538     2538.391     77.85132      155.827     311.8713      1.831     6.47     852.8993     55.00521     140.9751        15     1.768     0.666  24.68   0
        45     39.3144    950.8824 307.8966121  +6.2787388     1782.868     3315.032     3446.289     77.97559     156.3232     312.1505      1.896     5.76     848.8791     55.00521     228.0325        26     1.815     0.898  33.14   0
        46   1007.7703    951.7206 307.4946113  +6.3108793     573.4861     933.1621     970.1315     78.09965     156.0753     312.0265      1.803     4.82     850.0781     55.00521     82.11066         7     1.192     0.552  21.69   0
        47    480.4939    951.6388 307.7134748  +6.2932639     817.9621     1465.402     1393.367     78.34719     156.0132     312.1505      1.982     5.84     854.6844     55.00521     121.1295        12     1.677     0.573  27.44   0
        48    890.1558    949.7496 307.5434974  +6.3077639     706.2296     1312.822     1189.249     78.34719     155.9512     312.0885      1.947     6.05     851.9143     55.00521      94.2785        10     1.738     0.593  32.82   0
        49    582.9974    945.5292 307.6711338  +6.2992238     1397.727     2662.216     2945.615     77.72685     155.7026     311.9023      2.021     6.79     854.5851     55.00521     184.2013        20     1.754     0.789  33.40   0
        50   1014.2328    945.1450 307.4921483  +6.3138093     518.9645     1164.386     809.9964     78.09965     156.0132     312.0265      2.363     5.81     850.0661     55.00521     77.28394         7     1.437     0.661  51.12   0
        51    960.4869    946.1970 307.5144226  +6.3115803     530.3889     771.5154     1041.425      77.6022     155.7026     311.8092      1.825     3.69     850.7223     55.00521     85.05981         5     1.022     0.383   6.51   0
        52    622.0717    941.9433 307.6550353  +6.3020137     1060.571     1980.803     1994.626     78.34719     156.0132     312.0265      1.949     6.34     854.3093     55.00521     134.2597        15     1.820     0.621  37.03   0
        53     70.1802    941.9542 307.8841026  +6.2834640     721.4357     1162.674     1466.547     77.85132     156.0132     311.9333      1.903     5.09     849.0041     55.00521     84.03375         8     1.071     0.683  -9.56   0
        54    301.8728    939.6416 307.7880166  +6.2922162     1209.056     2267.593     2487.297     78.09965     156.1373     312.0885      1.997     8.57     853.8011     55.00521     167.0079        23     2.142     0.958  34.73   0
        55    306.3577    946.9002 307.7859111  +6.2893709     803.2362     1489.119     1488.016     78.22352     155.9512     312.2746      2.038     6.19     853.9798     55.00521     125.8256        12     1.397     0.772  32.91   0
        56    769.5955    935.9916 307.5940004  +6.3094107     780.2044     1304.755     856.0654      77.6022     155.7648     311.9023      1.820     5.07     853.0743     55.00521     135.2183         9     1.351     0.539  19.40   0
        57    906.5925    932.4924 307.5372516  +6.3154365     5366.034     10195.24     11024.09     77.85132     155.7648     311.8713      2.024     5.57     851.1002     55.00521     667.8379        46     2.031     1.152  29.08   0
        58    144.2682    933.8563 307.8536256  +6.2893017     429.8603     756.3138      657.123     78.34719     156.0132     311.9954      1.656     6.41     849.7348     55.00521     74.19946         7     1.441     0.801  54.41   0
        59    442.4612    929.8619 307.7299921  +6.3009758     1670.611     3126.679      3113.17     78.22352     156.0753     312.0885      1.942     7.09     854.4357     55.00521     222.4832        22     1.979     0.719  33.15   0
        60    344.0774    928.1642 307.7708850  +6.2983721     7539.525     14317.35      15323.6     78.09965     156.1373     312.0885      1.991     6.23     853.6417     55.00521     1047.301        43     1.960     1.016  35.22   0
        61    264.1490    927.0717 307.8040970  +6.2961360      5663.33     10557.79     10857.39     78.22352     156.0753     312.0885      1.994     5.73     852.7266     55.00521     779.0826        36     1.935     0.955  32.58   0
        62    592.2151    921.5634 307.6681114  +6.3094250     937.6456     1760.981     1881.509     77.85132     155.8891     311.8402      1.987     6.38     854.2051     55.00521     144.4118        14     1.904     0.601  43.87   0
        63    988.9774    912.9590 307.5037065  +6.3262514     779.7174     1434.391     1773.764     77.85132     155.8891     311.8402      2.030     5.38     849.5117     55.00521     103.7039        12     1.264     0.979  39.12   0
        64    758.8798    910.8255 307.5992908  +6.3194398     1307.995     2321.283      2876.93     77.97559     155.8891     312.0575      1.899     6.33      852.927     55.00521     183.9596        17     1.910     0.589  30.82   0
        65    921.8102    917.5687 307.5314336  +6.3221050     869.3855     1385.516     1920.892     77.72686      155.827     311.9023      1.973     6.06     850.5606     55.00521     111.0358        12     1.605     0.643  41.04   0
        66    989.4606    905.6125 307.5037513  +6.3292999     865.4778     1724.516     2632.247      77.6022     155.8891     311.7471      2.327     7.54     849.1556     55.00521     133.2524        17     1.689     0.942  37.52   0
        67    621.7654    906.6483 307.6563456  +6.3165718     673.9617     1210.769     1256.094     77.97559     156.0753     311.9954      1.684     4.76     853.8572     55.00521     101.2206         8     1.332     0.483  40.69   0
        68    543.7608    906.2792 307.6887365  +6.3141090     916.1782     1483.934     1602.966     78.09965     156.1373     312.0575      1.649     5.87     854.2162     55.00521     139.5302        12     1.462     0.664  34.89   0
        69    677.1365    903.9491 307.6334521  +6.3195412     1982.057     3881.962     4458.462     78.22352     156.0132     312.0885      2.018     6.60     853.5336     55.00521      266.175        25     1.833     0.843  32.19   0
        70     73.6312    900.2087 307.8840772  +6.3008104      2289.53     4584.197     4951.586     77.72686     155.8891     311.8713      2.047     5.77     847.7581     55.00521     288.6638        31     1.854     1.009  32.33   0
        71    838.0190    901.1553 307.5667640  +6.3260789     519.8353     1038.696     602.3376     77.85132     155.9512     311.8402      2.070     4.35     851.7681     55.00521     91.02197         6     1.312     0.411  23.71   0
        72    217.1553    899.0463 307.8245453  +6.3061227     1862.281     3521.343     3733.248     78.22352     156.0132     312.0265      1.931     6.40     851.1944     55.00521     237.0001        26     1.904     0.881  36.26   0
        73     90.9190    899.3642 307.8769302  +6.3017415     1574.697     3056.415     3293.315     78.09965     156.1373     312.0575      2.147     5.88     848.0955     55.00521     235.4696        22     1.852     0.795  30.25   0
        74      9.5984    908.2322 307.9103835  +6.2953406     600.4186     1193.689     1073.724      77.6022     155.8891     311.8092      1.962     6.99     846.7924     55.00521     91.62634        11     1.594     0.858  28.56  16
        75    955.0806    899.1724 307.5182377  +6.3308100     672.8184     1215.884     1417.312     78.09965     155.8891     312.0575      1.892     4.34      849.626     55.00521     82.68457         5     1.045     0.513 -38.89   0
        76    356.4728    895.4927 307.7668382  +6.3122738     654.3901     1132.006     1141.326     78.09965     156.1993     312.0885      1.843     5.02     852.9346     55.00521     102.4528        10     1.754     0.406  33.83   0
        77    250.6290    895.3491 307.8107758  +6.3087748      735.587      1079.37     1235.793     77.85132     156.1993     311.9644      1.750     5.50     851.9853     55.00521     124.5768        10     1.339     0.637  32.49   0
        78    671.8472    893.1208 307.6360104  +6.3238335     5435.885     10255.26     11064.03     78.22352     156.1373     312.0265      1.994     6.10     853.3583     55.00521     719.3351        33     1.937     0.902  33.21   0
        79    809.2912    893.5886 307.5789421  +6.3282414     696.9553     1129.303     1151.312     77.97559     155.7648     311.8713      1.901     4.14     852.0251     55.00521     113.8781         6     1.516     0.323  45.64   0
        80    909.4855    889.2946 307.5374946  +6.3333639     2052.354     4202.097     4522.831     78.22352      156.447     312.1195      2.133     5.96     850.5204     55.00521       261.48        31     1.876     1.084  37.42   0
        81     31.5361    891.1398 307.9018547  +6.3031349     1054.295     1638.053     1864.843     78.22352     156.0132     312.0885      1.707     6.29     846.4168     55.00521     146.9844        13     1.489     0.746  36.99   0
        82     44.6513    889.7615 307.8964576  +6.3041459     838.7818     1765.779     1899.818     77.97559     156.0132     312.0265      1.916     6.30     846.6855     55.00521     111.6296        13     1.731     0.644  34.05   0
        83    354.7839    886.3539 307.7678463  +6.3159892     13450.53      24542.6     26452.47     77.72686     155.9512     311.8402      1.915     5.57     852.7275     55.00521     1889.065        48     1.970     0.973  33.09   0
        84     89.4830    887.4787 307.8779268  +6.3065987     1002.556     1748.324     1972.134     78.34719     156.3232     312.1816      1.952     6.24     847.6574     55.00521     161.7344        14     1.723     0.636  35.23   0
        85    405.3272    885.4525 307.7468971  +6.3180592     548.5204     1078.338     1438.006     78.09965     156.0753     312.0885      2.074     4.71     852.6618     55.00521      82.3479         6     1.473     0.428  55.73   0
        86    225.3847    885.4923 307.8215857  +6.3119940     1031.896     1738.919     1707.388     77.97559     155.8891     311.9333      1.706     6.12     851.3434     55.00521     137.4539        12     1.576     0.668  33.82   0
        87    685.3245    878.6262 307.6309017  +6.3302678     419.9627     912.4518     1448.494     77.85132     155.9512     312.0265      2.329     4.58     852.9929     55.00521     98.34351         6     1.694     0.352  29.53   0
        88    432.6182    877.3669 307.7358407  +6.3223130     948.8307     1747.036      1364.32     77.85132     155.8891     311.9023      1.860     6.40       852.37     55.00521     143.1548        14     1.713     0.672  30.62   0
        89    118.2216    877.1616 307.8663461  +6.3118251     1430.147     2603.332     2890.479     77.85132      155.827     311.8402      1.961     6.81     848.1819     55.00521     180.5487        19     1.769     0.735  33.56   0
        90    900.1882    870.9632 307.5419669  +6.3406197      1366.09     2757.589     2981.346     77.72686     155.8891     311.7471      2.106     6.97     850.4476     55.00521     174.6425        24     1.720     1.062  32.69   0
        91    511.9657    872.5723 307.7030653  +6.3269552     452.2275     961.1362     1196.622     77.72685      155.827     311.8402      2.529     4.79     852.8153     55.00521     97.75562         6     1.303     0.499  39.68   0
        92    870.4458    870.3801 307.5543328  +6.3398662     1508.644     2868.424     2746.674     77.85132     156.0132     311.9023      2.004     6.79     850.8556     55.00521     217.0424        22     1.962     0.771  31.57   0
        93    685.9341    872.6231 307.6308497  +6.3327660     650.5496     1278.892     1473.843     77.85132     156.0753     312.0265      1.856     4.07     852.8669     55.00521     112.1176         7     1.257     0.377  14.70   0
        94    101.5538    870.6176 307.8734848  +6.3139647     2020.439     3908.615      4127.68     77.72686     155.9512     311.8092      1.974     5.68     847.5285     55.00521     257.2218        29     1.908     0.931  32.62   0
        95    833.9564    869.9222 307.5694952  +6.3388351       2353.2     4401.598     4908.604     78.09965     156.0753     312.0575      1.918     5.94     851.4564     55.00521     340.1159        24     1.797     0.821  34.80   0
        96    349.5627    868.2070 307.7706235  +6.3233039     685.0892     1147.277     1605.995     77.47733      155.827     311.8092      1.597     6.19     852.3253     55.00521     124.9181        11     1.817     0.592  40.33   0
        97    569.9276    861.5262 307.6793761  +6.3334587     276858.3     504136.2     541234.2     78.47067     156.1993     312.1195      1.952     6.03      853.183     55.00521     40302.13       170     2.099     1.206  33.57   0
        98    464.4843    868.5399 307.7229098  +6.3270262     517.3307     876.6209       1258.7     78.34719     156.1373     312.1505      1.884     4.41     852.0714     55.00521     84.56549         6     1.580     0.350  36.18   0
        99    414.2493    864.1169 307.7439104  +6.3271652     6265.306      11401.2     12660.12     78.22352     156.0753     312.0885      1.935     6.07     851.8819     55.00521     845.7099        37     1.913     0.952  33.55   0
       100    657.8818    864.6514 307.6427614  +6.3351168     890.0551     1591.843     2097.527     78.22352     156.0753     312.0575      2.208     5.68     852.9897     55.00521     124.1933        12     1.533     0.593  36.92   0
       101    357.3660    862.5132 307.7675759  +6.3259163     10659.58     19128.34     20436.88     78.22352     155.9512     312.0575      1.911     5.94     852.1455     55.00521     1476.988        40     1.928     0.939  33.05   0
       102    675.8540    858.7315 307.6354995  +6.3381624     2963.685     5564.702     5574.835     78.22352     156.0132     311.9954      1.969     5.84     852.6641     55.00521     406.5667        29     1.884     0.902  37.91   0
       103    908.1822    857.5641 307.5390964  +6.3464176     4132.806     8259.965     9620.215     77.72686     155.8891     311.8402      2.176     5.83     850.1748     55.00521      499.039        43     2.057     1.146  29.76   0
       104    747.2043    855.0035 307.6060062  +6.3420903     669.0373     1149.916     1293.274      77.6022     155.6404     311.9023      1.638     4.82     852.1414     55.00521     124.6815         9     1.596     0.412  41.16   0
       105    838.8717    852.2073 307.5680474  +6.3463116     1194.854     2263.168     2419.925     77.72685     155.6404     311.9954      1.987     6.89      851.106     55.00521     173.5887        19     1.883     0.707  42.45   0
       106    641.1605    851.7198 307.6501359  +6.3398942     537.4109     1397.247     1767.968     78.22352     156.1373     311.9954      2.513     6.37     852.7027     55.00521     98.97571        11     1.820     0.625  34.21   2
       107    650.6141    852.7789 307.6461762  +6.3397738     2664.059     5139.774     6011.312     77.97559      155.827     311.9644      2.175     6.65     852.6794     55.00521     386.6319        30     2.163     0.879  31.01   3
       108    643.7372    847.5385 307.6492065  +6.3417064      1748.68     3162.643     3534.869     78.22352     156.0753     312.0885      1.839     5.34     852.5447     55.00521      264.316        21     1.867     0.726  29.35   3
       109    964.8087    850.0095 307.5158421  +6.3514279     606.2241     1012.386     1099.567     77.72686     155.8891     311.9333      1.641     5.03     848.1489     55.00521     79.36786         8     1.098     0.651  52.60   0
       110    927.1887    845.4792 307.5316104  +6.3520410     2558.855     4625.551     4607.644     77.85132     155.7648     311.9023      1.956     5.46     849.7452     55.00521     329.9189        33     1.980     0.944  31.71   0
       111    336.7396    846.1669 307.7766872  +6.3319701      879.117     1325.287     1223.649     77.97559     156.1373     311.9954      1.614     5.13     851.3941     55.00521     147.0342        10     1.127     0.659  49.60   0
       112    385.1421    841.4212 307.7567551  +6.3355553     2212.657     3828.271     3696.067     77.85132     155.9512     311.8713      1.771     5.98     851.0474     55.00521     310.3427        22     1.797     0.735  35.33   0
       113    521.4599    831.1453 307.7005145  +6.3443731     2442.126     4545.165     4779.921     78.34719     156.0132     312.0265      1.928     6.14     851.0231     55.00521     337.5236        23     1.788     0.808  29.28   0
       114    866.2826    830.2094 307.5574044  +6.3563082      865.002     1582.105     1963.505     77.85132     155.7026     311.9023      1.773     6.15     850.3964     55.00521       107.76        14     1.608     0.661  23.10   0
       115    586.1794    828.4884 307.6737380  +6.3476403     732.0039     823.3875     1025.979     78.09965      155.827     311.9333      1.309     4.18     851.4866     55.00521     110.9327         7     1.063     0.469  47.80   0
       116    568.3494    827.2595 307.6811806  +6.3475498     5023.388     9153.545     10018.75     78.22352     156.0753     312.0575      1.946     5.85     851.2843     55.00521     747.1775        32     1.877     0.906  32.40   0
       117    573.9168    825.7998 307.6789185  +6.3483389     898.2394     1862.774     2404.987     77.47733     155.5782      311.716      2.473     3.75     851.2809     55.00521     150.2639         9     0.948     0.760 -16.25   3
       118    486.2476    826.2040 307.7152973  +6.3452311      1305.25     2448.916     2666.122      77.6022      155.827     311.7471      2.024     6.67     850.3867     55.00521     180.8663        17     1.779     0.740  37.82   0
       119    279.2785    827.1761 307.8011775  +6.3378768     577.7598     697.0782     1080.878     77.85132     155.8891     312.0575      1.326     3.54     850.3915     55.00521     108.6434         5     1.136     0.318 -11.13   0
       120    903.7370    825.2245 307.5420228  +6.3596178     1097.429     2251.626     2310.462     77.85132     156.0753     312.0265      2.064     6.41     849.7996     55.00521     161.2597        15     1.624     0.711  38.19   0
       121    539.0341    821.2292 307.6935521  +6.3490556     16117.41     29857.21     31985.27     77.72685      155.827     311.8402      1.931     6.12     850.6976     55.00521     2194.919        55     1.995     1.029  35.52   0
       122    127.5842    825.4130 307.8642034  +6.3334995     1157.276     1851.401     1693.309     77.97559     155.7648     311.9954      1.858     6.21     846.9528     55.00521      184.642        15     1.575     0.688  32.55   0
       123    703.2516    823.8683 307.6252944  +6.3534702     567.4385     994.3558     1220.815     78.09965     155.9512     311.9954      1.468     3.12      851.949     55.00521     121.8129         5     0.916     0.343  46.27   0
       124    380.5108    823.1293 307.7592923  +6.3429498     627.2767     1117.355     627.4536     78.22352     156.3232     312.0575      1.876     4.90     850.2787     55.00521     123.1204         9     1.527     0.445  45.94   0
       125    952.7578    819.5146 307.5218637  +6.3636127     2981.642     5494.258     5404.894     78.22352     155.9512     312.0575      1.948     5.89     848.4404     55.00521     367.8611        29     1.977     0.875  29.39   0
       126     71.5539    816.1612 307.8877723  +6.3354305     491.2264     725.7686     881.5249     77.97559     156.0753     311.9333      1.918     4.17     845.3998     55.00521      95.5976         5     1.137     0.436  76.87   0
       127     49.1562    811.6953 307.8972198  +6.3365190     1125.427     2050.173     2070.114     78.22352     156.0132     312.1816      2.042     6.11     845.1033     55.00521      208.168        18     1.773     0.832  30.26   0
       128    331.6411    809.9447 307.7800214  +6.3467496     2939.989     5264.024     5382.557     78.09965     156.0753     312.0885      1.830     5.79     849.7626     55.00521     384.1981        25     1.791     0.808  33.24   0
       129    797.2195    805.7053 307.5868942  +6.3641127     44082.39     81783.68     88426.27     78.09965     155.8891     311.8713      1.975     6.06     850.8569     55.00521     6047.015        75     2.063     1.079  34.25   0
       130     31.3987    807.8941 307.9047188  +6.3374893     1750.745     3233.154     3480.636     77.72685     155.7026      311.716      2.011     6.28     844.9197     55.00521     249.7375        22     1.798     0.804  33.95   0
       131    254.2830    803.6599 307.8123442  +6.3467425     4360.354      8344.67      10706.5     78.34719     156.1373     312.0885      2.293     6.23     848.8761     55.00521      571.281        38     1.936     1.063  30.56   0
       132    441.3573    804.7666 307.7346515  +6.3525727     721.2725     1117.766     972.7587     77.97559     156.0753     311.8713      1.830     5.31     849.4839     55.00521     92.66223         9     0.958     0.832 -75.35   0
       133    922.4413    800.9695 307.5350689  +6.3702546     6898.719     12686.67     13720.48     77.72685     155.9512     311.9023      1.961     5.95     849.2242     55.00521     886.4589        43     2.029     0.990  36.77   0
       134    720.3374    797.4639 307.6190861  +6.3649412     63136.21       127397     167910.7     78.22352     156.0753     312.0885      2.604    11.74     851.6487     55.00521     10339.25       134     3.492     1.098  30.58   0
       135    363.9884    797.7309 307.7670044  +6.3528780     16671.76     31140.06     33729.59     77.72685     155.8891     311.9333      1.948     6.00     849.2432     55.00521     2504.224        54     1.995     1.010  33.51   0
       136    425.8511    795.5810 307.7413968  +6.3558434     17890.26      33327.9     36065.14     77.72686     156.1373     311.8402      1.952     6.10     849.1752     55.00521     2679.971        52     2.030     0.964  33.72   0
       137    413.4249    797.7944 307.7464807  +6.3545125     1219.805     2190.149     2545.884     77.72686      155.827     311.9023      1.881     6.26     849.2348     55.00521     187.6339        19     1.919     0.746  31.84   0
       138    653.0172    796.9972 307.6470482  +6.3628789     624.3546      1259.53     1918.812     77.85132     155.6404     311.8713      2.309     5.22     850.9415     55.00521     93.34351         8     1.651     0.467  34.85   0
       139    963.1415    794.7371 307.5183809  +6.3741870     1529.362     3070.044     2866.892     78.34719     156.0132     312.0885      1.909     6.74      847.842     55.00521     205.2986        24     1.885     0.868  36.68   0
       140    253.9233    782.1194 307.8132183  +6.3556212     746959.6      1820868      2087327     78.47067     156.3232     312.2126      2.458     7.91     848.2939     55.00521     64347.63       590     2.728     1.900  33.45   4
       141    891.7522    793.5464 307.5480572  +6.3722929     611.0342     1000.754     514.5318     78.22352     156.0753     312.0885      1.510     3.50     849.5133     55.00521     116.9473         5     0.740     0.477  14.57   0
       142    660.0349    791.4354 307.6443214  +6.3654097     5132.614     9576.412      10395.8     77.97559      155.827     311.8092      1.948     6.52     850.9054     55.00521       754.77        36     1.963     0.896  32.03   0
       143    448.7112    789.5021 307.7321114  +6.3591201     1346.124     2438.806     2732.204     78.22352     156.5089     312.0575      1.868     6.50     848.9986     55.00521     206.2123        17     1.769     0.670  37.52   0
       144    173.5269    788.7388 307.8463682  +6.3501836      627.636     908.3046     1212.465     78.34719     156.0753     312.0885      1.986     5.36     846.9143     55.00521     80.99121         9     1.589     0.511  30.06   0
       145    612.9568    783.4857 307.6641313  +6.3671134     736.8144     1277.257     1511.683     78.22352     155.9512     312.0575      1.801     5.41     850.1508     55.00521     139.7015        10     1.563     0.529  33.01   0
       146    695.1817    781.5297 307.6300628  +6.3706758     2011.062     3596.647     3661.625     77.72686     155.9512     311.9954      1.824     6.81     851.0446     55.00521     308.9531        22     1.804     0.803  30.44   0
       147    137.9317    781.3492 307.8613927  +6.3520351     730.6662     1463.682     1734.186     78.09965     155.9512     311.9954      2.298     3.96     845.7299     55.00521     113.3091         6     0.974     0.462  51.03   2
       148    428.8247    778.2241 307.7407455  +6.3631075     43460.23      80624.7     86323.74     77.72685     155.8891     311.9644      1.929     6.01     848.6453     55.00521     6203.594        76     2.022     1.070  33.37   0
       149    163.6021    781.7402 307.8507237  +6.3527381     884.2914     1681.118     2706.326      77.6022     155.7648     311.7781      2.855     5.80     846.4005     55.00521     147.5729        11     1.377     0.687  30.04   0
       150    971.7143    779.6789 307.5153252  +6.3806889     664.7634     890.4336     1083.345     78.09965     156.3851     312.1505      1.564     4.26     847.4006     55.00521     94.54736         7     1.129     0.458  31.70   0
       151    546.5151    777.1918 307.6919241  +6.3674834     5838.359     10539.43     11373.56     77.85132     155.7648     311.9023      1.903     5.68     848.8493     55.00521     906.1898        35     1.971     0.908  32.04   0
       152    463.4400    775.9448 307.7264525  +6.3652105     3840.137     6742.331     7700.095     78.22352     156.1373     312.0265      1.916     6.02     848.5864     55.00521     564.9824        30     1.902     0.829  34.36   2
       153    460.0292    769.3321 307.7280905  +6.3678254     1962.522      3688.74     4066.633     77.97558     156.0753     312.0265      1.970     6.24     848.3804     55.00521     292.1693        21     1.834     0.751  32.71   2
       154    791.7386    773.8041 307.5902372  +6.3770971     9247.389     17099.34     18655.27      77.6022      155.827     311.7781      1.936     5.97     850.5002     55.00521     1378.491        42     1.987     0.947  33.57   0
       155    224.0520    767.1067 307.8261234  +6.3608128      744.002     2313.197     4183.573     78.09965     155.9512     312.2746      3.663     6.33     847.5975     55.00521      105.015         9     1.886     0.597  79.65   2
       156     21.3656    770.2631 307.9101524  +6.3526830     1032.092     1863.717     1636.805     78.09965     156.1373     312.0575      1.781     6.15     844.1321     55.00521     151.2444        15     1.598     0.665  31.33   0
       157    919.2656    792.3513 307.5366753  +6.3737058     5276.927     9881.465     10836.19     78.09965     155.9512     312.0575      1.986     6.02     849.0138     55.00521     703.3104        39     2.008     0.975  31.35   0
       158    813.4904    767.9599 307.5814028  +6.3802371     1120.203      1975.46     1737.961     78.22352     156.0753     312.0885      1.836     6.72     850.1754     55.00521      173.943        14     1.607     0.789  39.73   0
       159    157.4821    766.0983 307.8537910  +6.3589882     2503.041      4456.89     5281.914     78.22352      156.447     312.1505      1.876     6.72     845.5339     55.00521     388.4386        26     1.890     0.831  32.21   3
       160    149.5018    765.9117 307.8571100  +6.3587965     9428.062     17465.87     19129.66     78.22352     156.5089     312.0885      1.983     6.05     845.4006     55.00521     1273.924        47     2.007     1.001  31.68   3
       161    141.7688    763.2060 307.8604111  +6.3596529     2440.888     4778.731      5824.44      77.6022     155.8891     311.8402      2.224     6.65     845.1329     55.00521     340.6339        26     1.899     0.855  36.13   3
       162    937.3028    762.3895 307.5301888  +6.3866758     5070.195     9346.588     10140.44     77.97559     155.7026     311.9023      1.988     5.76     847.7905     55.00521     624.5317        34     1.963     0.929  33.98   0
       163    986.6225    762.3444 307.5097152  +6.3883419     1136.574     2050.872     2448.412     77.85132     156.0753     311.8713      1.977     6.13     846.9739     55.00521     180.8264        15     1.657     0.638  30.78   0
       164    692.8080    760.1612 307.6317642  +6.3794165     1440.968     2715.744     2891.246      77.6022      155.827     311.7471      1.942     7.37     850.4534     55.00521     183.3391        22     1.856     0.820  37.37   0
       165    579.7039    759.2868 307.6787472  +6.3759869     1888.501     3578.515     3459.894     78.22352      156.447     312.0885      1.922     7.05     849.0785     55.00521     277.5425        20     1.903     0.732  35.64   0
       166    427.2707    758.5375 307.7420519  +6.3711810     995.8845     1905.027     1697.897     78.22352     156.0753     312.0885      1.908     6.48      848.086     55.00521     150.8122        13     1.418     0.831  43.56   0
       167    141.6156    756.8086 307.8606902  +6.3622882     1704.946     3124.819     3651.376     77.97559      155.827     311.9023      1.924     5.95     844.9018     55.00521     249.3306        20     1.700     0.773  31.12   0
       168    931.6724    754.5099 307.5327896  +6.3897402     2301.818      4396.91     4953.688     78.22352     156.3232     312.0575      2.099     6.52     847.6667     55.00521      320.553        26     1.928     0.821  30.95   0
       169    992.0297    753.7376 307.5077579  +6.3920751     1465.841     2920.349     2980.327     77.97559     156.0753     311.9954      2.006     6.82     846.8884     55.00521     166.4196        21     1.922     0.809  34.27   0
       170    961.1179    753.9077 307.5205854  +6.3909725     2354.723       4685.6     4931.793     77.97559     156.3851     312.1195      2.027     6.93     847.2753     55.00521       330.59        27     1.984     0.833  32.59   0
       171    683.6481    753.5826 307.6357873  +6.3818250     1272.619       2133.2     2381.535     77.72686     156.1373     311.8402      1.969     5.24     850.2068     55.00521     221.1448        15     1.710     0.640  35.51   0
       172    830.6743    751.6743 307.5748139  +6.3875341     916.1848     1538.828     1652.785     78.47067     156.3232     312.1505      1.868     5.45     849.7628     55.00521      181.561        11     1.454     0.576  42.89   0
       173    256.2603    748.7661 307.8133706  +6.3694664     1572.281     3143.909     3689.122     78.09965     156.1373     311.9954      2.100     6.00     847.5359     55.00521     253.0696        23     1.962     0.786  30.94   0
       174    905.7400    748.7081 307.5437495  +6.3912683     608.5729     1277.534     1598.259     78.09965     156.0132     312.1505      2.466     4.74     848.1594     55.00521     91.88074         7     1.279     0.498  37.34   0
       175    276.5733    744.4297 307.8050842  +6.3719395     570.0024     955.0273     844.2906     77.72686     155.8891     311.9023      1.856     5.99     847.5228     55.00521     92.97791         9     1.838     0.549  32.74   0
       176    171.8148    743.8881 307.8485895  +6.3686380     571.9615     1000.285     423.6323     77.97559     155.8891     311.9023      1.656     5.37     845.0757     55.00521     114.7275         8     1.300     0.625  52.61   0
       177    949.0881    743.7087 307.5259205  +6.3947804     771.9348     1348.702     1859.878     78.22352     156.5089     312.1816      2.141     5.73     847.2135     55.00521      114.206        12     1.751     0.527  30.49   0
       178    975.7480    741.5176 307.5149256  +6.3965754     2004.266     3783.978     4472.524     78.22352     156.0753     312.1195      2.050     5.94     846.9899     55.00521     289.5781        25     1.914     0.848  31.00   0
       179    922.7870    742.6931 307.5368735  +6.3943209     861.7738     1643.168     1625.203     77.97559      155.827     311.8713      1.908     6.38     847.5118     55.00521     146.5358        14     1.838     0.621  29.99   0
       180    695.6084    740.8578 307.6312484  +6.3874779     766.1813     1533.799      2150.08      77.6022     156.0132     311.7781      2.198     6.08     849.9899     55.00521     115.8397        13     1.781     0.583  35.10   0
       181   1017.6032    735.0469 307.4977652  +6.4006440     1285.169      2536.82     2321.785      77.6022      155.827     307.0217      1.812     7.08     846.7033     55.00521     177.8688        20     1.759     0.798  36.18  16
       182    913.3602    734.5695 307.5410586  +6.3973590     379.9182     664.9186     882.0726     77.72686     155.8891     311.9023      1.376     3.40     847.6284     55.00521     92.84009         5     1.130     0.295  21.37   1
       183    818.4993    733.4380 307.5804786  +6.3946542     1016.709     1666.225     1226.942     78.22352     155.9512     312.2746      1.697     4.27       849.58     55.00521     163.2128        12     1.295     0.667  34.47   0
       184    905.2062    730.9951 307.5445633  +6.3985618     1120.497     2328.221     2766.065      77.6022      155.827     311.9023      2.327     7.14     847.8203     55.00521     166.6044        21     2.152     0.886  34.85   0
       185    879.4225    726.0735 307.5554323  +6.3997314     933.5367     1488.375      1471.97     77.85132     155.8891     312.0265      1.617     5.73     848.4249     55.00521     137.5842        12     1.445     0.640  31.10   0
       186    861.9510    722.1863 307.5628158  +6.4007518      1336.18     2226.481     1896.887      77.6022     156.0132     311.7781      1.752     6.23     848.6886     55.00521      207.371        20     1.671     0.916  39.53   0
       187    124.8776    720.1177 307.8688746  +6.3768685     824.1692     1884.968     2246.207     78.34719     156.3232     312.1816      2.420     7.37      843.567     55.00521      130.214        15     1.751     0.868  51.49   0
       188     61.0748    721.1598 307.8953250  +6.3742886     2013.304     3732.369      4085.88     78.09965     156.0753     312.0885      1.920     6.44     843.2441     55.00521     274.5067        24     2.000     0.748  27.70   0
       189    578.6755    716.1714 307.6806204  +6.3937488     482.2165     707.2947     568.5536     78.09965     156.1373     312.0575      1.791     4.36     847.9661     55.00521     93.02112         6     1.703     0.318  39.69   0
       190    673.9411    709.7423 307.6412863  +6.3995955       5244.6     9572.463     10273.94     78.22352     156.0132     312.0885      1.913     6.19     848.4738     55.00521     813.7522        34     1.918     0.869  34.75   0
       191    620.6810    709.0533 307.6634205  +6.3980951     1160.391     2207.215     2491.176     78.22352     156.0753     312.1195      1.894     6.35     848.3705     55.00521     176.4183        16     1.717     0.661  34.24   0
       192    541.7825    709.3576 307.6961651  +6.3953239     597.9821     954.7562      872.554     77.72686     155.8891     311.8402      1.655     4.86     847.0932     55.00521     86.89392         5     1.072     0.625  63.88   0
       193    530.9876    708.9886 307.7006590  +6.3951140     705.0841     1031.329     1367.345     78.09965      155.827     311.9954      1.440     3.12     847.0735     55.00521     127.5071         7     0.880     0.516  46.24   0
       194   1010.9962    705.0580 307.5015098  +6.4128019     1896.152     3725.174     4166.007      77.6022     155.9512     311.8092      2.044     5.98     845.8415     55.00521      285.579        22     1.902     0.795  32.81   0
       195    647.9240    705.4930 307.6522299  +6.4004777     1707.541     3284.906     3677.488     78.09965     156.1993     312.0575      1.987     6.78     848.2206     55.00521     260.3508        19     1.901     0.679  33.13   0
       196    136.7856    705.7014 307.8644171  +6.3832199     2920.468     5405.688     5812.542     78.09965      155.827     311.8402      1.944     6.33     843.3157     55.00521     487.7386        29     1.985     0.883  31.85   0
       197    259.7888    705.8368 307.8133505  +6.3873043     517.9366     879.3656     947.1224     77.72685     155.8891     311.7471      1.805     3.71     845.3243     55.00521     94.78235         5     1.015     0.526  56.92   0
       198    790.7499    701.8208 307.5930573  +6.4067762     16519.08      29952.9     32125.96     77.72686     156.1373     311.9333      1.907     6.05     848.5379     55.00521     2488.031        50     2.010     0.944  33.33   0
       199    322.8819    705.3733 307.7871740  +6.3896173     469.3583     774.7828     797.3054     78.09965     155.8891     311.9954      1.904     4.29     845.5616     55.00521     115.2932         7     1.491     0.352  24.81   0
       200    920.9106    701.5728 307.5390272  +6.4112313     2973.881     5320.512     5888.542     78.34719      155.827     311.9333      1.902     5.75     847.2586     55.00521     404.0648        26     1.861     0.843  33.63   0
       201    490.0487    702.3539 307.7178774  +6.3964788     1113.208     2041.896     2194.092     78.22352     155.9512     312.0885      1.986     5.58     846.8904     55.00521     183.3484        12     1.532     0.574  38.91   0
       202    337.3311    702.6122 307.7812684  +6.3912427     481.3982     744.6277     777.1873     77.72686     155.8891     311.9644      1.726     4.85     845.5173     55.00521      98.4563         5     1.269     0.524  45.12   0
       203    518.0999    701.4681 307.7062617  +6.3977858     855.9485     1419.612     1470.089     78.22352     156.1993     312.0265      1.701     5.94     846.9393     55.00521     132.3042        11     1.529     0.648  35.38   0
       204    671.2937    694.6609 307.6428908  +6.4057318     6047.696     10758.57      11692.8     78.09965     156.0753     312.0885      1.872     5.78     847.8002     55.00521     914.1565        36     1.932     0.881  31.83   0
       205    264.1267    695.4814 307.8118981  +6.3917244     5270.163     9410.127     9825.258     78.47067     156.3851     312.0885      1.859     6.20     844.6525     55.00521     742.0756        33     1.903     0.868  35.03   0
       206    653.3489    695.3869 307.6503165  +6.4048309     997.3494      1559.33     2198.195      77.6022     156.0132     311.8092      1.971     6.62     847.7908     55.00521      145.058        14     1.534     0.801  28.68   0
       207    366.0654    694.1429 307.7696244  +6.3957041     712.2007     1106.345     1503.507     78.34719     156.0132     312.0575      1.760     4.73     845.3135     55.00521     87.56177         8     1.255     0.506  29.25   0
       208    931.3348    687.2034 307.5351797  +6.4175109     1107.973     1878.513     1411.116     77.47733      155.827     311.8402      1.747     6.15        847.1     55.00521       152.67        14     1.640     0.648  22.99   0
       209    743.0991    683.1403 307.6134658  +6.4128920     3000.704     5827.244     6220.234     77.97559     156.0132     312.1816      1.988     5.86     848.4413     55.00521     384.0128        32     1.905     0.994  40.29   0
       210    697.8083    683.1785 307.6322677  +6.4113596     924.2715     1402.453     1374.359     77.85132     155.8891     311.8402      1.554     5.05     847.7654     55.00521     132.1468        10     1.178     0.613  43.67   0
       211   1009.2940    679.6146 307.5030664  +6.4232474     7071.967     13331.92     14445.33     77.97559      155.827     311.9023      2.005     5.80      845.144     55.00521     917.1608        40     1.994     0.997  32.39   0
       212      8.0515    681.5544 307.9186716  +6.3888479      630.692     924.5989     1382.628     78.34719     156.0132     310.9386      1.398     3.81     842.4573     55.00521     117.8546         6     1.195     0.349  47.93  16
       213    947.6006    680.0012 307.5286673  +6.4210272     1868.841     3589.438     3465.672      77.6022     155.6404     311.7471      2.046     6.13      846.669     55.00521     271.3856        21     1.899     0.765  35.05   0
       214     28.2824    679.3937 307.9103462  +6.3904218     1716.811      3274.13     3433.502     77.85132     155.7026     311.8713      2.046     7.02     842.4187     55.00521     227.9435        20     1.844     0.750  28.05   0
       215    547.9980    675.4472 307.6947227  +6.4095292     1764.044     3200.966      3272.44      77.6022     155.7648     311.6539      1.781     6.00      846.697     55.00521     284.0388        19     1.841     0.648  33.49   0
       216     86.5883    674.5073 307.8863066  +6.3944040     21142.15     38424.03     41520.41     77.97559     155.7648     311.8713      1.937     5.94     842.3588     55.00521     3133.652        54     1.987     0.997  32.66   0
       217    937.5800    671.8671 307.5330996  +6.4240499     883.1225     1609.093     1484.064     77.85132     156.0753     311.9644      1.955     6.76     846.8657     55.00521      121.082        14     1.616     0.794  50.23   0
       218    516.5589    672.4270 307.7078763  +6.4097210      1012.52      1521.11     1397.588     77.85132     155.8891     311.9023      1.705     5.46      846.524     55.00521     199.8758        12     1.629     0.516  32.80   0
       219    556.9335    668.7875 307.6912365  +6.4125778     707.1136     1480.786     1957.346     77.72685     155.8891     311.9644      2.444     6.87     846.6409     55.00521     135.0065        13     1.765     0.750  45.39   0
       220    732.6420    666.7539 307.6183562  +6.4193056     2858.949     4866.253     5336.471     78.09965     156.0753     311.9333      1.861     6.06     847.9335     55.00521     409.3928        25     1.770     0.817  35.39   0
       221    754.7768    664.9457 307.6092269  +6.4207930      3332.69     6054.281     6480.946     77.72685     156.0753     311.8713      1.898     6.35     847.6878     55.00521     484.1798        28     1.978     0.779  33.38   0
       222    586.1564    662.8812 307.6793024  +6.4159957     2828.644     4956.214     5230.569     78.22352     156.0753     312.0265      1.803     6.09     846.6586     55.00521     456.9447        28     1.861     0.827  29.38   0
       223    422.0268    663.2461 307.7474304  +6.4103370      1120.69     1740.287     1484.046     77.85132     156.1373     311.9644      1.668     5.63      845.405     55.00521     182.6784        13     1.607     0.555  31.78   0
       224    330.1721    661.7194 307.7856156  +6.4078806     1225.453     2289.298     2526.662     78.09965     155.8891     312.0265      2.001     6.12     843.4679     55.00521     214.8508        16     1.774     0.593  35.57   0
       225    246.5110    662.3342 307.8203267  +6.4048133     1428.715     2431.648     2756.919     78.22352     156.2613     312.0575      1.721     6.39     843.0465     55.00521      219.608        17     1.689     0.679  33.46   0
       226    993.0149    659.9614 307.5104818  +6.4308160     6351.382     11767.06     12768.23     77.97559     155.8891     311.7781      1.953     5.91     844.9877     55.00521      854.232        40     1.995     0.951  32.68   0
       227    712.2896    658.4473 307.6270842  +6.4220527     873.4046     1274.911     1252.105     78.22352     155.9512     312.1816      1.635     6.58     847.3217     55.00521     138.3879        11     1.608     0.756  42.63   0
       228    104.2610    656.4044 307.8795803  +6.4024714     628.4575     1299.292     1723.243      77.6022     155.8891     311.8402      2.936     6.61     842.1801     55.00521     107.8926        12     1.905     0.643  49.39   0
       229    438.3742    654.4575 307.7409390  +6.4145136     2424.087     4323.677     4686.156     77.85132     156.0753     311.9023      1.895     6.66     845.2358     55.00521     347.0233        20     1.727     0.723  32.90   0
       230    151.3527    653.4175 307.8601313  +6.4052905     20026.61     36319.84     37833.26     77.72686     156.0132     311.8402      1.906     6.30     842.4175     55.00521     2881.033        49     1.957     0.970  31.95   0
       231    819.7159    653.9517 307.5826337  +6.4275041     1010.353     1808.208     1968.536     78.22352     156.0753     312.0885      1.810     6.15     846.8582     55.00521     143.6824        13     1.632     0.651  30.83   0
       232    655.2695    653.8606 307.6509112  +6.4220358     509.3548     445.0325     15.61984     78.34719     156.0753     312.0885      1.157     3.34     846.6464     55.00521     94.61469         5     0.932     0.347  43.42   0
       233    370.7704    648.6749 307.7691996  +6.4146293     673.2052     1373.106     1600.858     78.09965     156.1373     312.0575      2.054     6.74      843.778     55.00521      101.674        10     1.517     0.840  54.22   0
       234    987.9150    642.9561 307.5131675  +6.4376650     5752.366      10557.2     11662.36     78.22352     155.9512     312.0265      1.989     5.79     844.6137     55.00521     738.8109        39     2.086     0.932  34.20   0
       235     32.8441    642.4686 307.9096980  +6.4058162     879.0168     1566.277     1242.959     78.22352     156.0132     312.1195      1.875     6.43     841.9974     55.00521     134.8898        14     1.682     0.689  22.08   0
       236    581.3871    638.2439 307.6821090  +6.4260051     40189.21     71786.77      76569.9     77.72686     155.8891     311.8092      1.873     6.40     846.3452     55.00521     6041.259        67     1.990     0.979  32.62   0
       237    945.4606    639.6462 307.5309048  +6.4376130      672.556     1218.977     1336.149     78.09965     156.0132     312.1195      1.581     3.85     845.7253     55.00521     134.6748         6     1.232     0.345  30.67   0
       238    540.1802    638.1621 307.6992197  +6.4246567     520.0806      764.887     663.9184     77.85132      155.827     311.7781      1.472     4.37     846.0881     55.00521     73.40222         6     1.145     0.476  62.28   0
       239    188.9107    635.0276 307.8451588  +6.4141455     2281.135     4171.366     4090.283     78.34719      155.827     311.9644      1.862     5.83     842.4467     55.00521     399.8078        25     1.906     0.795  34.76   0
       240     81.8842    629.4173 307.8897796  +6.4128561     1104.062     1924.049     2263.725     77.85132     155.7648     311.9954      1.837     6.32     841.8635     55.00521     195.6849        15     1.725     0.650  36.78   0
       241    478.6386    622.0372 307.7253115  +6.4292472        52422     94587.61     100623.7     77.97558     155.9512     311.9333      1.886     5.96     844.6077     55.00521     7493.147        77     2.004     1.016  32.44   0
       242     22.3337    623.7071 307.9146941  +6.4132054     1461.297     2626.913     2796.847     78.09965     156.2613     312.0575      1.807     6.53     841.8121     55.00521     218.2505        18     1.861     0.642  30.85   0
       243    664.0870    618.9218 307.6484216  +6.4367526     680.8134      973.103     1064.229     78.22352     156.3851     312.1816      1.508     4.00     846.2954     55.00521     147.0248         8     1.370     0.405  24.90   0
       244    153.1906    617.0133 307.8605949  +6.4203781     1337.774     2337.821     2389.621     77.97559      155.827     311.9954      1.826     6.35     842.1773     55.00521     189.2188        19     1.760     0.793  39.20   0
       245    432.4869    614.8155 307.7447151  +6.4306783     640.6967      1360.09     1288.736     77.85132      155.827     311.9644      2.323     5.60     843.6488     55.00521     128.4615        11     2.064     0.428  34.58   0
       246    624.2039    613.4144 307.6651652  +6.4376892     637.2365     1135.084     794.5505     77.85132     155.7648     311.9333      1.602     3.76     846.2352     55.00521     104.9782         5     1.531     0.265  40.69   0
       247    946.9199    612.4244 307.5312089  +6.4488981     485.8285     836.7781     891.4155     77.97559     155.8891     312.0575      1.849     4.06     844.8395     55.00521     98.83459         5     1.120     0.421  63.92   0
       248    324.0968    611.4063 307.7898301  +6.4284433     1832.075     3496.785      4210.67     77.97558     155.7648     311.8402      2.162     5.96     842.6354     55.00521     245.8112        23     1.871     0.861  35.39   0
       249     32.3333    611.4001 307.9109581  +6.4186222     554.8355     978.3627     1442.766     77.47733     155.5782     311.7781      1.874     6.29     841.6782     55.00521     90.10266         6     1.705     0.652  24.66   0
       250    477.1036    609.9582 307.7263545  +6.4341813     755.6577     1290.812     1818.891     78.22352     156.0132     312.2126      1.822     6.30     844.1595     55.00521     119.9897        11     1.433     0.778  31.94   0
       251    750.7289    605.5293 307.6128976  +6.4451825     4265.354     7794.391     8259.941     78.22352     156.1993     311.9954      1.910     6.87     846.1476     55.00521     675.7086        34     1.915     0.889  31.72   0
       252    804.2038    600.7718 307.5908543  +6.4489360      11467.4     20488.12     21833.92     77.72685     155.8891     311.9023      1.880     6.25     846.0419     55.00521     1803.485        44     1.984     0.905  32.80   0
       253   1021.2861    601.0580 307.5007116  +6.4560735     776.1049     1376.206     1151.707     78.22352     152.0533     270.0795      1.870     5.68     842.5126     55.00521     112.8733        11     1.781     0.510  37.13  24
       254    546.9749    600.9967 307.6976461  +6.4402250     951.5881       1953.7     1934.136     77.72686     155.7648     311.9023      1.889     6.05     845.3918     55.00521     143.6472        14     1.868     0.552  35.82   0
       255    628.0330    598.7502 307.6640671  +6.4438704     2458.451     4402.134     4199.576     78.09965     156.0753     311.9954      1.890     6.15     845.7293     55.00521     356.9648        23     1.879     0.736  31.37   0
       256     49.4375    599.6373 307.9042540  +6.4240539     538.5588     818.3923      962.554     77.97559     155.9512     311.9333      2.057     3.47     841.5723     55.00521     76.67841         5     1.058     0.329  20.42   0
       257    945.7126    595.4970 307.5322760  +6.4558448     952.7665     2060.478     2535.968     78.22352      156.447     312.0885      2.589     8.32     844.4757     55.00521      134.196        20     1.871     1.213  33.46   0
       258    204.4065    593.5032 307.8401240  +6.4318062     518.2514     910.8156     1448.654     77.97559     155.7026     311.8092      1.884     5.81     842.0246     55.00521     99.77869         8     1.797     0.529  44.16   0
       259    386.6435    592.7289 307.7644904  +6.4382547     838.0123     1360.208     1416.194     78.09965     156.0753     312.0885      1.785     5.50      842.736     55.00521     130.7755        11     1.464     0.583  32.65   0
       260    240.6225    592.6921 307.8251157  +6.4333599     989.4535     1798.156     2395.788     78.22352     155.8891     311.9023      2.095     6.10     842.0741     55.00521     143.6982        15     1.944     0.539  26.59   0
       261    880.4214    583.9719 307.5597708  +6.4584197     2197.348     4012.737     4544.854      77.6022     155.8891     311.9954      2.026     6.86      845.498     55.00521     320.9946        26     2.109     0.747  30.35   0
       262    839.0358    581.5706 307.5770347  +6.4580269     1985.565     3568.958     3845.402     77.85132      155.827     311.8713      1.936     6.27     845.7084     55.00521      331.801        23     1.929     0.709  34.70   0
       263    809.9280    577.4874 307.5892571  +6.4587385     1956.346     3725.173     4537.603     78.34719     156.3232     312.0575      2.206     6.10     845.6206     55.00521     353.2469        22     1.902     0.711  29.10   0
       264    751.2614    577.0278 307.6136311  +6.4569647     568.2807     1084.425      1609.15     77.85132     156.1373     312.0265      2.182     5.67     845.7149     55.00521     92.45673         8     2.121     0.427  24.44   2
       265    267.0405    576.4846 307.8146932  +6.4409383     6410.523     11600.26      11858.7     78.22352     156.0132     312.0265      1.924     6.32     841.9559     55.00521     966.1385        33     1.906     0.856  33.16   0
       266    819.6349    572.6699 307.5853880  +6.4610517     129841.7     234271.2     250810.8     78.09965     156.0132     312.1505      1.919     6.19     845.5504     55.00521     20913.01       119     2.068     1.107  33.47   0
       267    201.1865    571.0299 307.8422177  +6.4409736     48838.19     88898.89      95856.3     77.85132     155.8891     311.9954      1.914     5.92     841.7746     55.00521     7245.079        81     2.010     1.106  31.77   0
       268    125.1627    567.3416 307.8739049  +6.4399358     5127.531     9113.195     9606.901     78.22352     156.1373     312.0885      1.893     5.91     841.5827     55.00521     693.2416        35     1.875     0.937  29.51   0
       269    990.9908    564.6793 307.5145060  +6.4700779     976.5933     1724.893     1878.026     77.85132     155.7026     311.9023      2.008     6.54     842.6578     55.00521     147.1884        14     1.549     0.776  29.73   0
       270   1010.6522    563.0618 307.5063963  +6.4714022     572.8214     894.2497     623.6205     78.22352     156.0132     312.0265      1.775     6.72     842.1024     55.00521     98.65656         7     1.559     0.811  10.61   0
       271    856.2386    559.9839 307.5706143  +6.4675125     3563.525     6507.129     6949.596     77.85132     155.8891     311.8402      1.993     6.14     845.3222     55.00521     513.3602        29     1.961     0.813  34.76   0
       272    238.8309    561.8337 307.8268984  +6.4460364     611.4985     891.3699     1320.437     77.72685      155.827     311.8092      1.391     2.61     841.7104     55.00521     123.9484         6     0.753     0.537  45.21   0
       273    374.6531    558.1824 307.7706301  +6.4521110     14066.33     25733.67     27508.66     77.72686     156.1373     311.8092      1.916     6.10     842.0969     55.00521     2129.418        49     1.968     0.972  31.02   0
       274    464.2552    558.1000 307.7334309  +6.4551548     631.9241     835.8398     986.1006     77.97559     156.0753     312.3366      1.672     4.84     842.9431     55.00521     134.4877         7     1.487     0.446  39.22   0
       275    176.5409    557.2072 307.8529156  +6.4458491     1649.213     3074.292      4114.37      77.6022     155.9512     311.7781      1.880     5.89     841.6224     55.00521     262.1336        22     1.892     0.781  37.15   0
       276    810.1817    553.2960 307.5899616  +6.4687323     4763.818     8733.993       9548.5     78.09965     155.8891     311.8402      1.966     6.25     845.1993     55.00521     656.5326        33     1.868     0.901  34.95   0
       277    540.9409    553.0040 307.7017623  +6.4598320     5279.916     9682.584     10016.74      77.6022     155.9512     311.8092      1.871     5.92     843.1337     55.00521     782.4174        31     1.923     0.821  32.67   0
       278    251.3893    554.7380 307.8219233  +6.4493877     684.8058     1163.899      979.687     77.72686     155.8891     311.8402      1.702     5.82     841.6552     55.00521      99.1817        12     1.527     0.624  27.27   0
       279    113.5080    554.1740 307.8791874  +6.4449780     790.9414     1323.697     1077.021     78.34719      155.827     311.9023      1.695     5.35     841.4565     55.00521     120.0341         9     1.471     0.549  31.38   0
       280    180.7875    553.5214 307.8512766  +6.4475135     611.6957     1217.068     2144.289     77.85132     155.7648     311.9023      2.196     4.18     841.5898     55.00521     111.7411         5     1.003     0.497  41.67   0
       281    399.5712    549.7597 307.7605675  +6.4564247     1169.414     2085.741     2687.953     77.85132      155.827     311.9333      1.839     6.84      842.305     55.00521     195.8068        16     1.754     0.747  32.24   0
       282    187.9576    546.2662 307.8485442  +6.4507494     5877.124     10591.07     11499.72     78.22352     156.0132     312.1195      1.904     5.70     841.5028     55.00521     805.6424        35     1.930     0.874  33.45   0
       283    585.7169    546.1330 307.6834017  +6.4641700     2047.231      4322.03     4365.882     78.47067     156.3232     312.1195      2.196     5.74     842.8246     55.00521     286.3812        30     1.840     1.096  14.11   0
       284     59.7399    545.0259 307.9018188  +6.4469417     4028.023      7635.88     8327.987     77.85132     156.0753     311.9333      2.012     7.45     841.1229     55.00521     595.3451        30     1.925     0.835  34.12   0
       285    868.9517    546.2523 307.5657951  +6.4736056     548.3074     905.4843     1050.388     78.34719     155.9512     312.0575      1.718     4.95     844.9991     55.00521     89.32947         6     1.263     0.549  29.05   0
       286    826.6525    545.4606 307.5833850  +6.4725176     977.7572     1667.231     1879.801     78.22352     156.0132     312.0575      2.014     6.08     845.0589     55.00521     149.4778        14     1.778     0.585  28.63   0
       287    283.1988    542.6794 307.8091223  +6.4554350     71328.58     130299.6     139393.6     77.47733      155.516     311.8402      1.917     5.83     841.4905     55.00521     10519.62        87     2.026     1.062  32.50   0
       288    572.8950    540.1827 307.6889251  +6.4661960     856.7287     1453.005     2007.969     78.09965     155.8891     311.9023      1.915     4.94     842.5687     55.00521     128.5778         9     1.400     0.494  37.64   0
       289    266.9195    537.7058 307.8160487  +6.4569402     1239.052     2398.506      2470.17     77.97559     156.3232     312.1195      2.009     6.97     841.2225     55.00521     175.6243        19     1.862     0.732  26.98   0
       290    982.7933    536.2872 307.5188587  +6.4815235     1207.063     2244.539       2628.1     77.72686     155.7648     311.8092      1.963     6.73     842.1361     55.00521       201.58        17     1.716     0.776  31.65   0
       291    806.3545    535.0402 307.5921619  +6.4761396     13329.72     23655.38     25029.44     78.09965     156.0753     311.9333      1.866     6.31     844.6722     55.00521     2025.372        45     1.993     0.901  33.47   0
       292    509.9825    533.4867 307.7152715  +6.4668491     35047.61     63961.13     71183.24     77.85132      155.827     311.9333      1.972     5.98      842.299     55.00521     5161.106        75     2.125     1.106  29.71   0
       293    660.5411    532.0121 307.6528076  +6.4725068     904.5856     1604.462     1792.412      77.6022     156.0132     311.7781      1.775     5.58     843.5178     55.00521     146.5051        11     1.767     0.496  33.80   0
       294    222.4692    529.8885 307.8347671  +6.4586711     1555.528     2625.145     2675.757     78.22352     156.3232     312.0575      1.825     5.77     840.8006     55.00521     206.0017        25     1.736     1.022  33.35   0
       295     58.0799    530.2584 307.9030060  +6.4529809      999.373     1651.076     1903.162     78.22352     156.1373     312.0265      2.014     6.40     840.8943     55.00521     140.8464        15     1.757     0.655  31.90   0
       296    731.7430    527.5013 307.6233946  +6.4767539     1240.134     2347.557     2486.233     77.97559     156.0753     312.2436      1.990     6.34     844.4262     55.00521     210.5063        18     1.802     0.792  45.59   0
       297    670.0708    528.5685 307.6489662  +6.4742475     2316.526     4279.431      4289.74     78.09965     156.0753     312.0575      1.929     6.66      843.615     55.00521      399.908        27     1.842     0.909  29.20   0
       298    680.0551    528.4000 307.6448262  +6.4746516     1177.353      2076.77     2180.218     77.47733     155.7026      311.716      1.890     6.42     843.7394     55.00521     170.3918        18     1.863     0.742  35.74   0
       299    407.6835    524.3190 307.7580544  +6.4671980      1496.37     2542.361     2638.843     78.09965     156.3232     312.1195      1.797     6.46     841.4632     55.00521      233.936        18     1.718     0.681  35.22   0
       300     88.8697    525.9349 307.8903686  +6.4558032     694.0267     1392.148     1432.735     78.22352     156.1373     312.0575      2.041     5.33     840.9834     55.00521     105.3477         8     1.384     0.580  30.08   0
       301    339.2179    522.4531 307.7865441  +6.4656672     3219.589     5909.659     5991.376     77.72686     156.1373     311.8402      1.864     5.84     840.5663     55.00521     452.2514        28     1.890     0.862  34.05   0
       302    154.2763    521.0557 307.8633775  +6.4600208     21521.64      38388.8     41290.04     78.22352     156.0753     311.9954      1.910     6.02     840.9993     55.00521     3076.182        56     1.990     0.978  33.54   0
       303    519.1779    521.8861 307.7118430  +6.4719459     1776.693     3181.339     3115.245     78.22352     155.8891     311.9333      1.901     5.63     841.8214     55.00521      297.536        22     1.860     0.726  35.42   0
       304    882.1887    520.9201 307.5611463  +6.4845044     1122.329     2051.772     2025.706     77.85132     155.7648     311.9023      1.962     5.76     844.1124     55.00521     203.8196        18     1.821     0.742  33.25   0
       305    119.4785    519.4938 307.8778776  +6.4594932     2243.428     4015.432     3776.379     77.97559     156.2613     312.0885      1.891     6.94      840.919     55.00521       310.55        21     1.709     0.839  34.65   0
       306      1.3405    520.4266 307.9268945  +6.4551255     774.0631     918.6766     918.7413     67.60049      124.073     234.7943      1.088     2.76      840.515     55.00521     173.6561         6     0.840     0.473  87.02  24
       307    979.9196    515.5531 307.5207449  +6.4899859     4118.018     7677.362     8101.389     78.22352     156.0753     312.0575      1.954     6.77     841.4837     55.00521     564.3878        32     1.926     0.876  34.88   0
       308    355.3661    516.9423 307.7800247  +6.4684847     862.9313     1292.443     1567.452     78.09965     156.0753     312.0265      1.586     3.10     840.4035     55.00521     132.0741         8     0.851     0.675  41.85   2
       309    553.1602    507.9841 307.6981999  +6.4788242      1304.53     2462.234     2484.644     77.85132     155.8891     311.8402      1.785     6.24     841.1056     55.00521     214.8043        17     1.933     0.567  35.60   0
       310     18.5757    505.4567 307.9202440  +6.4618855     21106.16     38061.74     40195.02     77.85132     156.0753     311.8713      1.919     6.29     840.4319     55.00521     3097.217        59     1.979     1.042  32.44   0
       311      2.3119    500.1709 307.9271748  +6.4635186     134570.5     181232.9       186560      77.6022     137.3325     250.0893      1.515     5.74     840.3428     55.00521     19861.01        72     1.493     1.069  53.59  24
       312    451.3070    502.1527 307.7406866  +6.4778125     35776.57     63294.35     66819.79     78.09965     156.0132     312.1816      1.875     5.86     841.0176     55.00521     5559.245        65     1.973     0.993  32.38   0
       313    428.1955    504.9542 307.7501886  +6.4758800     603.2296     1027.572     1485.202      77.6022     155.7648     311.7471      2.035     4.31     840.9019     55.00521     82.07794         7     1.148     0.462  33.23   0
       314    659.3532    501.8030 307.6543138  +6.4849361     10031.89     17879.93     19216.38      77.6022      155.827      311.716      1.865     6.14     842.4116     55.00521     1570.599        38     1.941     0.840  32.79   0
       315    299.0796    501.9827 307.8038982  +6.4727667     819.4904     1465.533     1684.244     77.85132     155.7648     311.9954      1.686     5.21     839.5259     55.00521     148.1139         9     1.467     0.524  34.61   0
       316    993.2062    500.3232 307.5157368  +6.4967161      865.598     1759.436     2048.834     77.85132     155.5782     311.9023      1.944     6.75     840.4385     55.00521     130.7126        16     1.870     0.684  34.83   0
       317    216.4294    499.7493 307.8382898  +6.4709076     16540.71     29485.58     31987.76     77.85132     156.1993     311.9644      1.932     5.70     839.5325     55.00521     2329.682        56     2.084     0.979  32.60   0
       318    182.2287    500.7857 307.8524549  +6.4693284     1367.333     2343.442     2258.589     77.85132     155.8891     311.9644      1.808     5.37     840.2117     55.00521     253.1615        17     1.750     0.639  31.68   0
       319    922.5817    499.8322 307.5450792  +6.4945591     558.9244      819.612     1012.216     77.85132     155.8891     311.9333      1.864     6.63     842.8082     55.00521     116.4163        10     1.733     0.711  21.58   0
       320    833.4037    499.6631 307.5821147  +6.4916470     808.6702     1529.348     1716.115      77.6022      155.827     311.8092      1.801     5.10     843.5804     55.00521      143.317         9     1.743     0.422  30.90   0
       321    581.1962    498.6284 307.6868728  +6.4836263     2403.466     4350.296      4864.92     77.72686     155.8891     311.9023      1.851     5.91     840.9632     55.00521     381.3073        22     1.837     0.725  33.81   0
       322    955.0410    495.7430 307.5317376  +6.4973317     3970.627     6992.764     7459.374     78.22352     156.0753     312.0885      1.839     6.25     841.6555     55.00521     578.7921        27     1.840     0.785  34.09   0
       323    628.1693    494.2038 307.6675170  +6.4870276     5482.049     9841.467     10642.46     77.72685     155.9512     311.8402      1.886     6.07     841.4651     55.00521     817.1214        34     1.928     0.848  32.99   0
       324    115.6158    494.7653 307.8803150  +6.4695696     988.6838     1623.689     1636.647     77.85132      155.827     311.9023      1.909     5.90     840.4642     55.00521     160.1435        16     1.720     0.701  37.61   0
       325    526.4241    493.4595 307.7097888  +6.4839223     573.3336     1192.275      1365.68     77.85132     156.0753     311.9023      2.481     5.21     840.5463     55.00521     87.48254         7     1.044     0.734  45.26   2
       326    977.5458    488.0436 307.5226501  +6.5012616     2727.607     4879.641     5228.231     78.22352     156.0753     312.0575      1.936     5.99     840.5332     55.00521     402.8162        24     1.846     0.789  32.85   0
       327    540.2942    485.4262 307.7042993  +6.4877035       6297.9     10992.35     12031.95     78.34719      155.827     311.9023      1.843     5.83     840.0319     55.00521     975.3422        32     1.860     0.840  32.65   0
       328    416.0128    486.7208 307.7558598  +6.4829967     598.5592     1301.255     1691.696     77.85132     155.7648     311.8713      2.926     5.54     840.0207     55.00521     113.9681        10     1.769     0.490  32.89   0
       329    386.3885    485.4669 307.7682024  +6.4825188     2226.303     3889.782      3757.54     77.72686     155.9512     311.9333      1.801     5.77     839.4794     55.00521     315.8094        22     1.736     0.738  34.95   0
       330    755.3338    484.6040 307.6150362  +6.4952502     573.3724     818.7222     572.3544      77.6022      155.827     311.8402      1.430     4.14     842.5352     55.00521     97.87781         6     1.116     0.439  55.57   0
       331    896.7546    481.1448 307.5564287  +6.5014093     2512.903     4864.417     5380.796     78.22352     156.0753     312.0575      2.037     5.99     842.8103     55.00521     356.3649        28     1.983     0.857  34.17   0
       332    549.2046    481.9618 307.7007158  +6.4894325     517.7603     926.4411     858.8541     77.35226      155.827     311.8092      1.713     3.90     839.8819     55.00521     78.06549         5     0.836     0.520  38.98   0
       333    904.2162    475.6920 307.5535127  +6.5039095     1727.361     3136.089     3227.136     77.97559     155.8891     311.9333      1.768     6.35      842.446     55.00521     264.6156        18     1.827     0.621  34.98   0
       334    943.5671    474.8907 307.5371993  +6.5055554     990.6827     1943.742     1707.972     78.34719     155.9512     312.0575      2.145     6.47     841.4037     55.00521      155.541        16     1.876     0.626  44.58   0
       335    122.9694    474.8228 307.8779340  +6.4780485     571.5873     1157.827     1091.522      77.6022      155.827     311.9023      2.043     5.99     840.0148     55.00521     98.21674         8     1.673     0.604  50.04   0
       336    728.1105    471.5497 307.6267777  +6.4997269     2359.973     4223.576     4510.514     78.22352     155.8891     312.1816      1.927     6.46     841.8898     55.00521     349.5953        23     1.991     0.662  32.82   0
       337     89.8774    470.7865 307.8918099  +6.4785993      1646.88     3019.786      3182.89     77.85132     155.7648     311.8713      1.918     6.08     839.9713     55.00521     259.6107        22     1.663     0.926  31.21   0
       338    439.4405    470.1025 307.7466908  +6.4906429     913.1562      1692.48      1679.04     78.22352     155.9512     312.2746      1.836     6.24     839.5301     55.00521     130.9237        13     1.769     0.618  30.41   0
       339    399.1797    469.8937 307.7634149  +6.4893766     3200.468     5605.922     5789.239     78.09965     155.8891     311.9023      1.838     5.21     838.9157     55.00521     481.6586        25     1.809     0.794  33.21   0
       340    626.8163    466.4096 307.6690110  +6.4984546     8412.552      15168.1     16050.28     77.97559      155.827     311.9644      1.874     6.50     840.4338     55.00521     1358.279        40     1.990     0.885  33.24   0
       341    789.5328    462.9469 307.6015609  +6.5053342      13651.8     24337.37     26270.74     78.22352     156.0132     311.9644      1.867     6.16     841.7941     55.00521     2039.183        44     1.947     0.904  33.36   0
       342    309.2398    463.4598 307.8009759  +6.4890088     2366.549     4129.796     4403.807     78.22352     156.0753     312.1505      1.887     6.02     837.5827     55.00521     325.9078        22     1.591     0.889  30.30   0
       343    433.0603    462.8818 307.7495826  +6.4934090     618.2334     936.5505     559.6765     78.34719     156.0753     312.0885      1.474     4.49     839.0933     55.00521     111.7777         7     1.048     0.547  33.05   0
       344    818.3717    459.9987 307.5896844  +6.5075162     1043.107     1951.196     1916.092     77.72685      155.827     311.8713      2.048     5.68     841.8547     55.00521     175.6338        13     1.882     0.483  36.32   0
       345    392.4368    459.9703 307.7665483  +6.4932459     1455.683     2489.881     3232.701     77.85132      155.827     311.9023      2.014     6.06     838.2559     55.00521     225.4792        18     1.758     0.669  36.95   0
       346    974.4778    457.7005 307.5249383  +6.5136838     1497.601     2533.771     2980.224     77.97559     156.2613     312.0885      1.745     5.64     839.7679     55.00521     219.8542        18     1.699     0.730  31.37   0
       347    793.3831    458.2099 307.6001207  +6.5074183     1253.625     2329.836     2581.542     77.97559      155.827     311.9333      2.009     5.86     841.6157     55.00521     217.5594        15     1.614     0.599  28.95   0
       348    126.8800    454.9428 307.8769805  +6.4863856     3768.862     6604.768     7050.014     78.22352     156.0753     312.0575      1.863     5.47     839.3616     55.00521     613.4023        28     1.809     0.846  34.05   0
       349    381.1631    456.0415 307.7713615  +6.4944886     597.1629     968.8947     1360.685     77.97559     156.0753     311.9333      2.177     4.94     837.8419     55.00521     86.85199         8     1.331     0.520  40.29   0
       350    765.1435    453.8445 307.6119933  +6.5082750     2038.085     3615.675      3881.89     78.22352     156.0753     312.0575      1.970     6.81     841.3571     55.00521     288.3646        22     1.859     0.723  31.53   0
       351    284.8418    452.1029 307.8114886  +6.4928757     1305.639     2113.881     2118.685     78.22352     155.9512     312.2746      1.540     6.03      836.933     55.00521     222.6005        15     1.621     0.631  33.58   0
       352    363.0660    449.7286 307.7790881  +6.4964861     2684.221     4750.607     5043.066     78.22352     156.1373     312.1195      1.799     6.08     837.1769     55.00521     455.2014        25     1.924     0.731  33.04   0
       353    718.6276    447.4692 307.6315224  +6.5093488     1271.797     2214.761     2470.198     77.97559     156.0132     311.9644      1.911     6.23     840.8154     55.00521     206.6844        15     1.657     0.659  34.74   0
       354    421.4012    445.3294 307.7550137  +6.5002621     541.8633     716.6293     969.1338      77.6022     155.6404     311.9023      1.606     4.47     837.9819     55.00521     99.34375         7     1.095     0.519  48.01   0
       355    251.0730    445.3727 307.8257366  +6.4945174     747.6176         1403     1289.039     77.97558     156.0132     311.9954      1.809     5.68     836.6712     55.00521     127.4648        11     1.742     0.522  31.82   0
       356    562.3880    441.3135 307.6966061  +6.5066526     478.4828     360.9458     511.8279     77.85132      155.827     311.9333      0.976     3.77     838.7358     55.00521     100.5264         5     0.926     0.441 -14.71   2
       357    559.5225    439.5556 307.6978550  +6.5072821     692.0256      813.702     643.3433     78.09965     156.0753     312.0575      1.203     3.46     838.6823     55.00521     128.6032         6     0.873     0.482   3.57   3
       358    482.6086    438.5221 307.7298272  +6.5051274     1096.188     1846.967     1640.288     77.85132     155.5782     311.9023      1.778     6.19     838.7678     55.00521     166.4313        14     1.755     0.614  34.61   0
       359    844.9080    437.2977 307.5794252  +6.5177741     1256.699     2563.838     2940.985     78.22352     156.5708     311.9954      2.022     6.70     840.9112     55.00521     182.6854        18     1.888     0.667  31.75   0
       360    830.7669    436.5201 307.5853234  +6.5176220      1562.27     2670.664     2457.142     78.09965     156.0753     312.0575      1.825     6.38     840.8923     55.00521      258.408        19     1.841     0.673  35.35   0
       361    727.8011    434.4720 307.6281487  +6.5150209     12230.45     21824.24     23833.25      77.6022     155.6404     311.9023      1.902     6.45     840.3816     55.00521     2045.082        50     2.281     0.881  34.54   0
       362    629.2521    435.9421 307.6690216  +6.5111120     639.5477     754.7583     1013.981     78.22352     156.0753     312.0575      1.748     3.36       839.33     55.00521     107.2927         5     1.005     0.326  46.79   0
       363    648.9633    430.6865 307.6610129  +6.5139420     2238.394     3942.952     4620.512     78.22352     156.0132     312.0575      2.034     5.51     839.3754     55.00521     345.9309        24     1.894     0.813  24.43   2
       364    621.4490    425.8017 307.6726020  +6.5150359     12575.94     24880.75     30261.95      77.6022     155.7026     311.6539      2.296     8.84     838.8632     55.00521     1976.433        57     2.750     0.867  33.54   0
       365    953.3608    424.5571 307.5348154  +6.5266588      3085.77      5565.75     5557.623     77.97559     156.0753     311.9333      1.829     6.30     839.3129     55.00521      472.454        27     1.818     0.812  35.67   0
       366    392.3920    420.5351 307.7678928  +6.5095214     24328.26     43052.55     45600.75     77.72686      155.827     311.9333      1.880     6.11     836.1309     55.00521      3840.14        59     1.991     0.964  32.29   0
       367    138.4120    419.9984 307.8733702  +6.5011972     1965.419     3505.306     3326.397     77.85132     155.7648     311.8402      1.841     6.08     838.0209     55.00521     264.5632        23     1.871     0.804  37.01   0
       368    908.7145    419.7641 307.5535157  +6.5271450     1412.807     2629.718     3514.173     78.22352     156.0132     312.0575      2.538     7.68     839.7791     55.00521     233.2822        22     2.260     0.738  36.31   2
       369    922.1992    414.8920 307.5480789  +6.5296068     3940.963     7137.082     7738.286      77.6022     155.6404     311.8092      1.901     6.34     839.5428     55.00521     618.3329        29     1.923     0.938  26.28   0
       370     71.7672    415.5308 307.9011929  +6.5007951     1275.225      2469.12     2731.701     78.09965     156.0753     312.0885      2.251     6.22     838.7068     55.00521     210.2793        16     1.804     0.602  27.41   0
       371    602.8234    415.5899 307.6806788  +6.5186264      521.775      775.171     1050.092     77.85132     155.8891     311.9333      1.711     3.92     838.3002     55.00521     90.94574         5     0.896     0.491   2.65   0
       372    249.9209    411.1304 307.8273679  +6.5086121     11622.11      20793.1     21965.95     78.47067     156.3232     312.0265      1.894     5.55     835.0376     55.00521     1632.999        47     1.952     0.967  32.20   0
       373    744.6854    404.5658 307.6221396  +6.5279304     660.6833     973.0117     1311.772     78.22352     155.9512     312.0575      1.451     4.58     839.3417     55.00521     117.5577         8     1.448     0.411  31.05   0
       374    713.0912    404.1337 307.6352739  +6.5270506     596.7026     1164.431     1449.256     78.22352     156.2613     312.0885      2.144     5.45     838.9514     55.00521     103.6241         9     1.415     0.593  38.24   0
       375     85.0985    404.9779 307.8960134  +6.5056001     669.5892     1088.809     899.3726     78.09965      155.827     311.8402      2.005     4.16     838.2401     55.00521     127.1394         6     1.226     0.402  35.53   0
       376    972.0964    402.5307 307.5277716  +6.5363764     703.2241     927.1686     942.7141     78.09965     156.1993     312.0575      1.348     4.75     838.1909     55.00521     133.0521         8     1.006     0.746  32.03   0
       377    362.9296    400.8813 307.7807877  +6.5166433     1160.885     2116.206     2357.102     78.47067     156.3851     312.0885      1.766     6.12     834.3794     55.00521     212.8023        18     1.795     0.793  28.92   0
       378    195.8497    401.0416 307.8501596  +6.5109560       792.23     1492.883     1339.046     78.34719     156.0753     312.0265      1.979     4.99     835.8221     55.00521     114.8148         9     1.201     0.588  25.36   0
       379    150.1325    399.6927 307.8691881  +6.5099731     4411.283     8033.088     8652.207     78.09965     156.1993     312.0885      1.922     5.99      837.085     55.00521     617.2268        34     1.907     0.916  31.09   0
       380    447.7018    398.4533 307.7456683  +6.5204938     595.7617     995.0179      783.268     78.09965     156.0753     312.2746      1.573     5.01      835.909     55.00521     119.3904         9     1.607     0.441  28.16   0
       381    254.9042    398.6541 307.8257187  +6.5139293     1124.123      1936.27     1936.832     78.09965     156.0753     312.3056      1.695     6.22     834.4819     55.00521     186.0615        13     1.577     0.708  30.59   0
       382    835.0513    395.4946 307.5849177  +6.5346992     673.7062     993.9162     1292.434     78.09965     156.0132     312.2746      1.608     3.66     839.3604     55.00521     139.0738         5     0.923     0.485   8.74   2
       383    172.1361    395.5097 307.8601926  +6.5124407     2012.235     3948.444     4073.585     78.09965     156.2613     312.0885      2.030     5.64     836.4123     55.00521     265.9691        28     1.778     1.016  38.30   0
       384    567.8917    394.6880 307.6958858  +6.5260822     735.1241     1172.522     777.9655     78.22352     156.5089     312.1816      1.592     5.49     836.6267     55.00521     134.8203        11     1.561     0.545  31.82   0
       385    395.7141    390.3022 307.7675299  +6.5221117      1902.77     3282.495     3149.482     78.22352     156.5089     312.1195      1.814     6.14     834.3751     55.00521     328.0369        22     1.864     0.727  28.77   0
       386    283.9426    390.4356 307.8139377  +6.5182985     623.9722     1190.793     957.5394     78.09965     156.0753     312.0885      1.434     4.58     833.6475     55.00521     124.9083         8     1.712     0.348  25.48   0
       387    984.5208    389.6957 307.5230411  +6.5420893     869.6521     1502.467     1727.648     77.97559     156.3232     312.0885      1.928     6.12     837.4439     55.00521     128.4742        10     1.653     0.638  27.57   0
       388     13.2430    389.8302 307.9263602  +6.5094292     624.2734     801.9736      638.429     77.85132     156.0132     311.9023      1.342     2.92     837.6277     55.00521     132.9887         7     0.841     0.580  51.81   0
       389    329.1904    388.0909 307.7952279  +6.5207882     522.3845     1018.636     1548.802     77.97559     155.7648     311.8092      2.325     4.31     833.4596     55.00521     85.95935         5     0.759     0.698 -73.52   0
       390    449.5197    383.9005 307.7454024  +6.5265616     6248.364     11011.38     11522.05     78.09965     156.5089     312.0885      1.810     5.86     835.0634     55.00521     940.3976        32     1.894     0.811  34.07   0
       391     45.7179    385.0042 307.9130388  +6.5125164      2580.18     4861.646     5394.979     77.72685     155.7026     311.7781      1.922     6.07     837.4089     55.00521     342.4981        26     1.728     0.918  31.33   0
       392    790.1871    381.2032 307.6040269  +6.5390969     10720.64     18819.93     19931.98     77.85132     155.7648     311.9333      1.857     5.80     838.9053     55.00521     1668.632        41     1.946     0.874  32.72   0
       393    782.1871    382.8453 307.6072941  +6.5381513     1543.371     2849.135     3248.946      77.6022     155.8891     311.8092      1.976     6.38     838.8679     55.00521     257.2152        19     1.787     0.703  32.66   0
       394    353.4679    379.6476 307.7854308  +6.5250894     888.9091     1523.957     1327.025     78.22352     156.0132     312.0885      1.922     6.83     833.0162     55.00521     144.1875        15     1.877     0.696  34.74   0
       395    965.0367    373.0183 307.5316900  +6.5483223     594.2755     1143.437      1911.24     77.72686     155.8891     311.8402      2.411     5.61     837.4908     55.00521     91.85071         9     1.391     0.638  22.96   0
       396      3.3796    370.6559 307.9311029  +6.5170104     919.1422     2310.913     3458.592     77.72686     149.2903     265.3783      3.070     7.43      836.823     55.00521     127.9146        20     1.652     1.291 -63.20  24
       397    197.7579    371.8070 307.8503522  +6.5230867     673.7192     1146.812     1187.697     77.72686      155.827     311.7781      1.793     4.50     834.8161     55.00521      92.9859         8     1.102     0.522  33.87   0
       398    470.1080    368.3170 307.7373767  +6.5336852     1931.334     3450.371     3299.191     77.97559     156.3851     312.1816      1.872     6.59     834.4475     55.00521     258.1017        21     1.886     0.700  30.87   0
       399    497.7644    367.5130 307.7259192  +6.5349456     2583.359       4662.7     4797.783     78.22352     155.9512     312.0575      1.908     5.98     834.6913     55.00521     415.1194        23     1.838     0.735  33.68   0
       400    925.7034    367.1237 307.5482216  +6.5494410     653.3749     1090.881     1391.294     77.85132     156.1993     312.0885      1.333     3.35     838.4542     55.00521     115.4355         5     0.945     0.343  49.08   0
       401    855.5146    364.1059 307.5774705  +6.5483398     26911.86     50011.46     53737.72     78.22352      156.447     312.1505      1.989     5.96     838.5148     55.00521     3963.527        62     2.008     1.094  37.32   0
       402    347.5750    359.6001 307.7885523  +6.5331659     814.7126     1391.806     1831.445     77.72686     155.7026     311.8713      2.109     5.91     831.9076     55.00521     130.0507        11     1.337     0.734  36.43   0
       403     72.9546    359.9283 307.9025754  +6.5237846     566.4634     828.8941     426.5145     78.09965     156.0753     312.0575      1.372     3.77     836.3527     55.00521     106.0759         5     1.071     0.380  34.49   0
       404    627.2086    356.5186 307.6725346  +6.5438262     2228.303     3933.846     3895.926     77.85132     155.7026     311.9333      1.889     6.81     835.0129     55.00521     328.4941        20     1.983     0.655  33.63   0
       405     35.4577    356.9881 307.9182445  +6.5237337     1119.857     1780.936     2176.285      77.6022     156.0132     311.7781      1.754     5.95     836.2275     55.00521     148.3519        13     1.690     0.589  32.75   0
       406    711.9623    350.1255 307.6375530  +6.5493053     66063.74     117578.1     125209.2     78.09965     156.1373     312.0885      1.890     5.68     836.6226     55.00521     9690.945        82     2.015     1.006  32.74   0
       407    869.8629    351.3435 307.5719392  +6.5540875     978.9289     1591.452      1893.22     78.34719     156.0132     312.0885      1.890     5.42      838.114     55.00521       184.75        11     1.605     0.529  34.94   0
       408     91.2285    349.6766 307.8953332  +6.5286319     1104.022     1854.703     1459.683     78.09965     156.1373     312.0575      1.873     5.69     835.9679     55.00521     178.6714        17     1.715     0.685  28.69   0
       409    953.5272    347.0453 307.5373383  +6.5586585     725.1677     1317.422     1410.384     78.09965     156.1373     312.0575      2.132     4.31     836.9601     55.00521     129.5173         8     1.532     0.346  47.83   0
       410    574.4601    346.8728 307.6947632  +6.5460386     2307.617     4251.212     4242.748     78.34719     156.0753     312.0885      1.879     5.94     833.6783     55.00521     336.5879        24     1.772     0.786  30.81   0
       411    111.6586    345.7467 307.8869824  +6.5309425      5046.78     9328.139     9418.427     78.34719     156.0753     312.0575      1.910     6.11     835.6423     55.00521     825.5748        33     1.926     0.881  33.72   0
       412    772.3992    344.5698 307.6126410  +6.5536223     485.0241     764.5284      806.132      77.6022     155.8891     311.8713      1.622     3.46     837.4431     55.00521     74.24603         5     1.123     0.308  69.37   0
       413    557.6766    343.0096 307.7018626  +6.5470701     6106.412     10810.48     10776.37     77.85132     155.7026     311.8713      1.837     5.65     833.3619     55.00521     878.7308        30     1.883     0.807  35.49   0
       414    286.7419    340.7193 307.8144488  +6.5389130     2128.556     3712.055     3911.781     78.22352     156.0753     312.0265      1.913     6.23     831.3959     55.00521     341.9142        23     1.785     0.773  32.28   0
       415    420.5624    338.2180 307.7589627  +6.5444444     21899.29     38905.32     41345.57     77.85132     155.9512     311.8092      1.891     6.09     831.9342     55.00521     3312.627        52     1.981     0.966  33.72   0
       416    528.3756    336.9971 307.7142324  +6.5485686      1066.56      2026.36      1889.04     77.85132     155.7648     311.8713      2.028     6.91     832.8882     55.00521     162.5544        17     1.886     0.710  35.76   0
       417    400.7089    336.4624 307.7672662  +6.5445020       915.46      1895.75     2551.268     78.22352     156.1993     312.1505      2.480     5.90     831.5353     55.00521     150.8122        13     1.883     0.520  35.35   0
       418    598.2261    336.6734 307.6852361  +6.5510456     517.6278     1002.881     667.6422     77.85132     155.9512     311.9954      1.799     3.40      833.389     55.00521     88.51996         5     0.763     0.439 -15.28   0
       419    499.8883    333.3926 307.7261834  +6.5491002     962.0201     1722.593      1686.34     77.72685     155.7648     311.8092      1.827     5.59     832.5884     55.00521     132.9854        12     1.542     0.572  36.40   0
       420    815.2324    330.8466 307.5953126  +6.5607203       749.43     1261.655     1104.684     77.97559     156.0753     311.9644      1.893     5.38     837.3493     55.00521     127.4844         9     1.599     0.511  36.63   0
       421    509.6592    328.6250 307.7222860  +6.5513960     7174.178     12929.61     13569.43     77.85132     156.0753     311.9023      1.879     5.97     832.3856     55.00521     1100.988        35     1.911     0.866  31.25   0
       422    397.0531    330.2018 307.7689948  +6.5469632      591.676     968.6992     1840.259      77.6022      155.827     311.6539      1.954     4.06     831.2251     55.00521     110.2824         6     1.210     0.389  35.24   0
       423    778.8394    327.4165 307.6105411  +6.5609181     2635.602       4682.5     4798.115     77.85132     155.9512     311.8402      1.874     6.22     837.0447     55.00521     433.0321        26     1.892     0.764  37.02   0
       424    934.5083    327.2946 307.5458972  +6.5661753     702.9803     1404.908     911.6448     78.22352     156.5708     312.0575      1.906     5.53     836.3325     55.00521      123.077        12     1.797     0.480  32.21   0
       425    725.2186    326.0304 307.6328556  +6.5596947     535.0125      924.934     921.3342     77.85132     155.8891     311.9333      3.396     5.40     836.1952     55.00521     107.1592         7     1.886     0.436  36.75   2
       426    336.2480    325.4059 307.7944064  +6.5468986     918.9514     1657.823     1525.386     77.72686     155.8891      311.716      1.929     6.35      830.482     55.00521     145.8121        13     1.572     0.722  38.32   0
       427    448.6943    319.2021 307.7479196  +6.5532383     438.5619     702.8651    -25.85154     77.72686     155.7648      311.716      1.652     4.80     831.4305     55.00521     95.86414         7     1.671     0.390  33.93   0
       428    271.6382    319.0102 307.8214516  +6.5473652     517.3861     799.0389     628.8247     77.47733     155.8891     311.7781      1.691     6.24      831.309     55.00521     104.0873        11     1.850     0.590  31.85   0
       429    171.7274    319.0896 307.8629377  +6.5439689     813.4261      1762.13     1843.391     78.22352     156.3232     312.0575      2.220     6.89     833.4203     55.00521     119.6807        15     1.927     0.690  32.36   0
       430    399.5591    312.8613 307.7685373  +6.5542047     6171.027     11016.94     11501.57     78.22352     156.0753     312.0885      1.890     5.72     830.5877     55.00521     861.1121        35     1.943     0.858  33.15   0
       431    255.3326    313.2640 307.8284162  +6.5491882      1841.91     3095.059     2995.664     78.22352     156.0753     312.1195      1.809     5.66     831.4265     55.00521     314.1505        22     1.900     0.726  32.88   0
       432    753.0119    312.4846 307.6217673  +6.5662167     1023.652     1417.672     1664.146     77.85132      155.827     311.9023      1.523     5.94     836.4244     55.00521     174.4192        13     1.546     0.643  35.53   0
       433    767.4266    308.6533 307.6159094  +6.5682807     44912.84     79662.91     84519.45     77.97559     156.1993     311.9644      1.874     6.33     836.4492     55.00521     6883.364        68     1.997     0.981  33.47   0
       434    438.9359    308.2078 307.7523416  +6.5574484     1974.835     3591.959     3344.849     77.72685      155.827     311.9023      1.793     5.76      830.839     55.00521     308.6899        22     1.831     0.715  33.17   0
       435   1002.3682    305.6972 307.5184372  +6.5773572     1372.099     2399.982     2145.459     78.34719     155.9512     312.1505      1.898     6.29     833.9951     55.00521     180.7909        19     1.733     0.735  30.62   0
       436    943.2645    304.8723 307.5430108  +6.5757231     1819.557     3039.784     3128.072     78.22352     156.0753     312.0885      1.822     5.80     834.8572     55.00521     312.8593        20     1.751     0.727  35.87   0
       437    584.9625    305.4284 307.6917930  +6.5634973     935.8364     1616.238     1407.097     77.72685     155.7648     311.9023      1.858     5.69     831.7627     55.00521     143.0717        12     1.589     0.573  38.24   0
       438    475.8833    304.3373 307.7371283  +6.5602869     863.2245      1716.76     2402.841     78.34719     156.0753     312.0265      2.058     6.31     830.8262     55.00521     149.7811        13     1.912     0.586  34.15   0
       439    425.6683    303.6968 307.7580030  +6.5588646     1742.658     3033.981     3574.347     78.09965     156.1993     312.0575      1.995     6.68     830.5978     55.00521     267.6492        20     1.819     0.703  30.96   0
       440    304.9888    303.1849 307.8081351  +6.5550190     640.4924     977.0685      546.952     77.85132     155.7648     311.9954      1.553     3.63     830.4143     55.00521     110.1418         8     0.917     0.835  86.68   0
       441    846.9561    298.1244 307.5832336  +6.5752882     1014.973     2122.173     2224.708     78.09965     156.1373     312.0885      2.070     6.20     835.4531     55.00521     167.8968        13     1.869     0.577  40.34   0
       442    475.8283    298.4880 307.7373476  +6.5626993     675.6676     1292.873      1983.81     78.34719      155.827     311.9333      1.925     5.33     830.4858     55.00521       118.54         9     1.455     0.551  34.20   0
       443    201.9633    295.1635 307.8511882  +6.5548625     2046.157     3752.514     4152.091     77.97559     155.9512     311.8402      1.903     5.53     831.6634     55.00521     303.4802        24     1.794     0.814  31.40   0
       444    978.4484    296.0657 307.5286932  +6.5805337     500.5588     561.8149     325.2781     78.09965     155.9512     312.0885      1.444     4.41     833.9234     55.00521     90.57892         5     1.007     0.587  20.28   0
       445    455.7264    294.9636 307.7458140  +6.5634790     1151.171     1791.609     2161.407     78.09965     156.0753     312.0885      1.638     5.96     830.2791     55.00521     169.8683        16     1.588     0.763  35.08   0
       446    765.8684    293.2689 307.6170720  +6.5745786     5042.163     8953.985     9225.881     78.22352     156.1993     312.0265      1.869     5.91      836.045     55.00521     756.2776        32     1.904     0.808  32.11   0
       447     98.1621    292.4732 307.8943834  +6.5524757     924.0737     1660.398     1538.789     78.09965     156.0753     312.1195      1.891     6.59     834.1177     55.00521     172.0875        15     1.668     0.731  35.26   0
       448    782.4027    291.1891 307.6102750  +6.5759906     2191.365     3852.829     3940.877     77.85132     155.7648     311.9023      1.910     6.97     836.0052     55.00521     360.6737        22     1.874     0.807  34.50   0
       449    356.2761    292.7583 307.7871877  +6.5610473      641.566     1126.475     943.7001     78.09965     156.0753     312.0885      2.055     4.71     828.8663     55.00521     82.38263         8     0.952     0.661   6.29   0
       450    236.4755    292.3040 307.8369528  +6.5572047     527.8126      861.996     692.9628     77.85132     156.1993     312.1195      1.538     3.32     830.9856     55.00521     115.7177         5     0.767     0.417  64.75   0
       451    371.8666    285.9877 307.7809411  +6.5643660     1603.838      3127.86      3865.87     77.72686     155.8891     311.9644      2.346     7.70     828.9619     55.00521     180.6488        24     2.063     0.804  17.83   0
       452     85.3382    286.4195 307.8999128  +6.5545421      1112.84     2087.652     2213.105     77.85132     156.0132     311.9333      1.932     7.21     834.1276     55.00521     166.3525        18     1.805     0.807  29.88   0
       453   1020.5000    282.0766 307.5116964  +6.5877124     4742.674     8696.851     9456.513     77.72685     156.1993     279.9371      1.935     6.20      833.017     55.00521     663.6281        35     1.958     0.898  32.75  24
       454    498.5341    281.9815 307.7284729  +6.5702748     1873.637     3270.421     3533.848     77.85132     156.0753     311.9644      1.825     4.87      829.844     55.00521     300.1687        21     1.750     0.778  34.35   0
       455    261.1283    277.6941 307.8272073  +6.5640645      4942.57     8792.375     9894.096     78.09965     156.1373     312.1195      1.858     5.87     830.4341     55.00521     726.3159        30     1.846     0.838  34.20   0
       456    780.5849    270.8457 307.6117115  +6.5843267     652.9339     1033.085       684.15      77.6022     155.8891     311.8092      1.812     5.29     834.6293     55.00521     107.8068        10     2.076     0.380  34.67   0
       457    237.7882    270.2660 307.8371500  +6.5663449      582.606     1167.348     1093.835     77.72686     155.8891     311.9333      1.918     5.54     830.4141     55.00521     82.18359         7     1.375     0.630  39.88   0
       458    395.4436    268.5395 307.7717369  +6.5723602     1377.481     2704.187     2827.933     78.09965     156.0753     312.1816      1.977     6.44     828.9347     55.00521     235.8174        19     1.843     0.717  37.29   0
       459    132.5464    270.1412 307.8808580  +6.5628519     501.5594     599.9155      139.922     78.34719     156.0132     312.0575      1.319     5.12     832.5873     55.00521     79.95465         5     1.149     0.644 -23.34   0
       460    982.2483    267.4273 307.5280726  +6.5924815     785.3954     1444.619     1779.971     77.85132     156.0753     311.9954      2.335     5.85     832.7683     55.00521     132.3961        12     1.765     0.547  35.01   0
       461    165.0786    264.1474 307.8675505  +6.5664219     1573.451     2942.173     2660.152     78.22352     156.0753     312.0575      1.862     7.08     831.6576     55.00521     226.4854        23     1.940     0.752  30.68   0
       462    317.3067    264.2369 307.8043307  +6.5715090      1069.87     1731.425     1960.197     78.34719     155.9512     312.1505      1.878     6.63     829.0976     55.00521      146.454        17     1.653     0.747  31.45   0
       463    574.6406    259.8570 307.6976094  +6.5819609     2084.109     3422.924     3192.433     78.22352     156.1373     312.0885      1.737     5.34     830.2648     55.00521     326.8455        21     1.614     0.759  34.33   0
       464    918.1160    258.8195 307.5549958  +6.5938914     1563.982     2803.434     3089.131     77.85132     155.7648     312.0265      1.821     6.37     832.7869     55.00521     215.5018        21     1.882     0.694  35.50   0
       465    738.3593    257.3979 307.6296987  +6.5884635     4289.394     7738.858     7626.296     77.47733      155.827     311.8092      1.851     6.08     833.5354     55.00521     725.3214        31     1.863     0.809  31.41   0
       466    679.1623    257.3015 307.6542869  +6.5865201     1806.519     3310.566      3161.23     78.22352     155.9512     312.2746      1.830     6.33     831.8278     55.00521     289.3672        18     1.811     0.621  31.24   0
       467    976.4008    257.1909 307.5308435  +6.5965114     640.4244     1021.437      1268.29      77.6022     155.7648     311.8402      1.844     5.54     832.4281     55.00521     118.1578         9     1.778     0.486  28.55   0
       468    393.4911    251.1729 307.7731318  +6.5794626     653.2234     864.4788     681.0633     78.34719      155.827     311.9333      1.660     4.38     828.4005     55.00521     111.3409         6     0.974     0.560  25.10   0
       469    934.0774    249.2724 307.5486861  +6.5983656     693.0693     1315.049     1726.421     78.47067     156.3232     312.0575      1.785     4.68     832.2682     55.00521     118.5867         8     1.631     0.381  34.59   0
       470    238.1002    242.8350 307.8379444  +6.5776774     1821.326     3664.346     3516.561     78.22352     155.9512     312.2126      2.075     7.27     829.7614     55.00521     276.3322        23     1.918     0.771  33.60   0
       471    880.6705    241.7073 307.5711203  +6.5997026     1365.215     2398.357     2739.475     78.22352     156.1993     312.0575      1.906     6.47     832.1487     55.00521     212.7299        17     1.716     0.685  32.43   0
       472    770.8610    241.0391 307.6167486  +6.5963041     1382.582     2446.831     2692.812     78.22352     156.0753     312.0885      1.842     6.03      832.411     55.00521     200.9625        15     1.665     0.614  36.39   0
       473    471.7599    232.5716 307.7412524  +6.5897698     19240.39     34870.28     37494.31     77.85132      155.827     311.9333      1.902     6.09     827.9569     55.00521     3135.899        52     1.964     0.966  33.08   0
       474    797.7311    231.6835 307.6059024  +6.6010652     11062.21     20012.24     22000.72     78.47067     156.3232     312.0885      1.951     6.09     831.8266     55.00521     1778.718        51     2.039     1.033  26.37   0
       475    332.0567    233.8708 307.7992272  +6.5845386     535.2632     925.7038     769.0693     78.34719     156.0753     312.0265      2.190     3.88     828.1261     55.00521     83.65692         5     0.818     0.528  55.79   0
       476    477.3792    227.0021 307.7391058  +6.5922573     1316.851     2353.818     2897.446     77.85132     155.7648     311.8092      1.922     6.21     827.7425     55.00521      170.261        19     1.697     0.716  35.18   0
       477    735.5407    226.8171 307.6318944  +6.6009916     574.5101     961.0546     1313.601     77.85132     155.9512     311.8092      2.002     5.25     831.2658     55.00521     92.94055         7     1.530     0.509  33.18   0
       478    159.9327    225.8751 307.8709776  +6.5820450     1977.878     3696.089     3612.553     78.34719     156.1993     312.0575      1.897     5.78     830.9844     55.00521     335.2078        22     1.769     0.774  30.52   0
       479    134.8473    225.0096 307.8814243  +6.5815571     986.3842     1672.181     1814.711     77.72686     155.9512      311.716      1.970     5.89     831.4753     55.00521     160.9963        13     1.582     0.618  39.93   0
       480    790.2087    223.6802 307.6092947  +6.6041168     595.9897     1171.993     1442.711     77.85132     155.7026     311.9023      2.062     6.67      831.274     55.00521     111.4271        10     1.974     0.632  27.71   0
       481    934.2255    221.9597 307.5495383  +6.6096442     1067.249     2054.567     2505.624     77.85132     155.8891     311.8402      2.087     5.91     831.0801     55.00521     186.0399        14     1.874     0.525  37.01   0
       482    186.5178    223.5997 307.8600139  +6.5838797     521.1517     924.4672     1104.286     77.47733     155.5782      311.716      1.993     3.45     830.3657     55.00521     93.96466         5     1.118     0.307  20.80   0
       483      1.2817    220.7266 307.9370357  +6.5788208     512.0328     509.6859     513.1851     67.45711     123.4472     234.0509      0.907     2.01     835.0682     55.00521     147.5388         5     0.690     0.438 -78.90  24
       484    595.7621    218.3091 307.6902322  +6.5998184     3930.795       7097.2     7224.452     78.34719     156.0132     312.0885      1.890     6.01     829.4973     55.00521      611.098        28     1.911     0.791  29.78   0
       485    316.4233    219.1784 307.8062141  +6.5900770     859.1739     1603.671     2105.451     77.97559     155.8891     312.0265      2.283     6.84     828.1129     55.00521     157.4337        13     1.764     0.744  33.01   0
       486    558.3895    218.1010 307.7057605  +6.5986506     1898.615     3108.395     2729.867     77.97559     155.7026     311.8402      1.760     6.12     829.2214     55.00521     285.6198        20     1.874     0.661  32.70   0
       487    400.0352    217.2818 307.7715539  +6.5936710      1237.99     2092.331     2010.367     78.22352     156.0753     312.0265      1.758     5.98     827.5897     55.00521     179.9031        15     1.693     0.595  36.27   0
       488    956.7505    215.5058 307.5403989  +6.6130609     2177.062      3702.58     4061.792     78.09965     155.9512     312.1816      1.792     5.70     830.7859     55.00521     341.9347        23     1.822     0.762  29.63   0
       489    902.8806    214.8468 307.5627948  +6.6115323     9212.818     16648.51      17539.5     78.22352     156.0753     312.0575      1.885     6.01     830.8577     55.00521     1397.091        39     1.952     0.881  31.29   0
       490    330.1506    214.9026 307.8006571  +6.5923035     729.0571     1376.131     1650.703     78.09965     156.0132     312.2126      1.714     4.97     827.9548     55.00521     144.9996         9     1.477     0.474  42.62   0
       491    989.4700    212.6902 307.5269035  +6.6153162     8144.115     14423.32     15126.84     78.09965     156.3232     312.0575      1.879     6.16     830.6389     55.00521     1116.632        36     1.907     0.897  34.90   0
       492    578.0361    214.5166 307.6977214  +6.6007892     793.4458     1287.083     1066.974     78.22352     156.0753     311.9954      1.761     6.01     829.2589     55.00521     145.0463        11     1.392     0.731  56.02   0
       493    700.9531    212.7733 307.6467302  +6.6056296     2310.806     4414.463     4785.223     77.85132     156.1373     311.9644      1.937     6.61      830.646     55.00521     406.4265        21     1.883     0.650  31.88   0
       494     28.9189    211.5318 307.9258690  +6.5835483     21833.64     39367.85     42151.51     78.34719     156.3232     312.0885      1.914     5.95     834.3557     55.00521     3486.297        57     1.962     1.021  31.95   0
       495    275.3904    212.5366 307.8234786  +6.5914379     853.9857     1564.266     1507.972     77.72686     155.8891     311.8402      1.839     6.25     828.6474     55.00521     115.5196        15     1.788     0.613  30.79   0
       496    509.6049    207.5988 307.7263742  +6.6013481     1789.971      3352.89     3528.489      77.6022     155.6404     311.8402      1.992     5.81     827.9039     55.00521     314.5719        21     1.914     0.791  31.83   0
       497    521.4583    203.5866 307.7215861  +6.6034020     2204.568     3826.705     3391.563      77.6022     156.0132     311.7781      1.888     5.93     828.0058     55.00521     334.2259        22     1.809     0.787  35.82   0
       498    841.1266    204.0780 307.5888037  +6.6139118     1800.522     3128.542     3265.646     78.47067     156.3232     312.0885      1.813     6.22     830.7878     55.00521     305.9612        22     1.814     0.773  31.19   0
       499    893.6403    203.1575 307.5670238  +6.6160482     1623.493      2974.19     3400.385     77.97559     156.0753     311.9333      1.875     6.67     830.4386     55.00521     256.8873        18     1.663     0.751  34.13   0
       500    752.9998    200.8252 307.6255144  +6.6123047     33474.73      59768.4     62916.86     77.85132     155.7648     311.8713      1.851     6.09     830.5823     55.00521     5632.027        64     1.991     0.958  32.98   0
       501    354.9811    201.4918 307.7907962  +6.5986738     3302.179      5401.06     6363.498     78.09965      155.827     311.9333      1.826     6.94     827.6745     55.00521     456.2166        20     2.001     0.675  36.62   3
       502    356.2216    198.9123 307.7903679  +6.5997802     4210.113     7859.908     9086.512     78.22352     155.8891     311.9333      2.043     6.41     827.6664     55.00521        586.9        32     2.070     0.878  38.95   3
       503    986.8105    199.6766 307.5284432  +6.6205989     2202.323     3931.606     4059.223     77.85132     155.7026     311.9023      1.908     6.19     830.0015     55.00521     394.4019        24     1.826     0.786  33.53   0
       504    920.9264    197.8869 307.5558673  +6.6191359     6234.526     11200.85     11424.73     78.34719     156.3851     312.0575      1.851     5.66     829.9819     55.00521     981.7908        35     1.912     0.847  33.66   0
       505    464.4872    196.9863 307.7454688  +6.6042134     4254.306     7877.514     8127.358     77.85132     155.8891     311.9644      1.912     5.90     827.0651     55.00521       651.53        31     1.884     0.873  37.02   0
       506   1023.6441    197.4022 307.5132208  +6.6227680     804.3217     764.0462     897.3995     67.45712     123.9169     234.8355      0.877     2.39     829.8544     55.00521     208.1857         6     0.855     0.399  69.48  24
       507    121.7584    188.4260 307.8880937  +6.5962154     3993.944     7311.353     7961.962     77.85132     156.0132     311.9023      1.954     5.83     830.9554     55.00521     614.3569        33     1.927     0.907  32.89   0
       508    941.5225    187.5067 307.5476602  +6.6241089     673.6736     1286.104     1491.562     77.97559     156.2613     312.0885      2.034     5.03     829.4131     55.00521     135.8491         9     1.607     0.445  38.08   0
       509    292.0688    185.0202 307.8174786  +6.6033563     28802.03     51892.23     55196.56     77.85132     155.9512     311.9644      1.888     5.75     828.3782     55.00521     4456.587        57     1.957     0.998  31.59   0
       510    267.3088    186.0696 307.8277262  +6.6020900     5635.471     9998.875     10719.99     78.22352     156.1993     312.0575      1.826     5.82     828.7235     55.00521      831.848        34     1.866     0.880  32.87   0
       511    618.3846    186.9775 307.6818883  +6.6135093     531.2159     996.2927     1413.891     77.97558     155.8891     311.9644      1.826     4.49     828.8777     55.00521     88.45728         6     1.209     0.473  36.87   0
       512    721.2830    184.5174 307.6392340  +6.6179735     965.3358     1637.092     2437.242     77.97559     156.3232     312.1505      1.604     5.82     830.0342     55.00521     168.1998        13     1.622     0.623  34.84   0
       513    416.1191    180.5050 307.7661110  +6.6093911     42061.63     76053.76     80469.89     77.97559     156.3232     312.1505      1.912     6.20     827.1187     55.00521     6449.546        67     1.973     1.025  32.77   0
       514    172.0637    181.8110 307.8674252  +6.6006407     3285.233     6042.607     6336.896     77.72685     155.8891     311.9333      1.867     5.99     829.8893     55.00521      592.255        27     1.878     0.802  30.58   0
       515    433.1742    180.9763 307.7590118  +6.6097696     1193.198     2274.696     2854.561     77.72686     155.9512     311.9644      1.953     5.93     826.9779     55.00521     190.7649        18     1.903     0.702  30.25   0
       516    320.1618    178.2324 307.8060398  +6.6071030     15630.66     27769.86     29966.66     77.85132      155.827     311.8402      1.887     5.70       828.05     55.00521     2247.258        49     1.946     0.953  31.33   2
       517    327.6331    178.3172 307.8029340  +6.6073193     1777.164     3754.274     5036.492     78.22352     156.0132     312.0265      2.410     5.93     827.9563     55.00521     295.4552        23     1.863     0.810  37.04   3
       518    586.5988    179.8287 307.6953297  +6.6153940     431.5354     684.9294     827.7462     77.72686     155.8891     311.8713      1.775     4.57      828.145     55.00521     79.18585         7     1.435     0.413  20.39   0
       519    755.4238    176.7239 307.6253154  +6.6223338     27918.38     49203.63     52478.55     77.85132     156.0132     312.0265      1.875     6.16     830.0072     55.00521     4518.509        58     1.985     0.937  32.46   0
       520    703.6558    178.4494 307.6467587  +6.6198876     888.3804     1295.576     1391.585     78.22352     156.0753     312.1195      1.702     5.34     829.8339     55.00521     161.9906        10     1.541     0.523  32.86   0
       521    804.0162    177.5610 307.6051051  +6.6236151     908.1741     1725.642     1820.264     77.85132     155.8891     311.8402      1.938     5.68     830.3897     55.00521     164.9017        12     1.771     0.513  32.32   0
       522     72.2305    174.0269 307.9091481  +6.6004887     7616.458     13972.42     14666.45     77.72685      155.827     311.9023      1.902     5.84     832.5555     55.00521     1170.864        38     1.927     0.902  31.80   0
       523    106.3662    172.1587 307.8950347  +6.6024107     1336.438     2428.471     2571.577     77.97559     156.0753     311.9023      1.769     6.82     830.9514     55.00521     197.8932        19     1.822     0.715  29.57   0
       524   1013.4722    170.9256 307.5183307  +6.6333568     895.9301     1702.336     1972.974     78.47067     156.1993     312.0885      2.153     5.39     828.5797     55.00521     158.2004         9     1.434     0.572  34.30   0
       525    981.8640    170.4633 307.5314746  +6.6324918     468.2318     1042.707     1225.436     78.22352     156.0753     312.0885      1.703     4.80     828.5306     55.00521     91.84204         7     1.786     0.366  28.43   0
       526    587.9062    160.0495 307.6954508  +6.6236017     592.2373     1009.077     1209.202     78.09965     155.9512     312.1816      2.426     6.93     827.4796     55.00521     111.3843         9     2.030     0.664  37.15   2
       527      5.5322    159.1119 307.9373509  +6.6043947     827.0775     1326.266     657.6029     78.34719     156.2613     291.3594      1.644     5.84     836.4057     55.00521     127.4259        12     1.596     0.602  36.17  16
       528   1014.7271    157.2380 307.5182671  +6.6390484      1924.32     3308.215     3916.434     78.09965     156.0132     312.1195      1.839     6.62     827.9324     55.00521     278.4905        21     1.935     0.691  31.75  16
       529    598.0790    155.0733 307.6913927  +6.6259969     834.4731     1499.875     1562.761     78.47067     156.3232     312.0885      1.807     5.77      827.457     55.00521     121.2736        12     1.531     0.613  26.87   0
       530    606.2336    153.0212 307.6880747  +6.6271174     1739.707     3200.267     3420.649     77.72685     155.8891     311.8713      1.824     6.59     827.5146     55.00521     302.0302        20     1.745     0.698  31.82   0
       531    350.4736    153.1775 307.7942941  +6.6184637     929.8276     1527.312     1573.557     77.85132     155.8891     312.0265      1.786     5.23     827.8204     55.00521     150.0642        10     1.442     0.536  33.50   0
       532    290.9786    151.2765 307.8190675  +6.6172471     25912.81     46986.46     50485.09     77.85132      155.827     311.9954      1.906     5.90     828.4499     55.00521     3675.426        57     1.973     0.998  32.73   0
       533     36.2602    149.8105 307.9249037  +6.6092704     3881.021     6765.237     7084.392      77.6022     155.9512     311.7781      1.818     5.78     834.1261     55.00521     622.6745        27     1.793     0.819  31.05   0
       534    722.6458    147.9180 307.6398952  +6.6331258     6808.911     11893.34      13050.3     78.22352     156.0753     312.0575      1.846     6.23     828.7513     55.00521     1056.119        34     1.928     0.814  33.64   0
       535    199.4509    148.7151 307.8571666  +6.6152232     863.9728     1555.385     1002.045     78.22352     156.0132     312.1505      1.725     5.66     829.1136     55.00521     160.4942        11     1.362     0.662  33.48   0
       536    277.2993    146.5588 307.8249076  +6.6187340      657.554     1171.062     1338.697     78.22352     155.9512     312.2746      1.971     6.02     828.6024     55.00521     114.7786         9     1.554     0.657  28.96   0
       537    133.2876    145.0103 307.8847699  +6.6145232     4042.534     7333.825      8068.29     77.85132     155.7648     311.9023      1.929     6.20     829.6682     55.00521      588.726        31     1.951     0.828  32.87   0
       538    661.7168    142.4283 307.6653858  +6.6333500     659.3634     1281.499      1118.52     78.09965     155.8891     311.9954      2.080     7.06     828.1475     55.00521     117.3754        10     1.746     0.799  39.31   0
       539    595.2813    143.1454 307.6929551  +6.6308263     704.7462     1394.401     1406.104     78.22352     156.0753     312.0885      2.371     5.70      826.873     55.00521     99.94788         9     1.544     0.593  28.85   0
       540    472.7675    142.4546 307.7438628  +6.6269994     1064.821     2067.226     1778.182     78.09965     156.0132     311.9954      1.969     6.38     825.8572     55.00521     195.0359        15     1.915     0.597  30.29   0
       541    403.9559    141.0632 307.7724891  +6.6252618     3343.011     6130.017     6479.075     78.22352     156.0132     312.0885      1.945     5.61      826.938     55.00521      507.098        29     1.905     0.848  36.35   0
       542    368.4530    139.9115 307.7872732  +6.6245438     2602.642     4816.514     5242.301     78.22352     155.9512     312.1816      1.992     6.36     827.6995     55.00521     387.1064        26     1.972     0.828  36.49   0
       543    122.6958    139.8122 307.8893440  +6.6163117     1383.304     2616.811     2899.089     77.97559      155.827     311.8402      2.125     7.61     829.7589     55.00521      212.769        23     2.165     0.749  39.24   0
       544    580.4045    138.9314 307.6992755  +6.6320666     622.7618     1141.074     1327.391     77.72685     155.7026     311.8713      1.989     5.01      826.472     55.00521      100.683         6     0.896     0.791  -0.33   0
       545    684.4316    137.5891 307.6561136  +6.6361087     742.0387      1356.79      1488.21     77.72686      155.827     311.9333      1.702     5.33     828.1692     55.00521     125.5311         9     1.640     0.490  39.49   0
       546   1015.4995    134.3948 307.5187100  +6.6485030     1243.252     2224.131     2524.683     77.97559     155.7026      311.716      1.972     6.40     827.0302     55.00521      209.316        19     1.874     0.767  43.20  16
       547    220.3445    128.7959 307.8491604  +6.6241483     4676.504     8542.607     8522.982      77.6022     155.8891     311.7781      1.895     6.36     828.9305     55.00521     705.2786        32     1.904     0.861  32.20   0
       548    103.0644    128.6019 307.8978753  +6.6202768      1781.11     3116.724     3803.337      77.6022      155.827     311.8402      1.813     6.40      829.958     55.00521     277.5915        19     1.800     0.662  33.86   0
       549    682.1240    127.5826 307.6574077  +6.6401616      5101.47     9395.933     9259.388     77.72686      155.827     311.9954      1.871     6.35      827.616     55.00521     885.0308        31     1.936     0.853  34.82   0
       550    830.2152    127.3329 307.5959059  +6.6452238     904.0443      1502.23     1669.866     77.72686     155.9512     311.9644      1.723     4.91     827.5811     55.00521      187.603        12     1.541     0.519  32.66   0
       551    634.3239    124.8676 307.6773525  +6.6396798     7967.198     14497.66     15681.53     78.34719     156.1993     312.0265      1.900     6.35     826.7082     55.00521     1304.729        39     1.928     0.909  32.80   0
       552    268.7935    125.2352 307.8291584  +6.6272489     688.2469     1289.197     1941.466     77.47733      155.827     311.8402      2.276     5.93     828.7207     55.00521     123.3586         9     1.599     0.618  23.21   0
       553    571.9539    123.9424 307.7032887  +6.6379698     578.3428     1140.098     2087.155     78.22352     156.0753     312.1505      1.953     3.68     825.7758     55.00521     76.11456         5     1.020     0.382  57.22   0
       554     32.2240    123.3313 307.9274738  +6.6200631     894.3558     1426.169     2286.114     77.85132     155.9512     312.0265      2.251     5.87     832.9568     55.00521     133.0678        10     1.240     0.783 -64.16   0
       555    361.4692    120.6443 307.7908221  +6.6322613     3069.577     6054.872     6856.249     78.22352     156.0132     312.0885      2.210     5.27     828.1185     55.00521     463.7377        35     1.915     1.185  20.96   0
       556    543.3283    119.9442 307.7153125  +6.6386595     1438.474     2656.542     2996.181     78.09965     156.0132     312.0265      1.920     6.88     825.3403     55.00521     216.3166        20     1.838     0.722  33.27   0
       557    637.8999    116.4343 307.6761503  +6.6432806     45444.46     80483.45     85668.91     78.22352     155.9512     312.2126      1.898     6.37     826.3228     55.00521      7532.77        68     1.989     0.974  32.91   0
       558   1007.2734    119.0279 307.5226405  +6.6545711     652.4655     1187.359     1339.215     78.09965     156.0132     311.9954      1.618     4.22     826.4274     55.00521     100.4081         7     1.217     0.418  35.10   0
       559    316.8161    109.9162 307.8097291  +6.6351875     3053.757     5502.958     6305.028     77.85132     155.7648     311.9644      1.908     5.99     828.6359     55.00521     453.8911        28     1.972     0.896  40.75   0
       560    716.1865    104.0763 307.6440481  +6.6510052     816.6139     1424.968     1223.492     77.85132      155.827     311.8713      1.746     3.85     826.4159     55.00521     170.3295         7     1.057     0.611  38.17   2
       561     14.4717     93.3159 307.9358600  +6.6318524     715433.4      1617282      1809301     78.34719     156.3851     312.0885      2.339    12.28     832.1066     55.00521      61345.5       445     2.470     1.699  31.94  28
       562    688.3670    103.5308 307.6556214  +6.6502982     1209.551     1981.453     1765.187     78.09965     156.0753     312.0885      1.804     6.43     826.3168     55.00521     189.2979        17     1.696     0.684  28.42   0
       563    702.3492    100.4289 307.6499179  +6.6520471     2777.826     4816.205     4865.017     77.85132     156.1993     311.9644      1.807     6.31     826.1511     55.00521     427.2761        23     1.769     0.753  36.00   0
       564    443.9457     91.3693 307.7575510  +6.6471165     3508.207     6394.556      6443.82     78.09965     156.1373     311.9954      1.828     6.33     825.6365     55.00521     532.4485        28     1.886     0.809  33.32   0
       565    898.6047     87.6557 307.5688279  +6.6638886      1768.52     3084.789     2967.097      77.6022     155.8891     311.7781      1.788     6.05      824.998     55.00521     297.6298        19     1.698     0.691  37.19   0
       566    916.5201     86.7732 307.5614158  +6.6648518     3268.677     5739.772      6261.61     78.09965     155.8891     312.0885      1.889     5.69     824.9595     55.00521      491.745        28     1.992     0.771  33.59   0
       567    596.2292     87.2218 307.6944389  +6.6539406     777.1341     1186.763     1459.724      77.6022      155.827     311.9333      1.572     5.74     824.5756     55.00521     116.8354        11     1.487     0.623  44.45   0
       568    629.0485     85.8213 307.6808542  +6.6556194      450.526     700.8332     512.3309     77.85132     156.0753     311.9023      1.527     4.34     824.8195     55.00521     68.10388         5     1.056     0.507  37.79   0
       569    608.6938     85.3912 307.6893231  +6.6551143     1459.613     2516.656     2250.909     77.85132     155.7026     311.8713      1.778     6.39      824.541     55.00521     253.9026        17     1.702     0.673  29.93   0
       570    254.3221     84.5652 307.8365388  +6.6435479     651.6613     1131.875     1556.755     78.09965     156.1373     312.0885      1.853     5.96     828.7418     55.00521     106.3183        11     1.883     0.532  25.27   0
       571    407.5294     83.3352 307.7729467  +6.6492089     1625.786     2866.578     2412.324     78.22352     156.1373     312.0575      1.822     6.51     826.6274     55.00521     232.4011        18     1.785     0.666  29.29   0
       572    155.3383     80.2609 307.8777953  +6.6419908      2776.81     4811.309     4604.935     78.22352     156.0753     312.0885      1.810     6.29     827.3965     55.00521     400.6369        24     1.838     0.738  36.65   0
       573     37.1388     77.9592 307.9269644  +6.6389554     10643.27     18981.54     20997.89     78.22352     156.0753     312.0885      1.913     5.57     830.7612     55.00521     1638.959        45     1.945     0.953  31.44   0
       574    303.3212     78.3977 307.8163952  +6.6477425     1174.704     1947.507     2417.064      77.6022     155.5782     311.8402      1.785     5.93      829.153     55.00521     178.9745        15     1.633     0.605  37.62   0
       575    563.7030     77.4164 307.7082783  +6.6568965     766.7551     1364.957     1164.332     78.09965     155.8891     311.9023      1.929     4.98     824.3111     55.00521     114.2989         8     1.186     0.591  36.72   0
       576    771.1354     76.4706 307.6221497  +6.6642400     539.1938     850.6123     1388.173     78.22352     156.1373     312.0575      3.301     4.14     824.9721     55.00521     124.5106         5     0.769     0.636  64.84   0
       577    905.3362     73.4143 307.5665084  +6.6699919     608.0232     918.8977     929.1819     77.72686     155.9512     311.9333      1.521     3.91     824.4208     55.00521     101.9776         6     0.927     0.472 -89.43   0
       578    783.9163     72.7821 307.6169645  +6.6661903     2750.235     4863.175     5046.655     77.85132     155.7648     311.9954      1.766     5.59     824.7942     55.00521     482.5022        23     1.809     0.756  35.42   0
       579    429.0676     73.4918 307.7643318  +6.6539955     919.7281     1611.377     1350.386     78.09965     156.1993     312.0885      1.872     6.06     825.9115     55.00521     144.4814        13     1.714     0.602  28.06   0
       580    839.0082     72.5928 307.5940871  +6.6681124     5256.681     9658.572     10555.75      77.6022     155.8891     311.9333      1.945     6.08     824.5555     55.00521     927.7354        34     1.876     0.873  34.94   0
       581    546.6696     70.9631 307.7155700  +6.6589885     897.3217     1632.882     1794.827     78.09965     156.1373     312.1505      1.847     5.87      824.231     55.00521     166.9572        14     1.672     0.581  40.46   0
       582     62.3580     71.1514 307.9167201  +6.6426159     867.7806     1526.921     1220.999     78.22352     156.0132     311.9954      1.625     6.25     829.6147     55.00521     154.4046        14     1.655     0.664  32.71   0
       583    438.7296     69.5056 307.7604527  +6.6559654     940.5295     1730.579     1990.649     78.09965     156.1373     312.0575      1.934     6.44      825.629     55.00521     167.6147        13     1.700     0.684  38.21   0
       584     77.4830     69.7947 307.9104840  +6.6436860     2913.347     5058.151     5559.374     77.72686     155.7026     311.8092      1.838     5.43     829.0392     55.00521     403.5758        25     1.745     0.837  30.70   0
       585    666.3041     69.5979 307.6659239  +6.6635647     515.8605     1109.344     846.9625     77.72686     155.7648     311.7471      2.022     6.11     824.5583     55.00521     98.42981         9     2.122     0.494  21.65   0
       586    601.2267     66.2463 307.6930674  +6.6627659     1061.542     1664.699     1518.618     77.85132     156.1373     311.9644      1.677     5.64     823.9683     55.00521     169.7806        12     1.604     0.558  28.43   0
       587     19.7952     65.3299 307.9345940  +6.6435827     2175.361     3908.768     5042.442     77.72686     155.7026     311.9333      2.079     5.79     830.9143     55.00521     335.8876        24     1.859     0.780  30.74   0
       588    778.6387     60.3268 307.6195741  +6.6711546      1659.31     2968.656     3372.255     78.09965     156.0753     312.1195      1.814     6.18     824.1806     55.00521     293.1224        16     1.674     0.642  29.81   0
       589    670.8171     60.6180 307.6643506  +6.6674224     479.4259     606.4183      638.785     77.97559     155.7648     311.9954      1.639     5.39     824.1869     55.00521     102.2236         8     1.494     0.548  41.14   0
       590    419.1374     60.4244 307.7688959  +6.6590553     986.9944     1712.128     1850.535     77.85132     156.0753     311.9644      1.966     5.71     826.1706     55.00521     151.6592        12     1.627     0.564  35.68   0
       591    116.8840     59.8418 307.8944553  +6.6491224     713.9602      1352.88      1475.68     78.22352     156.0132     311.9644      1.999     5.82     827.6953     55.00521      103.058        11     1.794     0.531  31.20   0
       592     91.6871     60.6864 307.9048919  +6.6479243     638.1485     986.1033     760.8719     77.97559     156.2613     312.1505      1.609     4.66     828.1691     55.00521     98.94232         8     1.257     0.491  44.49   0
       593    105.2323     54.1524 307.8994866  +6.6510778     8312.566      14699.5     15350.92     77.97559     156.0753     311.9954      1.880     5.51     827.6505     55.00521     1185.386        39     1.868     0.942  31.34   0
       594    434.3339     53.8889 307.7628037  +6.6622634     2174.403     4129.289     4001.517     78.22352     156.2613     312.0265      1.901     6.54     825.6966     55.00521     349.2891        21     1.840     0.724  31.87   0
       595    255.2946     52.9893 307.8371986  +6.6566133     607.9494     1042.146     1245.076     77.85132     155.7026     311.8402      1.470     4.22     828.6724     55.00521      94.8031         7     1.149     0.443  32.97   0
       596    271.8344     48.1279 307.8304926  +6.6591765     1300.563     2485.165     3952.777     78.09965     156.0132     312.0575      2.218     6.16     829.2027     55.00521     201.5015        17     1.769     0.639  30.58   3
       597    265.9684     42.4541 307.8331202  +6.6613209     1709.193     3243.728     5001.038     78.09965     156.1373     311.9954      2.469     6.21     829.0398     55.00521     322.6439        21     1.801     0.772  31.75   3
       598    647.9462     46.1239 307.6743369  +6.6726382      15744.2     27750.27     29582.25     78.34719     156.0753     312.0575      1.857     5.74     823.4264     55.00521     2313.451        50     1.964     0.922  33.61   0
       599    547.8546     42.1806 307.7160447  +6.6709082     4354.783     7751.579     7942.385     77.72685     156.0753     311.8713      1.836     5.97     823.7914     55.00521     678.6792        27     1.868     0.771  34.61   0
       600    634.3605     36.6403 307.6802984  +6.6760969     2543.091      5538.64     6447.333     77.97559     156.1993     311.9333      2.359     8.00     823.0471     55.00521     453.0464        34     2.298     1.005  52.08   0
       601    273.9374     38.3049 307.8299500  +6.6633016     7988.787     14663.64     16401.76     78.09965     156.1373     312.0885      1.974     5.98     829.3661     55.00521     1208.645        45     1.977     0.966  30.64   0
       602     15.2567     40.3129 307.9373238  +6.6537549     1005.483     1856.134     1458.243     78.22352     156.0753     312.1816      1.944     5.89     830.2229     55.00521      160.438        13     1.720     0.568  28.64   0
       603    519.3179     39.3517 307.7279930  +6.6711179      520.785     949.8747     1332.332     78.22352     156.0753     312.0885      2.228     6.13     823.8591     55.00521     80.63629         8     1.553     0.681  31.79   0
       604    453.3637     37.8362 307.7554392  +6.6695285     19759.63     34708.29     36889.38     77.97559     155.9512     311.8092      1.861     6.00     824.9536     55.00521     3069.099        48     1.965     0.910  31.91   0
       605    333.5951     38.6760 307.8051583  +6.6651557     841.1616     1657.399     1540.766     77.85132     155.5782     311.9333      1.863     6.20     829.9227     55.00521     162.4272        12     1.620     0.667  35.07   0
       606    931.2536     37.9050 307.5569312  +6.6855151     1588.661     2805.507     2887.979     78.09965     156.0132     312.3056      1.733     5.48     823.0208     55.00521     258.9071        19     1.751     0.703  38.68   0
       607    566.2896     37.5916 307.7085414  +6.6734209      585.784     946.4517     725.9029     77.85132     155.7648     311.8092      1.667     5.21     823.5317     55.00521      117.307         8     1.510     0.507  53.01   0
       608     39.3117     37.8251 307.9274169  +6.6555933     1953.456     3387.931     3592.784     78.34719     155.8891     311.9333      1.849     6.12     829.2714     55.00521        291.2        19     1.809     0.657  34.15   0
       609    783.5140     41.3463 307.6181851  +6.6791521     425.9304     848.8192     370.3433     78.22352     156.0132     312.1816      1.329     3.68     823.2635     55.00521     84.09436         5     1.474     0.264  44.68   0
       610    262.0302     34.8882 307.8350108  +6.6643110     2603.406     4912.145     6281.924     78.34719     155.8891     311.9954      2.220     5.76     828.9116     55.00521      440.006        23     1.771     0.772  35.55   0
       611    314.7779     32.9649 307.8131665  +6.6668799     931.4214     1691.022     1608.312     77.72685      155.827     311.8092      1.838     5.13     830.0411     55.00521     163.1884        10     1.339     0.556  32.10   0
       612    952.0758     28.2570 307.5486046  +6.6901933     747.6411     1615.562     1648.849     78.22352     156.0132     311.9954      2.338     5.86     821.9633     55.00521      113.101        12     1.726     0.559  26.77   0
       613    106.9735     26.9767 307.8996803  +6.6623528     589.9885     951.9874     648.9774     77.72686     155.9512     311.9644      1.430     2.90     826.7632     55.00521     106.5445         5     0.612     0.609 -79.31   2
       614    703.2015     27.2489 307.6520183  +6.6822808      1565.18     2720.771     2599.754      77.6022     155.7026     311.6539      1.925     5.75     822.5976     55.00521     282.4398        18     1.853     0.626  32.10   0
       615    268.7993     22.3985 307.8326199  +6.6696938     770.7145     1176.257     1928.364      77.6022     155.6404     311.7471      1.925     5.73     829.2814     55.00521     138.6898         9     1.762     0.524  33.12   0
       616    969.6027   1016.5421 307.5082890  +6.2828485     4760.091     9846.888      11067.9      77.6022     155.8891     311.8092      2.219     5.66     851.5148     55.00521     550.3359        46     2.059     1.211  38.89  16
       617      4.3906     20.3922 307.9425096  +6.6616100     808.0206     1153.561     412.5078     77.72686     155.7026     278.4111      1.635     5.07     829.9344     55.00521     142.2311         9     1.423     0.511  36.83  16
       618    723.6811   1016.9250 307.6103488  +6.2744675     737.3506     1546.429     2204.028     78.47067     156.3232     311.0008      2.531     6.57     854.5255     55.00521      108.356        13     1.705     0.761  42.79  16
       619    452.7336   1015.9426 307.7228383  +6.2657903      767.957     1551.729     1440.101     78.34719     156.0132     312.0265      2.114     7.00     854.8573     55.00521     116.2739        13     1.893     0.725  41.77  16
       620    729.5504   1014.6687 307.6079883  +6.2755953     2040.387     4251.932     5390.249     78.09965     156.0132     312.0575      2.411     6.73     854.3926     55.00521     244.5676        31     1.969     1.039  34.30  16
       621    253.7546   1016.4219 307.8054055  +6.2589071     1095.473     2020.099     2379.291     77.85132     156.0753     311.9023      2.090     6.59     854.9561     55.00521     152.9498        16     1.547     0.787  31.48  16
       622    744.9009   1013.5018 307.6016560  +6.2765908     805.6327      1459.29     2102.002     78.22352      156.447     311.9023      2.064     6.20      854.245     55.00521     135.3917        11     1.957     0.553  32.34  16
       623    375.8054   1011.9592 307.7549003  +6.2648513     1385.309      2457.95     2563.689     77.47733     155.7648     311.7781      1.814     5.19     855.2854     55.00521     200.3719        18     1.515     0.821  32.59   0
       624    762.8715   1001.6871 307.5945925  +6.2820689     6164.729     12034.42     13164.05     78.34719     156.3232     312.0575      2.075     5.72     854.0762     55.00521     754.5988        42     2.001     1.068  33.66   0
       625    558.3140   1002.3156 307.6794746  +6.2749571     3231.299     6355.684     7656.373     77.97559     156.2613     312.1195      2.243     6.14     855.1865     55.00521     432.2284        33     1.994     0.936  33.24   3
       626    555.4724    994.5006 307.6809162  +6.2780875     6714.662      12336.4     14126.67     77.97559     156.1993     312.0575      2.028     5.71     855.1343     55.00521     902.3231        43     1.996     1.038  35.21   2
       627    528.1869   1003.3965 307.6919427  +6.2735006      805.583     1511.989     2006.458     77.85132     155.7648     311.9333      2.071     6.48      855.068     55.00521     102.9891        10     1.539     0.765  40.52   0
       628    308.6175   1000.9388 307.7831562  +6.2671424     11380.24     22297.39     25411.05     77.85132     156.0132     311.8713      2.126     5.83     855.2787     55.00521      1433.84        72     2.115     1.509  20.83   0
       629    824.3557   1001.1942 307.5690891  +6.2843293     776.7854     1645.529     1417.477      77.6022     155.7648      311.716      2.049     6.26     853.6404     55.00521     109.7612        13     1.704     0.646  46.93   0
       630    433.4204   1001.3057 307.7313455  +6.2711834     674.6187     1319.018     1574.526     78.09965     155.8891     311.9023      2.206     5.66     854.8081     55.00521     128.6023        10     1.450     0.623  38.35   0
       631    279.1242    998.4569 307.7954805  +6.2671753     768.9051     1337.914     1817.251     78.22352     156.0132     311.9954      2.030     5.47     854.9911     55.00521     113.5855         9     1.151     0.733  57.68   0
       632    924.1580    995.1233 307.5278673  +6.2901714     6434.645     13246.57      15034.4     78.09965     156.0753     312.0885      2.217     5.69      852.881     55.00521     734.3218        52     2.108     1.232  33.84   0
       633    897.8222    991.3126 307.5389259  +6.2908643     8888.877      18124.6     20083.83     78.22352     155.8891     311.9644      2.180     5.88     852.8584     55.00521     1052.675        55     2.105     1.257  34.62   0
       634   1019.5171    990.7561 307.4884320  +6.2951588     3275.581     7045.328     7584.042     78.22352     156.0753     290.9271      2.282     6.47     849.2985     55.00521     380.5145        41     2.139     1.216  32.61  24
