#   1 NUMBER                 Running object number                                     
#   2 X_IMAGE                Object position along x                                    [pixel]
#   3 Y_IMAGE                Object position along y                                    [pixel]
#   4 ALPHA_J2000            Right ascension of barycenter (J2000)                      [deg]
#   5 DELTA_J2000            Declination of barycenter (J2000)                          [deg]
#   6 FLUX_APER              Flux vector within fixed circular aperture(s)              [count]
#   9 FLUXERR_APER           RMS error vector for aperture flux(es)                     [count]
#  12 FLUX_RADIUS            Fraction-of-light radii                                    [pixel]
#  13 FWHM_IMAGE             FWHM assuming a gaussian core                              [pixel]
#  14 BACKGROUND             Background at centroid position                            [count]
#  15 THRESHOLD              Detection threshold above background                       [count]
#  16 FLUX_MAX               Peak flux above background                                 [count]
#  17 ISOAREA_IMAGE          Isophotal area above Analysis threshold                    [pixel**2]
#  18 A_IMAGE                Profile RMS along major axis                               [pixel]
#  19 B_IMAGE                Profile RMS along minor axis                               [pixel]
#  20 THETA_IMAGE            Position angle (CCW/x)                                     [deg]
#  21 FLAGS                  Extraction flags                                          
         1     15.8618     29.4404 307.9281984  +6.6688988     3941.546     10505.03     13374.27     90.93178     181.4314     362.7907      2.784     6.63     1184.129      63.9414     426.9589        63     2.211     1.735 -46.62   0
         2    311.3220     24.5782 307.8054470  +6.6807875     5341.151     15691.12     19691.15     90.49911     181.1427     362.7546      2.818     6.97     1178.991      63.9414     596.0798        72     2.301     1.845 -38.33   0
         3    377.6019     22.4288 307.7779457  +6.6838874     943.1393     2697.519     2685.334     90.35443     181.1427     362.5381      2.576     9.80      1171.42      63.9414     129.6711        21     1.732     1.545   8.06   0
         4    630.0359     13.0478 307.6732416  +6.6961733     3944.646     11401.08     15023.13     90.64356     181.4314     362.6464      2.897     7.68     1157.082      63.9414      389.182        69     2.441     1.791 -33.09  19
         5    638.2860     17.6429 307.6696521  +6.6945505     4598.934     13343.46     16453.27     90.93178     181.2871     362.7546      2.819     6.95     1156.977      63.9414      496.939        68     2.244     1.831 -40.37   3
         6    639.4641      9.2295 307.6694494  +6.6980637     1453.019     3919.345     5492.896     90.64356     181.4314     362.6825      2.986     9.06     1156.786      63.9414     158.6183        33     1.700     1.553 -62.60  19
         7    802.5595     17.6813 307.6013030  +6.6999966     837.1666      2197.85     2838.632     90.93178     181.4314     362.6825      2.924     7.85     1150.522      63.9414     105.1171        12     1.608     1.073 -58.42   0
         8    238.5470     14.8360 307.8360577  +6.6823790      2783.72     8272.188     10968.62     90.78778     181.4314     362.7907      2.962     7.71     1181.659      63.9414      329.106        59     2.263     1.743 -34.07   0
         9    399.8200     13.4816 307.7690084  +6.6883231     3355.519       9789.1     12149.51     90.64356     181.0705     362.6825      2.824     7.43     1169.985      63.9414     389.9349        62     2.282     1.801 -30.22  16
        10    661.8331     10.7918 307.6600891  +6.6981629     7502.756     21445.68     32093.17     90.35442     181.2149     362.5381      3.150     8.26     1156.248      63.9414     707.6003       101     3.045     1.805 -36.01  16
        11    714.9182     12.4385 307.6379463  +6.6992486     886.5758     2038.845     2659.194     90.93178     181.5035     362.6825      2.846     7.93     1153.196      63.9414     102.9556        14     1.456     1.209 -26.02   0
        12     46.2144      6.7706 307.9163502  +6.6792754     1280.972     3713.645     4364.882     90.49911     181.1427     351.9171      2.661    10.88     1181.782      63.9414     149.2567        32     2.175     1.517 -36.58  16
        13    137.1076      4.2234 307.8786238  +6.6833692     2193.121     5999.985     7540.763     90.93178     180.3465     321.5738      2.793     7.18     1181.204      63.9414     285.0981        49     2.175     1.570 -42.39  24
        14     43.3944    991.0182 307.8837384  +6.2727863     1886.578     4232.646     4552.359     90.49911     180.9982     362.5742      2.210     6.46     1209.462      63.9414     191.9858        30     1.642     1.316 -32.09   0
        15    797.0433   1023.4788 307.5693266  +6.2844975     736.6047     1146.292     814.3647     81.68498     147.4595     276.4636      1.506     4.58     1212.603      63.9414     156.7235         6     0.985     0.604 -28.63  24
        16    736.5533   1023.2559 307.5944816  +6.2825806     4107.234     6198.423     6406.838     84.51883     151.0534     280.5971      1.596     4.70     1212.539      63.9414      689.772        24     1.643     0.824  -8.34  24
        17    532.0250   1023.4307 307.6795025  +6.2757072     1600.037     2557.825     3465.773     81.84499     148.0792     277.2197      1.849     4.96     1212.276      63.9414     309.7854        13     1.409     0.709   4.88  27
        18    528.7270   1017.2225 307.6810854  +6.2781609      5367.69     11206.14     13548.21     90.49911     181.2149     359.7487      2.302     5.50     1212.177      63.9414      593.292        49     1.979     1.382 -36.80  18
        19    282.3554   1022.9148 307.7833100  +6.2675992     8138.431      13617.6     15378.22     88.30398      156.582     286.9138      1.844     5.78     1213.399      63.9414     1092.704        40     2.017     1.004  -9.05  24
        20    937.0693    988.1708 307.5123138  +6.3037227     5578.104     10528.43     11331.04     90.64356     181.4314     362.6825      1.987     5.06     1208.219      63.9414     665.5507        40     1.825     1.138 -41.64   0
        21    911.0214    979.8284 307.5234269  +6.3063038     1534.212     3024.078      3615.49     90.20951     181.1427     362.6464      2.480     5.53       1207.9      63.9414     234.7511        19     1.604     0.883 -30.50   0
        22    631.5129    976.1803 307.6397548  +6.2985279     3202.373     6543.862     6790.995     90.64356     181.1427     362.6464      2.159     5.39     1210.996      63.9414     343.7067        36     1.807     1.283 -35.50   0
        23    244.0557    976.2986 307.8008269  +6.2855693     2745.184     6135.853     7256.059     90.78778     181.4314      363.007      2.360     5.88     1212.049      63.9414     302.1931        39     1.897     1.369 -33.87   0
        24    770.3547    976.6097 307.5820180  +6.3029646     848.6884     1776.875     1457.207     90.35443     181.2871     362.3938      2.058     5.42     1209.743      63.9414     162.1293         6     1.098     0.756  31.28   0
        25    452.0489    976.0524 307.7143682  +6.2926072     593.5063     1080.234     1654.255     91.07555     181.2871     362.7185      2.276     6.05     1211.265      63.9414     103.1693         7     1.443     0.713 -61.15   0
        26     12.7385    973.9988 307.8970658  +6.2787881     1398.072     3062.939     3405.012     90.20951     181.2149     362.3938      2.352     7.18     1209.013      63.9414     175.6143        22     1.697     1.306 -67.62   0
        27    555.6577    968.5330 307.6715515  +6.2991620     1042.493     2099.069     2293.417     91.07555     181.3593     362.7546      1.973     6.84     1211.333      63.9414     138.8904        16     1.731     0.758 -36.58   0
        28    987.9387    966.8096 307.4918910  +6.3142295     740.9826     1497.263     1654.864     90.20951     181.2871      362.466      2.269     7.15     1205.665      63.9414     125.1782        11     1.385     1.033 -41.23   0
        29     45.1731    965.7538 307.8838655  +6.2832775     531.8571     959.1773     1690.728     90.49911     181.5035     362.6464      2.061     4.49     1209.376      63.9414      79.7124         5     0.789     0.725  39.30   0
        30    597.3549    963.7689 307.6543790  +6.3025167     671.7203     1272.495     997.9609     90.49911     181.5035     362.6103      2.295     4.33     1210.965      63.9414      97.2915         7     0.974     0.548 -44.06   2
        31    275.5319    962.7933 307.7882040  +6.2921964     877.7448     2200.091     3062.745     90.35443     181.0705     362.5742      2.517     7.46     1211.712      63.9414     112.1356        15     1.439     1.082 -51.24   0
        32    879.6670    955.2058 307.5373001  +6.3154312      5202.57     10234.71     10822.06     90.35443     181.0705     362.5381      2.074     4.86      1206.81      63.9414     565.6976        41     1.836     1.203 -36.92   0
        33    317.5166    951.1902 307.7711469  +6.2983883     5879.426     13103.44     15148.63     90.49911     181.0705     362.5742      2.403     5.42     1211.523      63.9414     620.7766        60     2.101     1.506 -34.23   0
        34    415.6843    952.4250 307.7302934  +6.3011516     1250.578     2647.736     2937.218     90.78779     181.1427     362.6464      2.507     7.94     1210.823      63.9414     152.3101        20     1.728     1.085  -9.15   0
        35    237.5311    950.1459 307.8044346  +6.2961502     4322.333     9594.223     11004.66     90.93178     181.3593     362.6464      2.340     5.37     1211.253      63.9414     472.8707        50     1.919     1.483 -36.62   0
        36    896.2733    939.8521 307.5309182  +6.3223220     769.3379     1787.641     1859.896     90.93178     181.5035     362.7907      1.877     4.98     1205.421      63.9414     100.8446         8     1.798     0.391 -39.12   0
        37    731.7684    932.7693 307.5995537  +6.3197857     1083.699     2404.248     3033.989     90.35443     181.1427      362.466      2.346     7.38      1207.12      63.9414     127.6432        19     1.671     0.912 -22.78   0
        38    963.0311    928.7953 307.5035387  +6.3291012     1141.308     2301.793     3205.018     90.20951     181.2871     362.5021      2.237     6.32     1202.832      63.9414     135.0096        15     1.472     0.962 -20.99   0
        39    650.2996    926.4848 307.6336391  +6.3196730     1747.908     3662.581     4281.357     90.93178     182.0074     362.8628      2.389     5.29     1207.892      63.9414      188.776        27     1.507     1.301 -30.03   0
        40    517.4469    929.1430 307.6887820  +6.3141550     787.6182     1531.774     1823.407     90.93178     181.4314     362.8989      1.777     4.32     1210.875      63.9414     104.4087         7     1.136     0.468  42.13   0
        41     47.0809    923.4644 307.8845230  +6.3008027     2018.021     4249.689     4458.855     91.21908     181.5035     362.7185      2.286     6.23     1209.044      63.9414      234.178        33     1.798     1.375 -24.84   0
        42    190.7455    922.2574 307.8248396  +6.3061032     1367.176     3206.808     3852.467     91.07555     181.5035     362.7907      2.519     8.19     1210.312      63.9414     173.6558        23     1.603     1.200 -40.80   0
        43     64.6694    922.3833 307.8772482  +6.3018374     1256.727     2874.506     2777.739     90.35443     181.2871     362.6464      2.298     8.05      1209.06      63.9414     136.5732        23     1.738     1.170 -38.30   0
        44    644.9731    915.9601 307.6362125  +6.3238417     4228.581     9341.205     10693.92     90.49911     181.2149     362.5742      2.269     5.90     1207.716      63.9414     431.0842        44     2.006     1.310 -34.90   0
        45      4.8938    915.1521 307.9023461  +6.3028235     677.6498     1082.734     1441.866     90.78778     181.2871     330.8385      1.645     4.32     1208.707      63.9414     94.36902         5     1.062     0.501  39.19  16
        46    882.7526    912.1198 307.5374832  +6.3333250     2127.889     4248.007     4626.991     90.93178     181.4314     362.7546      2.111     5.63     1204.265      63.9414     216.5973        28     1.625     1.133 -35.49   0
        47    328.1751    909.3915 307.7681457  +6.3160030     9280.504     21690.47     25438.13     90.49911     181.2149     362.5742      2.448     5.69     1210.752      63.9414     953.4525        67     2.086     1.638 -33.58   0
        48     17.7241    912.6535 307.8970980  +6.3042845     937.4645     1644.101     1786.078     90.93178     181.4314     362.7546      1.752     6.15     1208.687      63.9414     129.4786        11     1.266     0.840   6.34   0
        49     62.7945    909.8336 307.8784580  +6.3069565     805.3925     1652.032     1443.604     90.20951     181.2149     362.5021      2.228     5.60     1208.748      63.9414     93.63525         8     1.204     0.733  12.99   0
        50    199.8170    908.6608 307.8215341  +6.3120204     813.2205     1577.644     1680.208     90.35442     181.3593     362.5381      2.010     6.34     1210.232      63.9414      129.548         8     1.193     0.945 -19.90   0
        51     91.8402    900.1162 307.8667162  +6.3119402     1191.395     2468.706     2596.323     90.93178     181.3593     362.6825      2.153     5.37     1208.608      63.9414     172.1398        14     1.275     1.056 -21.08   0
        52     75.2332    893.4292 307.8738495  +6.3141459     1608.975     3609.176      4449.46     90.35443     181.1427      362.466      2.545     6.00     1208.367      63.9414     198.6836        28     1.529     1.458 -82.43   0
        53    872.8870    893.8723 307.5422059  +6.3405325     1292.428     2674.045      2991.44     91.07554     181.7196     362.7546      2.066     7.36     1203.546      63.9414     162.1609        19     1.614     0.940 -19.06   0
        54    843.9165    893.3723 307.5542681  +6.3397777     1498.538     2968.964     2219.588     90.78778     181.1427     362.6825      2.055     6.27     1203.801      63.9414     226.4025        21     1.721     0.854 -38.63   0
        55    807.1051    892.7672 307.5695939  +6.3388057     1993.927     4297.221     5032.222     91.07555     181.2871     362.8628      2.228     6.34     1204.027      63.9414     198.5203        31     1.802     1.213 -31.06   0
        56    543.1934    884.3939 307.6796055  +6.3334899     192183.9     442720.6       518802     90.20951     181.2149     362.5742      2.443     5.65      1208.25      63.9414     19609.17       197     2.311     1.776 -35.40   0
        57    387.5160    887.0818 307.7442379  +6.3271939     4308.735     10147.13     11890.98     90.64356     181.7196     362.8268      2.484     5.79     1210.278      63.9414     427.3853        51     2.001     1.488 -30.31   0
        58    630.7578    887.9075 307.6430795  +6.3349525     793.3428     1684.922     1661.716     90.93178     181.4314     362.8628      2.005     5.65     1206.967      63.9414     92.61951         9     1.528     0.589 -81.73   0
        59    330.6811    885.5504 307.7679195  +6.3259309     7133.486     16653.52     19852.69     90.93178     181.5035     362.7907      2.529     5.74     1210.512      63.9414      709.125        62     2.094     1.602 -33.92   0
        60    881.3793    880.4188 307.5391327  +6.3463696     3797.315     7426.784     8407.258     90.64356     181.3593     362.6464      2.112     5.33     1202.609      63.9414     423.8467        38     1.856     1.185 -34.12   0
        61    649.0134    881.5174 307.6357073  +6.3381982     2148.322     4735.376     5319.567     90.49911     181.1427     362.5742      2.268     7.17     1206.317      63.9414     234.7345        36     2.040     1.217 -31.60   0
        62    623.7815    875.6035 307.6463997  +6.3398011     2027.934     4193.841     4933.133     90.49911     180.9259     362.5381      2.159     6.05     1206.548      63.9414     253.6881        28     1.786     1.126 -38.95   0
        63   1014.8558    874.4988 307.4838367  +6.3532393     3602.747     6854.125     7488.111     90.64356     181.4314      363.007      2.026     5.07     1198.027      63.9414     397.6501        34     1.766     1.127 -36.41  16
        64    813.1750    873.5996 307.5677228  +6.3469220     898.7495      1980.61     2132.837     90.49911     181.0705     362.5381      2.457     7.45      1202.64      63.9414     111.9532        13     1.548     1.003 -13.88   2
        65    616.0703    870.8732 307.6497671  +6.3414978     1277.552     3189.648     4081.373     91.07555     181.5756     362.7546      2.667     9.66     1206.429      63.9414     156.6013        32     2.225     1.294 -54.57   0
        66    939.2521    873.4285 307.5153080  +6.3511755     643.2506     1085.818     1242.854     90.64356     181.5756     362.6464      1.652     3.38     1201.089      63.9414     101.6096         5     0.766     0.432  22.48   0
        67    900.3967    868.1904 307.5316417  +6.3520499     2319.132     4860.994     5480.932     90.20951     181.0705     362.5742      2.185     5.68     1201.712      63.9414     294.1357        31     1.683     1.204 -24.40   0
        68    358.4436    864.3054 307.7571037  +6.3356292     1459.469       3477.8     4133.299     90.93178     181.3593     362.8989      2.511     9.50     1210.207      63.9414     159.3796        28     2.141     1.176 -14.65   0
        69    494.7477    853.9894 307.7007859  +6.3444314     1616.919     4008.474     4500.294     90.20951     181.2871      362.466      2.467     7.28     1208.322      63.9414     230.0065        32     1.847     1.270 -44.51   0
        70    839.5378    852.7735 307.5574707  +6.3563967      790.134     1298.818     1825.339     90.49911     181.3593     362.6464      2.022     5.44     1201.365      63.9414     102.5238         7     1.126     0.742 -52.26   0
        71    542.5208    850.0916 307.6810563  +6.3476315     3233.239     7901.395     10717.03     90.64356     181.7196     362.8268      2.889     9.96     1206.479      63.9414     345.5271        62     2.962     1.511  -9.71   0
        72    461.0000    848.9310 307.7149900  +6.3453960     630.7092     1223.162     1790.052     90.35442     180.8536     362.5021      2.325     3.84     1208.694      63.9414     94.84558         5     0.803     0.525  64.45   3
        73    458.6974    849.3896 307.7159317  +6.3451299     661.6896     1394.601      1961.49     90.64356     180.9982     362.5742      2.093     4.96     1208.722      63.9414     102.1956         6     1.324     0.525  74.89   2
        74    877.6926    847.8005 307.5417756  +6.3597163     988.7573     1913.474     1707.396     90.35442     180.9259     362.3577      2.051     6.29     1200.777      63.9414     128.3802        13     1.162     0.957 -46.29   0
        75    512.3016    844.1217 307.6938245  +6.3490905     10727.62      26015.5     30889.74     90.49911     181.7196     362.7907      2.526     5.93      1207.11      63.9414     1106.704        76     2.175     1.670 -37.49   0
        76    100.7715    847.9588 307.8647915  +6.3337748     751.4321     1789.004     2200.174     90.49911     181.2871     362.5742      2.609     6.62     1207.617      63.9414     115.8357         8     1.360     0.905   2.51   0
        77    925.5491    842.1984 307.5220678  +6.3636169     2544.535     5095.838     5246.621     90.20951     180.9982     362.2855      2.094     5.77     1200.007      63.9414     286.4576        30     1.830     1.065 -44.85   0
        78    305.0186    832.8291 307.7803927  +6.3468440      1819.15     4359.393     5273.495     90.49911     181.2149     362.6825      2.497     6.94     1209.567      63.9414     190.4089        38     1.859     1.567 -43.17   0
        79     22.8750    834.6110 307.8976345  +6.3366807       938.71     2094.783     2383.968     90.49911     180.9982     362.5381      2.507     7.09     1206.734      63.9414      105.575        12     1.325     1.063 -38.64   0
        80    770.3928    828.5154 307.5870466  +6.3641178     34106.25     74249.89     84925.38     90.49911     181.0705     362.5742      2.310     5.43     1201.279      63.9414     3364.623        94     2.138     1.568 -35.48   0
        81      5.5274    830.6867 307.9049814  +6.3377206     1389.434     3007.791     3645.474     91.07555     181.7196     338.6553      2.410     6.43     1206.511      63.9414      172.781        22     1.547     1.165  -6.04  18
        82    227.2432    805.2808 307.8136723  +6.3556228     786527.5      2515268      3179121     90.93178     181.4314     362.7185      2.899     7.26     1209.075      63.9414     63887.82       586     2.783     2.345 -54.61   4
        83    698.2910    822.9567 307.6172154  +6.3640175     12745.35     30521.89     36499.43     90.93178     181.3593     362.8628      2.507     5.85     1202.271      63.9414     1340.113        70     2.177     1.575 -31.68   3
        84    692.3354    819.6884 307.6198031  +6.3651691     51756.65     117544.9     137225.2     90.93178     181.6476     362.7546      2.410     5.52     1202.202      63.9414     5138.745       105     2.231     1.619 -36.12   3
        85    337.2982    820.7999 307.7673834  +6.3528880     10728.33     26894.46     32160.28     90.35442     180.9982     362.3216      2.569     6.09     1209.096      63.9414     1038.309        78     2.258     1.681 -37.79   0
        86    399.2067    818.5460 307.7417205  +6.3558831     11713.61     28826.27     34648.68     90.35443     181.1427     362.4299      2.567     6.04      1208.73      63.9414     1191.889        80     2.237     1.708 -31.61   0
        87    936.1445    816.9302 307.5185216  +6.3744022     1367.296     2703.842     2966.015     90.93178     181.2871     362.6825      2.278     6.30     1198.279      63.9414     192.9324        20     1.553     0.999 -38.74   0
        88    892.4150    815.1735 307.5367642  +6.3736773     4475.589     9083.597     10408.74     90.49911     181.2871     362.6825      2.170     5.33     1198.663      63.9414     456.3842        42     1.875     1.270 -36.28   0
        89    633.2816    814.3865 307.6445380  +6.3653949     3702.997     8387.439     10060.17     90.49911     181.1427     362.5381      2.486     5.77     1202.339      63.9414     367.6597        50     2.077     1.413 -37.15   0
        90    421.3286    812.1963 307.7327398  +6.3592424     808.3638     1903.922     2177.104     90.35442     180.9982     362.5742      2.424     7.20     1208.313      63.9414     124.3817        11     1.477     0.983  77.30   0
        91    668.0555    804.1223 307.6304292  +6.3707895     1282.458     3092.761     3488.028     90.93178     181.4314     362.7546      2.496     8.43     1201.427      63.9414     164.0449        25     2.001     1.173 -38.11   0
        92    402.1199    801.2122 307.7411019  +6.3631376     27789.26     68949.05     83261.54     90.49911     181.0705     362.5742      2.582     5.99     1208.292      63.9414     2781.028       105     2.331     1.760 -36.31   0
        93    519.9114    800.1755 307.6921613  +6.3674901     3838.784       9211.7     10632.18     91.07554     181.2149     362.6103      2.455     6.17     1204.255      63.9414     403.6903        50     2.004     1.509 -37.00   0
        94    436.4415    798.6831 307.7269180  +6.3653259      2360.05     5713.535     7866.086     90.93178     181.4314     362.6825      2.858     6.52     1207.042      63.9414      277.583        46     1.927     1.674 -43.68   0
        95    764.9882    796.6510 307.5903793  +6.3770959     7009.562     15863.21     18372.38     90.20951     181.2871     362.4299      2.327     5.50     1200.242      63.9414     735.8461        57     2.031     1.457 -38.50   0
        96    115.5625    779.1321 307.8610018  +6.3626882     981.6454     2613.995     3288.647     90.78778     181.4314     362.8989      2.617     9.25     1206.198      63.9414     116.0222        18     2.029     1.177 -43.77   3
        97    115.6577    785.7703 307.8607347  +6.3599505     1787.387      4436.77     7170.138     90.64356     181.5035     362.6103      3.567     7.70     1206.485      63.9414     188.6556        34     1.904     1.392 -41.03   3
        98    123.0327    788.9423 307.8575596  +6.3588873      6163.13     15273.55     20682.73     90.78778     181.5035     362.6825      2.849     5.96     1206.708      63.9414     618.6912        76     2.514     1.766 -11.32   3
        99    131.1649    789.1779 307.8541704  +6.3590619     1650.404     3951.453     4402.216     90.35442     181.1427      362.466      2.390     6.21     1206.821      63.9414     176.1439        26     1.514     1.376  37.43   3
       100    434.8096    791.5064 307.7278418  +6.3682349     1109.261     2672.149     3067.842     90.49911     180.9982     362.5742      2.614     6.08      1206.54      63.9414     117.6049        12     1.145     0.909 -23.95   2
       101    910.3510    785.2183 307.5303255  +6.3866416     4043.517     8683.296     9860.112     90.35443     181.5035     362.5021      2.247     5.67     1196.991      63.9414     459.9214        43     1.929     1.304 -32.62   0
       102    959.7540    785.2757 307.5097811  +6.3882560     1068.437      1905.08     2239.884     90.78779     181.5035     362.7907      2.009     7.06     1195.495      63.9414     128.5903        15     1.307     1.068 -22.61   0
       103    895.6432    823.6545 307.5351334  +6.3702823     5946.229      12228.1     13969.86     90.93178     181.4314     362.7546      2.177     5.36     1199.184      63.9414     617.1031        46     1.930     1.280 -37.92   0
       104    552.8873    782.3655 307.6790582  +6.3759421      1154.29     2794.348     2479.487     90.93178     181.2871     362.7546      2.386     8.24     1202.118      63.9414     143.6702        20     1.495     1.270 -20.56   0
       105    665.5124    782.9136 307.6322100  +6.3794625      860.866     1979.141     2589.084     90.64356     181.7196     362.8989      2.466     5.72     1200.244      63.9414     126.1847         9     1.503     0.614  -9.74   0
       106    934.1726    776.5838 307.5207138  +6.3909970     2051.639     3933.045     3942.814     90.49911     181.1427     362.6464      1.996     5.46     1196.279      63.9414     243.0172        25     1.702     0.984 -44.30   0
       107    904.4758    777.2509 307.5330396  +6.3897367     2121.151     4204.997     4776.462     90.93178     181.5035     362.7546      2.036     5.76     1196.618      63.9414     225.9816        25     1.673     1.011 -43.22   0
       108    964.9612    776.0732 307.5079288  +6.3922286     1495.312     2515.653     2365.092     90.78778     181.4314     362.8268      1.809     4.76     1194.939      63.9414     204.2435        18     1.416     0.923 -45.62   0
       109    231.6692    771.7004 307.8129821  +6.3696363     1380.472     3758.888     6279.277     90.93178     181.5756     362.7546      5.583     9.85     1207.068      63.9414     177.1288        37     2.089     1.736  15.48   0
       110    656.8983    776.4535 307.6360120  +6.3818437     946.9186      2031.64     2532.385     90.78778     181.4314      363.007      2.336     6.47     1199.914      63.9414     169.4587        15     1.510     1.237 -56.75   0
       111    948.7222    764.3545 307.5150798  +6.3965293     1585.847     3316.379     3841.051     90.78779     181.5035     362.7546      2.182     5.68     1195.076      63.9414     213.1329        25     1.554     1.159 -45.81   0
       112    668.8367    762.8489 307.6315120  +6.3878583     500.0589     1166.958     1651.168     90.64356     181.3593     362.6103      2.881     5.61     1199.115      63.9414     87.97485         6     1.124     0.789  33.09   0
       113   1022.3349    758.6166 307.4846649  +6.4013383     5258.462     8849.736     9437.304     90.35443     164.9639     296.7763      1.834     5.12     1192.423      63.9414     577.5701        32     1.630     1.110 -57.96  24
       114    990.4109    757.7437 307.4979694  +6.4006409     1342.161     2406.861     2639.918     90.20951     181.3593     362.3938      2.082     6.29     1193.465      63.9414     140.6532        16     1.261     0.976 -44.08   0
       115    791.5465    755.6169 307.5807340  +6.3949220     539.8574     1281.769     1583.595     90.35443     181.5035     362.4299      2.747     7.13     1196.548      63.9414     83.24316         8     1.750     0.813 -49.44   0
       116    877.5123    753.9695 307.5450437  +6.3984557     860.9616      1579.82     1767.573     91.07554     181.2149     362.6825      1.779     4.77      1195.71      63.9414     116.1337         7     1.292     0.500 -89.65   0
       117    852.6896    748.4830 307.5555523  +6.3998975     632.6366     1096.601     269.6922     90.64356     181.7196     362.8268      1.894     4.98     1195.631      63.9414     89.25269         6     0.939     0.748  67.63   0
       118    834.3849    744.8345 307.5632881  +6.4007966     896.9715     1789.175     2053.157     90.49911     181.1427     362.5742      2.142     5.88     1195.557      63.9414     128.0421        11     1.522     0.640 -37.71   0
       119     36.2575    743.4989 307.8951970  +6.3747489      1065.72     2800.243     3524.774     90.64356     181.4314     362.9709      2.725     7.31     1204.515      63.9414     143.7616        15     1.513     0.988  30.19   2
       120    647.1388    732.5982 307.6415660  +6.3996279      3117.83     7784.178     8517.805     90.20951     181.2149     362.4299      2.432     5.96      1197.53      63.9414     329.6362        45     1.900     1.520 -37.98   0
       121    593.8895    731.4901 307.6637459  +6.3983141     816.0093     1662.703     1480.647     90.93178     182.0074     362.8628      1.924     4.83     1197.842      63.9414     95.24915         9     1.150     0.574  62.57   0
       122    110.1284    728.7070 307.8649902  +6.3833273      1786.96     4693.348     5511.466     90.78778     181.5035     362.7907      2.598     8.31     1204.121      63.9414      205.645        38     2.074     1.359 -32.54   0
       123    621.0699    727.8074 307.6525695  +6.4007391     1102.341     2619.957     2507.641     90.35442     180.9982     362.6464      2.205     8.22     1197.467      63.9414     159.8811        21     1.663     1.356  14.96   0
       124    983.8647    727.5775 307.5017171  +6.4128805     1688.278     3704.021     3760.846     90.49911     181.4314     362.6103      2.243     7.09     1192.662      63.9414     189.6196        28     1.787     1.192 -37.82   0
       125    763.9407    724.6964 307.5932665  +6.4067729     11287.46     26225.62     30683.97     90.78778     181.4314     362.8628      2.418     5.65     1194.449      63.9414     1055.845        73     2.138     1.607 -35.99   0
       126    893.7249    724.4096 307.5393081  +6.4111997     2408.722     4918.813       4999.2     90.49911     180.9982     362.5381      2.023     5.50     1193.812      63.9414     294.2028        27     1.592     1.139 -34.82   0
       127    462.9609    724.4155 307.7184295  +6.3968759     812.4753      1848.51     1969.657     90.49911     181.2149     362.5021      2.351     7.90     1200.718      63.9414     98.63428        12     1.588     1.099  27.30   0
       128    644.5456    717.5235 307.6431586  +6.4057664     3783.667     9099.736     11373.22     91.07555     181.4314     362.7546      2.615     6.43     1196.411      63.9414     393.6476        55     2.168     1.531 -40.94   0
       129    237.5894    718.5233 307.8123418  +6.3917913     3013.561     8231.827     10604.21     90.49911     180.9982     362.5742      2.968     6.78     1203.792      63.9414     312.7495        54     2.041     1.694 -37.75   0
       130    904.1871    710.3983 307.5354343  +6.4173324     642.7338     1400.733     2176.422     90.49911     181.0705     362.5021      2.038     3.39     1192.719      63.9414     103.6385         5     1.214     0.274 -55.48   0
       131    716.3191    705.9058 307.6137094  +6.4129498     2107.731     5069.716     6557.823     90.64356     181.7196     362.8628      2.655     6.73     1193.886      63.9414     219.1423        42     1.937     1.529 -22.90   0
       132    982.4006    702.3528 307.5031836  +6.4232480      5731.27     11944.02     13053.81     90.20951     180.9982     362.2493      2.145     5.39     1191.433      63.9414     625.1683        45     1.940     1.266 -40.13   0
       133      2.9183    704.0000 307.9104145  +6.3899423     828.6078     1989.344     2617.382     90.06436     167.4825     300.8917      2.869     6.92     1203.155      63.9414      147.327         9     1.370     0.980  32.96  18
       134    920.7570    702.8594 307.5288004  +6.4209950     1397.871     2828.532     3095.288     90.78778     181.4314     362.8628      2.077     7.42     1192.101      63.9414     160.0905        25     1.846     0.978 -31.49   0
       135     59.9937    697.6934 307.8868995  +6.3944563     12801.66     32451.09     40304.97     90.49911     181.0705     362.5381      2.664     6.02     1202.939      63.9414     1354.961        90     2.295     1.841 -38.70   0
       136    520.9808    698.5029 307.6951891  +6.4095083     1088.736     2485.797     3152.784     90.78778     181.2871      362.466      2.516     5.81     1197.869      63.9414     157.9253        13     1.328     0.968 -41.01   0
       137    491.0000    696.5193 307.7077235  +6.4093288     519.1276     1346.389      1627.53     90.06436     180.7088     362.4299      2.044     3.76     1198.555      63.9414     92.45398         5     1.455     0.279 -77.23   2
       138    488.4725    695.7117 307.7088021  +6.4095781     582.7219      1243.83     1369.931     90.93178     181.7196     362.7907      2.479     4.65     1198.583      63.9414     78.45374         5     0.851     0.722 -46.13   2
       139    727.8499    687.7603 307.6095331  +6.4208257     2137.865     5020.912      6199.73     90.78778     181.4314     362.6825      2.505     7.30     1192.563      63.9414     232.3773        39     2.059     1.406 -30.77   0
       140    705.6680    689.5562 307.6186959  +6.4193469     1794.628     4040.371     4302.447     90.93178     181.3593     362.7907      2.365     6.11     1192.955      63.9414     204.2861        29     1.670     1.215 -41.61   0
       141    559.5076    685.8931 307.6795992  +6.4159978     1547.135     3856.807     5130.306     90.93178     182.0074     362.7546      2.687     9.11     1196.533      63.9414     174.2712        30     1.930     1.288 -43.56   0
       142   1000.5823    683.9965 307.4962469  +6.4314304     3531.232     7003.317     7455.527     90.49911     180.9259     362.5381      2.052     4.92      1190.48      63.9414     390.6854        38     1.803     1.241 -39.11   0
       143    219.5910    684.4916 307.8209913  +6.4052423     737.4415     1930.237     2600.077     90.49911     181.0705      362.466      2.667     3.98     1202.024      63.9414     130.4895         7     1.221     0.671   9.67   2
       144    966.1155    682.6602 307.5106254  +6.4308398     5276.681     11145.32     12511.47     91.07555     181.5035     362.8628      2.225     5.31     1190.562      63.9414     558.4072        49     1.980     1.349 -35.99   0
       145    124.7330    676.6077 307.8607042  +6.4053277      11274.3     30114.96      36923.5     90.35443     181.1427     362.5742      2.704     6.32     1201.987      63.9414     1168.704        85     2.274     1.846 -41.62   0
       146    411.1915    677.6897 307.7415534  +6.4144444     1157.035     3504.902     4502.658     90.49911     181.0705     362.5021      2.880    10.76     1200.321      63.9414     142.5664        36     2.259     1.429 -47.52   0
       147    239.3328    680.1388 307.8129316  +6.4076989     3261.903      3147.47     3420.557     90.93178     181.3593     362.7546      0.651     0.90     1201.802      63.9414     1687.564         5     0.479     0.393  18.02   0
       148    793.0769    677.1516 307.5827705  +6.4273731      589.816      1385.49     1781.039     90.78778     181.5035     362.7546      2.022     3.81      1191.87      63.9414     94.89771         5     1.293     0.321  30.40   0
       149    960.8746    665.8272 307.5133773  +6.4376169     4435.546      9934.96     11967.59     90.78778     181.3593     362.7185      2.403     5.37      1189.66      63.9414     462.6597        52     1.907     1.611 -33.90   0
       150   1016.2935    660.8268 307.4905010  +6.4415185     61866.44     126868.5     141872.9     91.07555     181.1427     362.5742      2.193     5.19     1189.149      63.9414     6427.331       106     2.094     1.502 -36.79  16
       151    554.6077    661.1877 307.6824804  +6.4260360     22764.36     59814.17     73275.63     90.49911     181.2149     362.6464      2.654     6.32     1195.609      63.9414     2181.459       102     2.329     1.826 -34.46   0
       152    162.4040    658.2242 307.8456705  +6.4141776     1267.938     3270.638     3568.686     90.49911     181.1427     362.5742      2.621     9.73     1200.753      63.9414     156.0333        29     1.808     1.460  -8.79   0
       153    451.9023    645.0353 307.7257410  +6.4292848     28346.27     77527.08     97127.69     90.93178     181.2871     362.9349      2.754     6.64     1197.831      63.9414      2644.58       117     2.407     1.921 -34.70   0
       154    298.3026    634.4109 307.7899765  +6.4285491     803.8406     2178.324     3208.184     90.64356     180.9982     362.5381      3.020     7.43     1198.949      63.9414     113.7345        13     1.793     0.862 -69.08   0
       155    723.9430    628.4329 307.6131802  +6.4451935      2437.43     6378.112     7843.681     90.78778     181.5035     362.7185      2.645     7.27     1189.877      63.9414     242.5818        52     2.198     1.606 -44.23   0
       156    777.4134    623.6982 307.5911054  +6.4489251     7315.777      17548.5     20471.71     90.78779     181.1427      362.466      2.474     5.95     1189.631      63.9414     730.4832        64     2.110     1.586 -36.18   0
       157    601.4746    621.4257 307.6643484  +6.4440144     1331.138     3355.501     4256.497     90.49911     181.2149     362.7185      2.755     6.54     1191.292      63.9414     152.4307        19     1.562     1.046 -16.74   2
       158   1017.3004    622.4698 307.4913862  +6.4573906     1393.328     2691.689     3154.032     90.93178     181.5756      359.312      2.130     7.51     1186.305      63.9414     161.6705        18     1.663     0.949 -33.72  16
       159    519.5854    622.4438 307.6983674  +6.4408680     643.9656     1533.991     1983.895     90.20951     181.2149      362.466      2.221     6.16     1194.914      63.9414     106.6332        10     1.733     0.615 -23.38   0
       160    853.2576    606.7586 307.5601414  +6.4584382     1605.285      3398.29     4090.235     90.93178     181.4314     362.7907      2.193     7.73     1187.897      63.9414     207.9921        25     1.699     1.201 -33.81   0
       161    812.2455    604.3499 307.5772791  +6.4580713     1336.594     2751.309     3080.461     90.93178     181.2871     362.8268      2.168     6.33     1188.362      63.9414     140.3174        22     1.369     1.261 -21.84   0
       162    792.6757    595.6411 307.5857143  +6.4610175     81376.45     202233.5     242772.6     90.78779     181.4314     362.7907      2.577     6.11     1187.932      63.9414     7768.582       175     2.622     1.803 -32.59   0
       163    240.5705    599.6772 307.8151729  +6.4409636     3674.179     9792.573     12918.77     90.78779     181.5035     362.7907      2.888     6.68     1197.191      63.9414     400.4874        62     2.170     1.789 -40.40   0
       164    174.5031    594.2059 307.8428337  +6.4410156      25097.7      71119.9     92471.45     90.64356     181.0705     362.5381      2.869     6.77     1197.346      63.9414     2324.123       130     2.511     2.028 -37.17   0
       165     98.5431    590.7684 307.8745383  +6.4398954     2717.498     7572.121     9426.479     90.78779     181.4314     362.6464      2.776     7.13      1197.49      63.9414     301.4581        55     2.206     1.665 -35.31   0
       166    963.2285    587.0096 307.5150792  +6.4702410     851.0923     1426.739     1616.043     90.49911     181.2149     362.6103      2.002     5.91     1184.468      63.9414     110.8572         8     1.264     0.777 -33.24   0
       167    829.4409    582.7524 307.5708637  +6.4675603     2312.069     5765.729     6654.969     90.78779     181.4314     362.6103      2.572     6.55      1186.35      63.9414     257.7603        44     2.059     1.432 -34.62   0
       168    347.9387    581.1986 307.7711570  +6.4521774      7218.03     20586.33     25793.16     90.20951     181.2149     362.4299      2.792     6.84     1194.726      63.9414     732.0104        75     2.278     1.852 -36.21   0
       169    150.0395    580.2379 307.8534854  +6.4459653     797.8798     2055.127     3239.671     90.64356     181.3593     362.6103      2.863     6.16     1196.811      63.9414     125.8488         9     1.449     0.735  30.25   0
       170    514.2887    576.1238 307.7021525  +6.4598179     2687.567     7753.627     9077.938     90.93178     181.7916     362.8628      2.716     7.69      1191.75      63.9414     276.0212        52     2.119     1.679 -40.69   0
       171    783.3783    576.2371 307.5902420  +6.4687211     2974.734     7253.803      8353.58     90.49911     181.1427     362.5021      2.508     6.96     1186.465      63.9414     272.5172        45     2.061     1.389 -34.29   0
       172    373.4882    573.1738 307.7608067  +6.4563433     745.4464     1435.565     1493.946     91.07555     181.2149     362.6103      2.094     5.47      1193.87      63.9414     111.7184         7     1.230     0.685 -89.98   0
       173    161.2186    569.6417 307.8492000  +6.4507143     2711.992     7968.542     10439.02     90.35443     181.2149     362.5021      2.959     7.25     1196.258      63.9414     311.8265        60     2.275     1.775 -40.77   0
       174     33.2401    568.2809 307.9024651  +6.4469958     2208.431     6240.556     7809.666     90.93178     181.5035     362.6825      2.820     7.89     1197.216      63.9414     279.1708        48     2.179     1.605 -36.03   0
       175    256.5765    565.8033 307.8096772  +6.4554849     36317.72       103731     132693.2     90.49911     181.0705     362.5742      2.851     6.73      1194.68      63.9414     3668.194       130     2.440     2.018 -35.13   0
       176    560.4048    569.8768 307.6831877  +6.4639330     1147.729      2780.56     3907.368     90.49911     180.8536     362.6103      2.966     8.94     1190.101      63.9414     132.4778        20     1.735     1.285 -16.42   2
       177    800.0352    568.1937 307.5835889  +6.4725956     797.7647     1930.521     2436.347     90.06436     181.1427     362.5021      2.467     6.20     1185.535      63.9414     114.1062        10     1.277     0.847 -21.75   0
       178    779.4866    557.9695 307.5924830  +6.4761349     7989.675     20454.85     24374.44     91.07554     181.1427     362.6464      2.597     6.44     1185.171      63.9414     739.8575        67     2.196     1.675 -34.13   0
       179    483.2837    556.5081 307.7157167  +6.4668848     18209.17     51719.01      67317.8     90.64356     181.7916     362.8989      2.880     6.79     1190.441      63.9414     1659.896       113     2.482     2.002 -27.90   0
       180    954.8873    558.8298 307.5195068  +6.4816007     848.6671     2082.689      2584.12     91.07554     181.1427     362.6464      2.589     8.57     1182.076      63.9414     111.3558        13     1.609     1.275   8.45   0
       181    643.6058    551.4343 307.6492162  +6.4743169     1504.284     3688.809     4863.578     90.06437     181.2149     362.5021      3.237     7.64      1186.69      63.9414     196.8619        33     1.936     1.349 -28.18   0
       182    196.4217    552.3813 307.8351525  +6.4590177     1120.942      2750.84     3787.557     90.64356     181.2871     362.6825      2.711     6.48     1194.675      63.9414     138.4288        17     1.514     1.106  10.78   0
       183    380.9920    547.7769 307.7585550  +6.4670802     726.5981     1772.553     1908.342     90.49911     181.2149     362.5381      2.406     6.32      1191.49      63.9414     99.98584         7     1.451     0.773 -54.63   0
       184    491.7504    543.6136 307.7126363  +6.4724912     879.4825     2542.225     4022.896     90.20951     181.3593     362.4299      3.080     7.53     1189.026      63.9414     126.9418        13     1.585     1.002 -20.93   2
       185    312.4449    545.8453 307.7871274  +6.4655909     1605.228     4355.879     5502.916     90.93178     181.4314     362.7546      2.824     8.75     1192.356      63.9414     188.6401        41     2.138     1.451 -29.98   0
       186    127.6703    544.2799 307.8640205  +6.4600647     11500.71     31322.55     39722.75     91.21909     181.7196     362.7185      2.793     6.65     1195.269      63.9414     1164.139        87     2.328     1.891 -39.48   0
       187    855.1145    543.6076 307.5615196  +6.4845765     909.8463     1917.032     2475.866     90.49911     181.0705     362.5742      2.486     5.98     1182.858      63.9414     121.8497         9     1.143     0.880 -20.90   0
       188     93.4411    542.4580 307.8783172  +6.4596723     1346.315     2926.508     3735.815     90.93178     181.4314     362.8268      2.535     6.24     1195.495      63.9414     186.8658        20     1.546     1.144 -71.27   0
       189    952.8817    538.4316 307.5210349  +6.4899571     3099.636     6894.868     7855.243     90.78778     181.2871     362.7185      2.300     5.72     1180.468      63.9414     336.9093        39     1.841     1.343 -38.88   0
       190    424.5728    525.2859 307.7412003  +6.4778202     17283.62     49961.36     64704.96     91.07555     181.1427     362.6103      2.871     7.18     1189.359      63.9414     1753.842       105     2.424     1.978 -35.27   0
       191    632.5770    524.7348 307.6547140  +6.4849748      5286.52     14712.77     18370.22     90.49911     181.4314     362.6464      2.777     6.85     1185.658      63.9414      519.953        70     2.278     1.773 -36.54   0
       192    189.9246    523.0051 307.8388612  +6.4709302      8031.46      23446.1     30736.22     90.49911     180.8536     362.6464      2.898     7.00     1192.369      63.9414     814.1296        87     2.385     1.970 -36.43   0
       193    156.3008    524.8723 307.8527800  +6.4690354     775.7709     1903.576     2359.111     90.64356     181.5756     362.7546      2.546     6.92     1193.367      63.9414     102.1135        11     1.441     0.932 -31.80   0
       194    965.4932    523.4997 307.5162977  +6.4965411     839.5769     1556.921     1380.351     90.93178     182.0074     362.6464      1.926     6.67     1179.073      63.9414     127.3811        10     1.336     0.935 -43.37   0
       195    552.9512    521.7762 307.6879303  +6.4835464     1150.078     3094.675     4330.143     90.49911     181.4314     362.6464      2.996     7.77     1186.975      63.9414     152.6752        16     1.630     1.037  52.65   2
       196    928.0336    518.5052 307.5320472  +6.4973613     2651.294     6300.345     7466.636     91.07554     181.2871     362.8628      2.377     6.22     1180.486      63.9414     275.0354        39     1.947     1.322 -39.73   0
       197    601.2497    517.2021 307.6679998  +6.4870428     2837.739     8055.291     10643.06     90.20951     180.9982     362.2855      2.819     7.48     1185.818      63.9414     329.1259        58     2.294     1.664 -28.75   0
       198    950.7409    510.6842 307.5228693  +6.5013438     1810.873     4371.909     5090.151     90.93178     181.5035     362.8628      2.489     7.69     1179.052      63.9414     231.4113        35     1.921     1.337 -28.57   0
       199    513.6871    508.5594 307.7047112  +6.4876964     3034.423      8722.05     11150.97     90.93178     181.4314     362.7907      2.853     7.09     1186.564      63.9414     311.7734        60     2.191     1.768 -37.60   0
       200    359.8535    509.2703 307.7686634  +6.4822750     902.4216     2654.039      3341.31     90.78778     181.3593     362.6825      2.974     6.88     1188.552      63.9414     131.9548        11     1.432     0.928  52.96   2
       201    871.3156    504.3153 307.5561195  +6.5013389     1212.811     2217.934     3855.747     90.64356     181.5756     362.8628      3.243     5.61     1180.077      63.9414     175.9244        14     1.398     0.826 -55.66   3
       202    868.3094    503.6630 307.5573920  +6.5015085     1278.347     2638.746     3602.529     90.93178     181.5756     362.8268      2.590     6.88     1180.114      63.9414     164.2548        16     1.416     0.936 -67.50   3
       203    877.2288    498.5109 307.5538578  +6.5039319     1034.898     2390.484     3037.813     91.07555     181.1427     362.6464      2.536     8.01     1179.672      63.9414     125.6913        19     1.786     1.005 -40.27   1
       204    915.6405    498.0202 307.5378987  +6.5054090     837.5382     1384.134     1269.535     90.49911     181.2149      362.466      1.719     4.98     1179.095      63.9414      109.645         8     1.110     0.775 -45.75   0
       205    702.1028    493.6555 307.6268590  +6.5001202     1220.107      3144.53     4348.449     90.78778     181.4314     362.9709      3.089     8.50      1182.96      63.9414     146.5959        19     1.877     1.077 -74.06   2
       206    372.4499    492.8767 307.7639858  +6.4894643      1482.92     4406.533     5770.041     90.78778     181.5035     362.7546      2.901     9.79     1187.304      63.9414       172.67        40     2.084     1.592 -29.74   0
       207     64.0713    493.7312 307.8922027  +6.4788092     889.1334     2159.019     2595.443     90.93178     181.5756     362.7185      2.326     8.90     1193.171      63.9414      118.389        18     1.798     1.230  86.01   0
       208    599.9363    489.4123 307.6694948  +6.4984741     4253.148     12191.66     15540.56     90.35442     181.2149     362.5381      2.818     6.93     1183.876      63.9414     438.0802        63     2.232     1.748 -44.07   0
       209    762.8005    485.7242 307.6018850  +6.5054124     7629.245     20339.13     25673.12     90.06436     180.7088     362.5381      2.718     6.79      1181.36      63.9414     712.9869        79     2.458     1.696 -43.25   0
       210    283.8340    486.9247 307.8010433  +6.4889647     1102.146     2791.612     3555.751     90.78778     181.4314     362.7185      2.835     5.33     1188.008      63.9414     152.4467        15     1.436     0.919 -58.96   2
       211    791.9614    483.5034 307.5898324  +6.5072981      727.754     1595.186     1777.277     90.93178     181.2871     362.9349      2.123     3.05     1180.968      63.9414     123.2491         5     0.758     0.595  84.91   0
       212    367.1215    484.3650 307.7664930  +6.4928011     586.2451     1012.791     2031.434     90.78778     181.5035     362.7907      2.180     3.42      1186.62      63.9414     89.31592         5     0.795     0.426  19.45   1
       213    947.4445    480.5620 307.5252652  +6.5136727     974.3315     2070.948     2261.237     90.64356     181.4314     362.6464      2.240     7.05     1177.406      63.9414     112.4249        14     1.433     0.972 -36.11   0
       214    100.4884    478.1147 307.8775940  +6.4864755     2003.006     5407.744     6762.238     90.64356     181.7196     362.8989      2.781     7.82      1191.92      63.9414     232.4539        51     2.142     1.809 -24.11   0
       215    740.3432    477.9561 307.6114900  +6.5078738     498.8069     1167.415     1855.315     90.78778     181.4314     362.7546      1.977     3.93     1181.098      63.9414     105.9655         5     1.265     0.349 -59.31   2
       216    738.2606    475.7895 307.6124300  +6.5086993     992.7293     2090.879     2711.826     90.20951     181.2871     362.4299      2.469     7.51     1180.993      63.9414     143.9434        12     1.422     1.109 -57.29   2
       217   1001.8251    475.5357 307.5028183  +6.5175510     2740.731     6117.903     6643.048     90.49911     181.4314     362.6825      2.233     5.35      1176.07      63.9414     321.9121        37     1.751     1.350 -26.13   0
       218    337.4990    473.4404 307.7791866  +6.4963237     1150.108     2414.068     3264.409     90.93178     181.2871      363.007      2.684     6.69     1185.981      63.9414     172.9661        16     1.647     0.763 -32.66   3
       219    335.2098    471.3070 307.7802116  +6.4971283      1081.73     2093.367     3178.764     90.49911     180.9982     362.5381      3.086     9.68     1185.841      63.9414     128.1992        20     2.329     1.122 -50.30   2
       220    691.0087    469.6408 307.6322922  +6.5096675     639.5332     1357.982     1626.106     90.20951     181.2149     362.4299      2.571     4.29      1181.76      63.9414     91.83264         5     0.840     0.626 -88.98   1
       221    816.0187    461.3315 307.5805822  +6.5172523     639.7958     1412.817     2173.258     90.49911     181.2871     362.6825      2.353     4.11     1179.138      63.9414     101.3711         5     0.799     0.602  87.40   0
       222    701.0750    457.6464 307.6285147  +6.5149549     6498.266     18018.68     22960.34     90.78778     181.5035     362.7546      2.757     7.13     1180.576      63.9414     622.8159        77     2.373     1.803 -36.10   0
       223    803.7194    459.2239 307.5857695  +6.5177142     937.3315     2200.311     2537.805     90.64356     181.1427     362.6825      2.526     7.65     1179.335      63.9414     119.6877        15     1.325     1.237 -85.69   0
       224    620.4894    454.2956 307.6621455  +6.5136583     1004.482     2807.492     3926.256     90.93178     181.8636     362.7907      2.919     9.29     1180.939      63.9414     127.3523        19     1.980     1.217 -75.34   2
       225    594.6362    448.9550 307.6730805  +6.5150032     6584.528     19161.72     29349.45     90.64356     181.3593     362.6825      3.338     7.78     1180.606      63.9414     719.5699       107     2.698     2.265  24.85   0
       226    926.3517    447.2129 307.5351730  +6.5267439     2330.814     5088.448     4797.685     90.20951     181.3593     362.4299      2.164     5.55     1176.092      63.9414     261.9033        33     1.727     1.268 -43.12   0
       227    112.2689    442.8602 307.8739042  +6.5014263     1013.133     2566.588     3183.088     91.07555     181.3593     362.7546      2.874     7.50     1189.551      63.9414     103.5459        17     1.433     1.098  67.13   2
       228    881.6552    441.9006 307.5539443  +6.5274546      771.701      1811.71     2629.189     90.64356     181.4314     363.0791      2.760     7.31     1176.731      63.9414     107.3029        11     1.743     0.858  57.48   2
       229     45.3771    439.4245 307.9018411  +6.5006068     900.0447     2416.551     3769.409     90.35443     181.2871     362.7185      3.388     8.06     1190.349      63.9414     104.3781        17     1.534     1.185  87.28   0
       230    894.9598    437.8319 307.5485491  +6.5295762     2579.805     6126.293     6664.743     90.49911     181.2149     362.6103      2.380     5.86     1176.294      63.9414     281.2466        39     1.821     1.439 -44.57   0
       231    223.1583    434.4033 307.8280767  +6.5086248     5438.922      16051.3      21199.7     90.20951     181.1427     362.4299      2.926     6.96     1185.392      63.9414     588.4718        80     2.302     1.986 -38.95   0
       232    365.6968    443.6964 307.7684773  +6.5095462      11523.3     33917.34      43900.3     90.93178     182.0792     362.5742      2.890     7.09     1183.149      63.9414     1190.646        91     2.402     1.955 -34.44   0
       233    123.6626    423.1161 307.8698431  +6.5099597     2158.639     6031.983     7745.956     91.07555     181.5035     362.7185      2.858     7.30     1188.152      63.9414     244.1876        50     2.061     1.705 -36.88   0
       234    146.3361    420.2900 307.8605103  +6.5118848     916.8804     1814.463     2377.774     90.78779     181.6476     362.7907      2.535     6.51     1187.402      63.9414     135.3241        13     1.845     0.644 -40.50   2
       235    145.1439    417.9228 307.8610873  +6.5128223     977.4558     2463.256     3162.605     90.93178     181.4314     362.7185      2.585     7.11     1187.341      63.9414     126.2809        13     1.862     0.760 -29.48   2
       236    369.8273    413.7714 307.7677835  +6.5220403     695.0386     1847.364     2808.432     90.35442     181.2149     362.5742      2.748     6.40     1180.458      63.9414     96.15515         7     1.804     0.638  12.31   0
       237     19.5585    408.2635 307.9136484  +6.5126090     1582.361     4349.278     5733.051     90.93178     181.3593     362.8628      2.996     9.44       1189.3      63.9414     171.2681        38     2.174     1.475 -41.87   0
       238    422.7898    407.0269 307.7459865  +6.5265915     2787.378      8559.51     11337.09     90.49911     181.2149     362.6103      2.974     7.86     1179.182      63.9414     279.9062        64     2.324     1.827 -42.29   0
       239    762.5099    404.4031 307.6047780  +6.5389820     5518.083     15209.24     20584.29     90.35443     181.0705      362.466      2.977     9.32     1176.382      63.9414     535.9154        90     3.235     1.755 -19.64   0
       240   1006.9993    399.3914 307.5032557  +6.5491645     2126.832      4720.39      5582.77     90.20951     181.0705     362.5021      2.309     5.51     1168.544      63.9414     262.1025        33     1.691     1.329 -49.57   0
       241    470.9576    391.1664 307.7264950  +6.5347461     1198.523     3304.227     4510.594     90.64356     181.4314     362.5381      2.996     9.47     1177.054      63.9414     167.6775        27     1.917     1.394 -20.84   0
       242    443.7041    391.1407 307.7378312  +6.5338483     920.9431     2588.791     2582.357     90.78778     181.4314     362.8628      2.448     9.34     1177.402      63.9414     120.9934        23     1.747     1.393   5.64   0
       243    828.6140    387.1020 307.5778725  +6.5483216     15965.44     41796.86     51593.64     90.78778     181.1427     362.5021      2.666     6.30      1174.51      63.9414     1413.802        97     2.368     1.819 -39.40   0
       244    600.4462    380.0041 307.6730184  +6.5436676     1075.016      3333.58     4891.182     90.20951     181.1427     362.3938      3.313    10.22     1174.906      63.9414     141.4117        28     1.780     1.637  -5.00   0
       245    685.1447    373.1798 307.6380220  +6.5493032     33392.61     94919.66     119304.2     90.35442     181.4314     362.5381      2.775     6.91     1175.042      63.9414     3312.063       123     2.452     1.917 -36.08   0
       246     67.0000    372.5459 307.8951440  +6.5289446     535.5026     1131.835     1842.341     90.06436     180.9982     362.2855      1.773     3.86     1188.046      63.9414     85.33521         5     1.212     0.352 -79.05   2
       247    548.6000    371.1132 307.6948866  +6.5456128     1085.979     2913.311     4337.727     90.06436     180.8536     362.3938      3.482     8.41     1173.818      63.9414     137.1056        17     2.094     0.944 -47.07   2
       248     85.0199    369.0619 307.8877691  +6.5309861     2643.517     7443.217     9433.722     90.49911     181.4314     362.6464      2.755     6.68     1187.566      63.9414     344.0626        58     2.179     1.737 -53.92   0
       249    530.9611    366.2674 307.7023888  +6.5470263     2900.609     8239.853     10963.29     90.78778     181.3593     362.8628      2.886     7.69     1173.563      63.9414     305.6451        58     2.284     1.706 -38.83   0
       250    260.1712    364.1114 307.8150914  +6.5388852      999.637     2767.702     3269.793     91.07554     181.1427     362.6464      2.680     9.33     1179.896      63.9414     131.1099        18     1.742     1.394  74.23   0
       251    393.9146    361.4583 307.7595552  +6.5444444      10194.9     30107.49     40087.66     90.93178     181.4314     362.8628      2.952     7.30     1175.253      63.9414     1123.919        97     2.459     1.991 -36.60   0
       252    482.9919    351.8115 307.7228351  +6.5513973     3269.919     9661.564     12976.47     90.49911     181.2149     362.6825      2.970     7.11     1172.705      63.9414     325.5319        64     2.270     1.778 -34.88   0
       253    753.0000    350.9574 307.6105559  +6.5607349     1167.052     2807.652     4194.228     90.06436     180.9982     362.2855      2.849     7.20     1173.424      63.9414     159.7424        17     1.665     1.031 -65.15   2
       254    750.0197    350.0110 307.6118278  +6.5610266      1047.28     2242.287     3413.962     90.49911     181.0705     362.6103      2.670     7.64      1173.42      63.9414     130.4434        14     1.779     0.919 -73.39   2
       255    372.8363    336.0255 307.7691927  +6.5542427     2714.467     8173.191     11203.08     90.49911     181.2149     362.5021      3.048     8.18     1174.064      63.9414     337.3333        64     2.351     1.863 -42.70   0
       256    229.0183    336.6249 307.8289905  +6.5491938     891.3472     2494.266     2701.671     90.49911     181.2149     362.6825      2.665     8.83     1179.881      63.9414     109.0806        18     1.811     1.203  81.47   0
       257    740.6164    331.7108 307.6163632  +6.5682706        23598     65311.07     80799.02     90.64356     181.1427     362.6103      2.739     6.71     1172.167      63.9414      2280.43       107     2.388     1.874 -36.05   0
       258    412.0905    331.3055 307.7530270  +6.5575010     1000.278      2873.69      3029.54     90.93178     182.0074     362.7546      2.646     9.34     1172.651      63.9414     155.5875        23     2.191     1.532 -33.21   0
       259    975.2657    328.7858 307.5188574  +6.5772675     938.0786     2288.991     2634.751     90.35442     181.2871     362.6825      2.591     7.51     1165.951      63.9414     150.9338        16     1.939     0.814 -23.96   0
       260    399.3250    328.8850 307.7584194  +6.5580747      823.428     1955.024       2784.7     91.07555     181.7916     362.8268      2.731     4.98     1172.925      63.9414     131.0212         8     1.371     0.512 -70.42   0
       261    916.0546    327.5712 307.5435286  +6.5758053     1175.284     3134.924      3932.95     90.64356     181.5035     362.6825      2.638     9.36     1168.316      63.9414     145.7939        26     1.821     1.343 -53.95   0
       262    560.7984    329.0046 307.6912514  +6.5634063     558.7714     942.1201     1976.038     90.20951     180.9259      362.466      2.478     3.31     1170.171      63.9414     78.56067         5     0.905     0.723 -88.87   0
       263    396.7215    326.1832 307.7595948  +6.5591035     637.0471     1467.844     2454.389     90.49911     181.1427     362.6464      2.643     4.39     1172.804      63.9414      115.584         5     1.162     0.667 -66.30   0
       264    176.9836    318.9852 307.8512378  +6.5547384     883.4203     2212.292     3096.976     90.64356     181.0705     362.6825      2.968     8.87     1182.421      63.9414     122.2592        15     1.693     1.297 -46.96   2
       265    172.9697    320.6469 307.8528503  +6.5539181     592.5104     1252.407     2661.506     90.49911     181.4314     362.6464      1.859     4.18     1182.757      63.9414     103.7961         5     1.467     0.340  42.25   2
       266    738.8893    316.2407 307.6176092  +6.5746011     2719.358     7347.438     9019.783     90.93178     181.3593     362.7907      2.731     6.85     1170.882      63.9414     269.2208        53     2.109     1.677 -37.77   0
       267    756.0242    313.2596 307.6105834  +6.5764015     1124.098     2533.405     3726.549     90.49911     181.4314     362.5742      2.635     7.12     1170.473      63.9414     136.2201        16     1.496     0.950  56.59   2
       268    753.3245    314.6171 307.6116601  +6.5757512     932.9139     1884.594     2708.343     90.35443     181.1427     362.6464      2.183     5.97     1170.655      63.9414     142.9282         8     1.321     0.759  65.71   3
       269    345.4448    308.3831 307.7815321  +6.5647426     820.2484     2168.006     2976.108     90.35443     181.2871     362.5021      2.314     6.07      1174.06      63.9414     110.3159         9     1.897     0.546  79.19   0
       270    993.4278    304.9451 307.5121136  +6.5877140     3412.151     7827.886     8388.256     90.64356     181.5035     362.5742      2.303     6.04     1163.639      63.9414     415.4293        42     1.823     1.464 -39.79   0
       271    471.8840    305.7174 307.7290313  +6.5700599     837.2285     2289.841     3099.753     90.64356     181.7196     362.8268      2.747     8.84     1168.607      63.9414     124.4706        14     1.736     1.256 -12.63   0
       272    234.4817    300.9615 307.8279404  +6.5641019     2037.214     6479.975     9102.551     90.93178     181.5035     362.6825      3.102     8.79     1178.006      63.9414     236.7239        55     2.245     1.795 -32.61   0
       273    368.7197    291.3155 307.7724353  +6.5725665      729.017     1876.542     2484.544     90.78779     181.7916     362.8628      2.592     4.47     1172.421      63.9414     119.3914         7     1.332     0.427 -83.63   0
       274    139.2216    288.2148 307.8679996  +6.5661809     802.0616     1997.088     2903.301     90.64356     181.2149     362.6825      2.796     6.49     1183.892      63.9414     101.6713        11     1.376     0.860 -33.35   2
       275    548.7192    282.9905 307.6978480  +6.5820039     781.3391     2372.028     3280.656     90.49911     180.9982     362.5742      2.867     8.77      1166.22      63.9414     120.3577        14     2.290     0.938 -58.67   0
       276    891.6138    280.3051 307.5553048  +6.5945116     735.8483     1972.924     2487.761     90.64356     181.1427     362.5742      2.952     4.77     1166.192      63.9414     132.9972         7     1.316     0.489 -88.28   2
       277    651.2553    281.6424 307.6552424  +6.5859734     866.2972     2294.876     2623.641     90.78779     181.4314     362.7907      2.668     7.52     1166.983      63.9414     110.3909        11     1.357     1.166 -70.86   2
       278    711.3738    280.4707 307.6302749  +6.5884565     2265.095     6292.167      7731.75     90.49911     181.2871     362.6825      2.654     8.07     1167.853      63.9414     209.0165        49     2.196     1.552 -42.74   0
       279    211.7013    266.5961 307.8385937  +6.5775304     892.9504     2170.411     2551.126     90.64356     181.0705     362.3938      2.597     6.42     1178.757      63.9414     114.9066        10     1.218     0.949 -51.21   0
       280    743.5761    264.2868 307.6174315  +6.5962096     765.9186     1915.579     2268.273     90.93178     181.2149     362.5742      2.495     5.05      1166.88      63.9414     96.58704         7     1.022     0.706 -84.97   0
       281    445.0440    255.6877 307.7419066  +6.5898231     8638.626     26815.85     36656.56     90.93178     181.2871     362.7907      3.061     7.98     1166.728      63.9414     1010.296        99     2.610     1.986 -36.26   0
       282    770.7148    254.7518 307.6064674  +6.6010486     6155.265     16648.31     21105.15     90.93178     181.3593     362.7546      2.743     6.54     1166.284      63.9414     621.5242        72     2.327     1.747 -31.32   0
       283    132.9117    249.8842 307.8719392  +6.5817966     973.7397     2537.139      3542.25     90.64356     181.6476     362.8268      2.765     8.79     1183.906      63.9414     117.0413        18     1.571     1.372  12.38   0
       284    568.8313    241.5339 307.6908984  +6.5997916     1726.692     5290.499     7142.006     90.64356     181.5035     362.6825      2.931     9.84     1164.055      63.9414     191.6138        44     2.053     1.679 -37.00   0
       285    532.1011    240.6967 307.7062059  +6.5989141     894.9713     2342.019     2319.856     90.93178     182.0074     362.5742      2.494     8.97     1163.961      63.9414     116.6171        18     1.721     1.305  45.47   0
       286    875.8549    237.8577 307.5633060  +6.6115160     5607.803     14202.65     16981.06     91.07554     181.5035     362.7907      2.563     6.26     1164.405      63.9414     581.9822        63     2.137     1.632 -40.75   0
       287    929.5388    238.3833 307.5409559  +6.6130803     1397.109     3165.781     3678.962     90.35443     181.3593     362.5381      2.376     7.58     1163.108      63.9414     158.2449        25     1.686     1.282 -48.58   0
       288    374.3961    240.0093 307.7718303  +6.5939406     636.7565     1515.003      1954.08     90.20951     181.0705     362.5742      2.213     3.93     1169.227      63.9414     105.7496         5     1.298     0.340  42.57   0
       289    962.5145    235.6508 307.5273310  +6.6153022     5412.962     12572.77     14026.84     90.93178     181.3593     362.8268      2.367     6.01     1161.764      63.9414     507.8588        52     2.055     1.464 -38.95   0
       290      3.1270    234.7776 307.9264410  +6.5836904      10796.5     26197.74     30659.47     90.49911     170.5019     304.5652      2.457     7.32     1189.491      63.9414     1302.683        64     2.227     1.546 -74.01  24
       291    674.1176    236.0329 307.6472891  +6.6055668     1229.432     3165.357      4160.04     90.93178     181.3593     362.6825      2.759     9.36     1164.796      63.9414     155.8693        26     1.941     1.260 -16.55   0
       292    726.1386    223.9132 307.6260624  +6.6123009      17424.6      48308.3     60939.09     91.07555     181.6476     362.7907      2.777     6.98     1164.032      63.9414     1698.973       103     2.405     1.906 -40.79   0
       293    866.4789    226.6311 307.5675888  +6.6158405     1018.962     2632.669     3282.282     90.78779     181.4314     362.7185      2.795     9.17     1164.076      63.9414     123.1964        21     1.904     1.232 -26.01   0
       294    812.8022    228.7621 307.5898455  +6.6131784     863.1692     2145.235     3101.291     89.91898     181.1427     362.5021      3.044     8.17     1164.489      63.9414      153.647        12     1.566     1.191   9.93   2
       295    494.3181    227.0614 307.7223889  +6.6032855      942.855     2995.038     4121.414     91.07555     181.4314     362.7546      3.434    10.54     1163.778      63.9414     128.0896        24     2.198     1.409 -16.62   0
       296    329.2834    223.6445 307.7911561  +6.5991923     2865.253     8590.305     12642.07     90.93178     181.4314     362.7546      3.247     8.50     1170.971      63.9414      314.061        77     2.696     1.913 -54.21   0
       297    959.7258    222.7478 307.5289303  +6.6205377     1498.571     3406.423     4130.113     90.93178     181.5035     362.7907      2.374     7.78     1161.224      63.9414     157.5983        24     1.573     1.229 -28.89   0
       298    437.5275    220.3305 307.7462428  +6.6041718     1907.011     5927.498     7486.699     91.07555     181.5756     362.7546      2.896     8.39     1165.535      63.9414     233.0428        53     2.206     1.763 -40.88   0
       299    998.0716    221.3934 307.5130244  +6.6223683      909.672     2429.473     1944.893     90.35442     180.9259     362.6464      2.455     8.69     1159.765      63.9414     122.6799        20     1.718     1.228 -39.08   0
       300    893.9979    220.9859 307.5563332  +6.6190848     3735.132     9712.793     10682.34     90.49911     181.0705     362.5381      2.427     6.84     1163.006      63.9414     396.2153        47     2.033     1.465 -39.23   0
       301     95.1862    211.8460 307.8889365  +6.5962405     2083.042     5578.851     6820.871     90.20951     181.2149     362.5021      2.832     7.93     1186.483      63.9414     310.9819        52     2.305     1.712 -49.90   0
       302    265.2852    208.3874 307.8183001  +6.6033551     13108.36     39636.66     52830.73     90.49911     181.2871     362.5742      2.971     7.22     1176.059      63.9414     1466.273       108     2.520     2.044 -36.30   0
       303    240.7122    209.3576 307.8284885  +6.6021336     2491.125     7683.774     9793.614     90.93178     181.3593     362.7907      2.919     8.02     1177.616      63.9414      314.016        61     2.258     1.883 -20.81   0
       304    389.3650    203.7761 307.7668439  +6.6094010     18859.52     58413.46      77653.5     90.35443     181.2149     362.5021      2.972     7.24     1167.337      63.9414     2053.394       115     2.518     2.056 -37.41   0
       305    145.5115    205.3933 307.8682246  +6.6005882     1760.479     4925.225     6927.534     90.35443     181.0705      362.466      3.096     8.84     1182.512      63.9414     219.5894        40     2.097     1.615 -42.70   0
       306    293.9808    201.5597 307.8065975  +6.6071326     7276.975     21148.75     30260.78     90.49911     181.2149     362.4299      3.195     7.62     1174.234      63.9414     760.0917       112     2.978     2.090 -13.88   0
       307    728.5567    199.7555 307.6258806  +6.6223564     14774.96     40714.56     50691.87     90.93178     181.4314     362.6103      2.751     6.84     1162.641      63.9414     1448.361        97     2.359     1.860 -37.94   0
       308     45.5560    197.4350 307.9100753  +6.6005296     3999.127     11593.25     15205.95     90.64356     181.3593     362.6103      2.897     7.31     1188.353      63.9414     436.9685        70     2.296     1.879 -46.24   0
       309    987.5284    180.2605 307.5188101  +6.6390034      1154.93     2850.732     4111.392     91.07555     181.4314     362.8268      2.995     7.95     1157.062      63.9414     155.8741        20     1.743     1.236 -29.37   0
       310    264.1197    174.6518 307.8199410  +6.6172457     11949.67     35828.55     47375.76     90.93178     181.4314     362.7546      2.963     7.27     1177.513      63.9414     1356.464       101     2.510     2.007 -35.18   0
       311    579.8325    176.8255 307.6885328  +6.6268768     777.8485     1694.935     2428.155     90.35442     181.2149     362.5742      2.104     4.01     1161.705      63.9414     98.35474         6     1.291     0.356  84.82   0
       312      9.6402    173.4736 307.9258379  +6.6092205     2204.004     5747.571     7643.302     90.78779     181.5035     362.7907      2.912     7.21      1190.51      63.9414     249.8464        50     2.141     1.646 -67.43  16
       313    695.7333    171.0017 307.6405164  +6.6331380     3522.833     9886.597     12141.76     90.20951     180.9982     362.5021      2.712     7.22      1161.62      63.9414     396.2281        61     2.259     1.663 -37.00   0
       314    106.9102    168.3017 307.8855543  +6.6146120     2105.895     5857.703     7131.456     90.93178     181.9355     362.7185      2.722     7.40     1184.852      63.9414     229.5426        49     2.115     1.681 -40.30   0
       315    377.1812    164.7337 307.7732486  +6.6251153     1699.719     5083.837     6115.179     90.49911     181.4314     362.6464      2.757     8.86     1167.422      63.9414     179.7507        46     2.028     1.669 -28.64   0
       316    342.0286    163.5614 307.7879119  +6.6244263     1243.157     3929.484     5527.583     90.35442     181.1427     362.6103      3.053     9.38     1170.373      63.9414     187.1826        38     2.353     1.631 -40.76   0
       317     97.3282    163.5248 307.8897041  +6.6162637      851.492     2192.912     2702.415     91.21909     181.7196     362.7546      2.562     6.46      1185.38      63.9414     88.95764        11     1.537     0.761 -52.72   2
       318    988.4587    157.7006 307.5191907  +6.6483497     892.2274      1498.84     2124.214     90.64356     181.4314     362.8989      2.474     4.13     1155.446      63.9414     143.1111         7     0.938     0.751 -40.91   0
       319    193.5413    152.2901 307.8500671  +6.6241204     2349.731     6731.992     9554.828     90.78779     181.4314     362.8989      3.065     8.66     1181.417      63.9414     295.3721        57     2.375     1.796 -36.54   0
       320    655.2722    150.8053 307.6580380  +6.6401316     2638.799      7678.37     9912.071     90.49911     180.9259     362.6464      2.819     7.12     1161.168      63.9414     280.1958        55     2.159     1.672 -40.28   0
       321     76.1726    153.4866 307.8988490  +6.6197005     801.8336     1798.505     2117.918     91.07555     181.1427     362.6103      2.395     5.21     1186.489      63.9414     102.8416         8     1.100     0.698  -5.75   0
       322    607.7158    148.7451 307.6778925  +6.6393997     4118.351     11088.89     14195.25     90.93178     181.4314     362.9349      2.797     7.58     1161.131      63.9414     444.5793        49     2.144     1.576 -32.69   3
       323    611.0477    139.5683 307.6768198  +6.6432998     22303.71     64512.42     85403.79     90.64356     181.4314     362.6464      2.926     7.03     1160.721      63.9414      2278.13       130     2.679     2.028 -43.88   2
       324    334.7494    143.8516 307.7916150  +6.6323216     1669.044     5051.298     7149.836     91.07555     181.2871     362.7185      3.085     9.43     1171.772      63.9414     199.2489        49     2.229     1.878 -48.64   0
       325    516.4305    144.0136 307.7160297  +6.6383135     865.9789     1972.586     2569.529     90.49911     181.1427     362.6825      2.521     5.77     1160.163      63.9414     133.1483        10     1.510     0.622 -55.57   0
       326    290.0139    133.5316 307.8105784  +6.6350891     1355.585     3940.524     5354.115     90.35442     181.2871     362.6464      2.986    10.21     1176.614      63.9414     177.5343        40     2.184     1.753 -77.39   0
       327    675.5513    123.6430 307.6505289  +6.6520218     1434.398       4134.8     4247.895     90.93178     181.3593     362.6825      2.767    10.63     1159.577      63.9414     153.3497        39     1.963     1.629 -16.03   0
       328    417.3444    114.7125 307.7582528  +6.6471091      1587.99     4488.473      5041.73     90.93178     181.2871     362.9349      2.731     8.80     1164.291      63.9414     213.0563        41     2.053     1.637 -26.54   0
       329    871.6866    111.0589 307.5693598  +6.6637352       1063.3     2679.238      2889.33     90.93178     181.4314     362.8989      2.378     9.21     1156.944      63.9414     127.2928        22     1.951     1.212 -39.91   0
       330    889.6707    109.8931 307.5619174  +6.6648135     2040.734     4977.548      6237.68     90.93178     181.5035     362.7546      2.536     6.83     1156.088      63.9414     226.6613        35     1.815     1.384 -19.89   0
       331    583.9739    108.4161 307.6891472  +6.6552616     655.7008     1638.682     1628.254     90.49911     181.2149     362.6825      2.406     4.17     1159.138      63.9414     95.04956         5     1.116     0.445 -65.01   0
       332    381.9670    107.2550 307.7732254  +6.6490082     654.0805     1522.731     2376.587     90.78778     181.4314     362.7185      2.785     6.26     1168.233      63.9414     105.4467         8     1.609     0.685 -47.15   0
       333    129.5764    103.6133 307.8783457  +6.6420799     1439.513     3598.167       5170.3     90.64356     181.2149     362.6825      2.973     9.39     1182.713      63.9414     177.8344        26     1.911     1.475  -8.12   2
       334     10.3691    101.4575 307.9280089  +6.6389797     5561.694     15677.89     22280.54     90.78779     181.4314     362.6464      3.179     7.11      1190.33      63.9414     634.5741        81     2.469     1.922 -42.16  16
       335    811.9625     95.6731 307.5947317  +6.6681051      3007.06     7901.616      9490.02     90.78778     181.4314     362.8268      2.657     6.84     1156.679      63.9414     332.8978        51     2.053     1.596 -24.41   0
       336    757.4018     95.9283 307.6174223  +6.6661870     1599.097     4162.496     5439.128     90.35442     180.9259     362.5742      2.783     8.42     1157.602      63.9414     174.6527        36     1.979     1.433 -44.25   0
       337     50.5030     93.8915 307.9115736  +6.6434476     1310.462     3780.907     4029.762     90.93178     182.0074     362.7185      2.615     9.82     1187.101      63.9414     163.6685        30     1.933     1.503 -19.07   0
       338    575.6055     90.3657 307.6932455  +6.6624361     694.4099      1537.63     2115.089     90.06436     181.2149     362.5021      1.625     3.49     1158.611      63.9414     99.05237         5     1.065     0.330  20.24   0
       339     78.5527     77.5865 307.9004649  +6.6511188     4043.183     11668.11     14631.22     90.20951     181.2871      362.466      2.851     7.09     1184.387      63.9414     477.3115        63     2.251     1.777 -36.41   0
       340    406.3784     79.1593 307.7640316  +6.6614234      737.497     1894.816     2575.562     90.49911     181.2149     362.5381      2.594     7.85     1166.441      63.9414      124.665        10     2.151     0.800  80.03   2
       341    409.3491     77.5699 307.7628502  +6.6621788     1070.523     1755.264     2687.918     90.49911     181.5756     362.6464      2.176     3.79     1166.157      63.9414     179.0134        11     1.079     0.739 -53.86   2
       342    245.1710     73.0683 307.8313055  +6.6585564     750.4398     1652.128     3082.688     90.64356     181.4314     362.6825      2.954     5.12     1180.675      63.9414     125.6709         6     1.321     0.561 -74.55   1
       343    621.1379     69.2945 307.6750223  +6.6726524     7904.749     22144.88     28194.28     90.78778     181.5035     362.7907      2.816     6.75     1158.169      63.9414     802.3265        82     2.333     1.864 -35.28   0
       344    520.9286     65.4549 307.7168443  +6.6709008     2117.853     6313.415     8164.782     90.78778     181.3593     362.7185      2.839     7.48     1159.036      63.9414     230.1788        55     2.125     1.779 -38.16   0
       345    246.2571     62.1488 307.8312281  +6.6631014     3523.105     10944.14     16760.98     90.93178     181.4314     362.7546      3.842    10.93     1180.854      63.9414     441.8171        89     3.530     1.795 -29.13   0
       346    426.5084     61.1360 307.7562739  +6.6695367     9322.114     27195.55     35096.29     90.93178     181.6476     362.8268      2.871     7.07     1165.243      63.9414     1041.687        88     2.423     1.899 -33.15   0
       347     12.8699     61.4606 307.9283429  +6.6555778     1202.339     3035.168     3909.725     91.07555     181.4314     362.7546      2.821     8.56     1186.977      63.9414      142.931        21     1.800     1.195 -37.07   0
       348    904.0508     61.3880 307.5575870  +6.6853192     984.3931     2304.841     2207.677     90.20951     181.2871     362.4299      2.312     7.01     1153.068      63.9414     129.8018        15     1.297     1.060 -37.93   0
       349    607.7686     59.6952 307.6809124  +6.6761710     1603.433     4407.706     6140.899     91.07555     181.2149     362.8268      2.965     7.94     1158.228      63.9414     199.5109        39     2.000     1.574 -36.91   0
       350    235.2928     59.3874 307.8358841  +6.6638752     1193.791      2927.27     5314.198     90.64356     181.1427     362.5381      3.925     8.60      1181.18      63.9414     142.8103        21     2.079     0.993 -41.72   2
       351    233.0077     57.3560 307.8369044  +6.6646375     772.2769     1475.008     3207.783     90.35442     181.2149     362.4299      2.111     3.49     1181.244      63.9414     115.3972         5     1.015     0.347 -41.52   3
       352    677.3490     51.5793 307.6522411  +6.6818375     798.7061     1838.987     1327.696     90.35443     181.5035     362.6103      2.160     5.60     1156.833      63.9414     126.0406        10     1.312     0.689 -28.78   0
       353    164.6176     43.6269 307.8658268  +6.6680199     4329.715     12469.34     15764.43     90.49911     181.2149     362.6464      2.815     6.99     1181.424      63.9414     518.8438        72     2.306     1.888 -34.62   0
       354    508.6993     41.9726 307.7227351  +6.6801893     1221.085      3260.37     4205.899     90.93178     181.1427     362.6825      2.839    10.26     1159.292      63.9414      150.576        29     2.004     1.600 -17.06   0
       355    909.9186     40.8564 307.5558450  +6.6939918      2184.98     5020.246     5809.434     91.07555     181.4314     362.7907      2.419     6.31     1152.068      63.9414     265.7471        35     1.833     1.354 -36.88   0
       356    710.9594     39.8944 307.6386563  +6.6877801      944.687     2229.073      2925.44     91.07555     181.3593     362.8628      2.608     7.31     1154.982      63.9414     114.5863        14     1.554     0.961 -29.60   0
       357    446.3420     40.2571 307.7487369  +6.6788191     776.7289     1719.428     1574.284     91.07555     181.4314     362.7907      2.303     5.97     1164.104      63.9414     116.6349         8     1.339     0.748  52.02   0
       358    974.9431     37.3890 307.5289087  +6.6975804      1291.22     2752.939     3573.605     90.20951     181.3593     362.4299      2.355     5.37     1147.023      63.9414     146.3854        21     1.387     1.130 -41.19   0
       359    694.3283     33.8469 307.6457821  +6.6897242     3470.127     9125.957     11784.89     90.93178     181.5035     362.7546      2.764     6.68     1155.497      63.9414     388.1399        59     2.248     1.655 -33.18   0
       360    614.7114     33.1130 307.6789320  +6.6873782     1488.442     4254.632     5177.761     90.64356     181.9355     362.8628      2.815     9.92      1157.74      63.9414     179.6243        38     2.017     1.558 -41.46   0
       361    414.9234     29.6750 307.7621704  +6.6821406      2672.95      7440.56     9836.059     91.21909     181.7196     362.8268      2.930     7.52     1167.939      63.9414     314.5879        52     2.093     1.742 -38.71   0
       362    897.4244   1017.8099 307.5277879  +6.2901692     7006.271     12716.85     13665.27     90.49911     181.2149      355.505      1.935     4.85     1210.626      63.9414     841.7928        41     1.791     1.121 -36.82  16
       363    871.0209   1014.0516 307.5388926  +6.2908453     9439.928     18188.34     20260.95     90.35442     181.5035     362.5381      2.048     5.16     1210.266      63.9414     1115.451        49     1.896     1.216 -29.35  16
       364     85.4083     25.5243 307.8994006  +6.6728443     1050.887     2874.174     3912.392     90.49911     180.8536     362.5381      2.717     8.48     1181.912      63.9414     127.3291        21     1.825     1.100 -55.55   0
       365    515.2748   1013.1465 307.6868169  +6.2793960     2742.114     6206.047     7524.081     90.78778     181.4314     362.7185      2.478     5.60     1212.102      63.9414     342.2061        39     1.869     1.375 -23.86  16
       366    780.1786     22.3023 307.6104573  +6.6973449     526.1283      1119.12     764.5513     90.78778     181.2149     362.5021      2.099     5.72     1151.375      63.9414     80.77222         6     1.182     0.781 -37.67   0
       367    992.5895   1013.4407 307.4883727  +6.2951283     3993.989     7139.268     7587.698     90.20951     181.2149     362.4299      1.898     5.12     1209.611      63.9414     475.8516        30     1.718     0.967 -39.58  16
       368    624.4621   1012.6290 307.6414430  +6.2832429     865.4366     1837.301     1803.326     90.64356     181.4314     362.7185      2.118     6.93     1212.627      63.9414     122.8564        11     1.488     0.905 -31.88   0
       369    584.1602   1014.0699 307.6581483  +6.2813074     889.2393     1768.958      2135.25     90.78778     181.4314     362.8268      2.316     4.50     1212.334      63.9414     119.2214         8     1.007     0.572 -25.08   0
       370    468.7018   1009.6075 307.7062990  +6.2793065     1411.141     2894.615     3566.119     90.64356     180.9982     362.5381      2.314     6.94     1211.811      63.9414     153.6417        20     1.689     0.944 -14.33   0
       371    902.7903   1001.5455 307.5261103  +6.2970632     34383.45     64244.18     70174.17     90.20951     181.3593     362.4299      2.004     4.93     1209.539      63.9414     3953.399        78     1.945     1.342 -36.41   0
       372    210.0203   1000.3314 307.8141529  +6.2745095     1060.838     1980.621     1902.007     90.49911     181.2871     362.6103      2.075     5.43     1212.268      63.9414       148.84        12     1.213     0.829 -59.34   0
       373    872.8100     15.2654 307.5721565  +6.7033271     744.4212     1653.655     1552.165     90.35442     181.2149     362.6103      2.379     6.27      1150.46      63.9414     111.4355         7     1.609     0.687 -39.12   0
       374    800.7268    995.6268 307.5687435  +6.2961205     1621.513     3286.669     3619.885     90.49911     181.3593     362.6825      2.186     5.77     1210.916      63.9414     211.6144        23     1.680     0.987 -36.74   0
       375    748.9487    993.2290 307.5903513  +6.2953912     4618.806     9256.425     10910.41     90.49911     181.5756     362.6464      2.233     5.00     1210.728      63.9414     495.6965        42     1.889     1.229 -45.31   0
       376    218.8503    992.7748 307.8107410  +6.2779246     844.4079     1727.144     1887.039     90.49911     181.4314     362.6464      2.096     5.31     1212.373      63.9414      117.402         8     1.279     0.622 -53.03   0
