#   1 NUMBER                 Running object number                                     
#   2 X_IMAGE                Object position along x                                    [pixel]
#   3 Y_IMAGE                Object position along y                                    [pixel]
#   4 ALPHA_J2000            Right ascension of barycenter (J2000)                      [deg]
#   5 DELTA_J2000            Declination of barycenter (J2000)                          [deg]
#   6 FLUX_APER              Flux vector within fixed circular aperture(s)              [count]
#   9 FLUXERR_APER           RMS error vector for aperture flux(es)                     [count]
#  12 FLUX_RADIUS            Fraction-of-light radii                                    [pixel]
#  13 FWHM_IMAGE             FWHM assuming a gaussian core                              [pixel]
#  14 BACKGROUND             Background at centroid position                            [count]
#  15 THRESHOLD              Detection threshold above background                       [count]
#  16 FLUX_MAX               Peak flux above background                                 [count]
#  17 ISOAREA_IMAGE          Isophotal area above Analysis threshold                    [pixel**2]
#  18 A_IMAGE                Profile RMS along major axis                               [pixel]
#  19 B_IMAGE                Profile RMS along minor axis                               [pixel]
#  20 THETA_IMAGE            Position angle (CCW/x)                                     [deg]
#  21 FLAGS                  Extraction flags                                          
         1     72.4463     23.3503 307.9006109  +6.6514759     3190.455     10566.21     14426.71     92.50563     184.4248     369.0699      3.092     8.16     1232.334      65.0481     474.2059        73     2.439     1.975 -50.81   0
         2    614.9396     14.8923 307.6749789  +6.6728862     6448.136        20736     28044.85     92.35914     184.4982     369.1432      3.032     7.65     1200.829      65.0481     679.9823        86     2.439     2.028 -47.55  16
         3    515.2999     12.8350 307.7165453  +6.6704540     1669.344     3856.472     5895.923     92.50562     184.4248     369.2166      3.037    11.03     1207.531      65.0481     179.5687        34     2.290     1.715 -38.56  18
         4    512.9963     10.3287 307.7175901  +6.6714141     1405.748     2954.692     4841.345     91.91828     184.1309     368.8497      2.850     6.69     1207.735      65.0481     158.1412        17     1.593     0.979 -40.52  19
         5    420.3336      6.7903 307.7563011  +6.6698208     7276.947     24893.38     34548.25     91.91828     184.3514     358.2727      3.114     8.17     1213.443      65.0481     905.9503        92     2.516     2.122 -46.22  16
         6    240.7932      7.3883 307.8310508  +6.6636439     2766.323        10297     15056.16     92.06547     184.3514     363.2271      3.536     8.97     1228.984      65.0481     452.8716        80     2.652     2.007 -30.85  16
         7      7.5213      8.1201 307.9281693  +6.6556204     932.9578     2008.616     2077.642      92.7979     184.8648     363.2271      2.166     6.17     1234.422      65.0481     117.6884        12     1.446     0.739 -62.29  16
         8    897.5403      4.9581 307.5576209  +6.6862841     875.9143     2276.093     3285.481     92.50562     184.5716      337.288      3.083     9.50     1193.304      65.0481     108.2664        14     1.856     1.357 -48.65  18
         9    600.2357      5.9815 307.6814061  +6.6760855     1171.079     3007.622     4723.845     91.91828     184.3514     349.7048      3.067     9.67     1201.429      65.0481     146.5535        25     2.437     1.071  82.77  18
        10    603.3081      5.0810 307.6801572  +6.6765589      970.172     2141.585     3266.957     92.21242     184.8648     339.0497      2.761     5.16     1201.133      65.0481     171.6296        11     1.391     0.606 -61.95  19
        11    229.1580      4.2319 307.8360042  +6.6645640     1050.223     3567.919     5271.045     91.91828     183.6155      326.974      3.514    11.29     1229.066      65.0481     151.9288        31     2.016     1.760 -59.89  25
        12    553.3145    994.3888 307.6672919  +6.2659640      2354.68     5540.431     7260.984     92.06547      184.278     368.8497      2.726     6.18     1260.633      65.0481     265.7856        38     1.803     1.470 -35.40   0
        13    685.6960   1023.6270 307.6112095  +6.2582335     875.4551     1180.512     1109.501     81.11996     147.3709     278.1991      1.326     4.93     1262.434      65.0481     143.4502        10     1.504     0.457  -6.30  24
        14    594.3154   1023.5581 307.6492380  +6.2552560     675.0663     1154.614     1059.795     82.11533     148.6516     279.8974      1.804     5.12     1261.707      65.0481     99.42676         8     1.591     0.466  -6.52  24
        15    689.0626    994.4180 307.6108010  +6.2704183     787.8069     1673.698      2145.23     92.06547     184.4982     368.8497      2.231     8.16     1260.149      65.0481     123.8523        11     1.729     1.076 -20.35   1
        16    728.8071    990.9623 307.5943790  +6.2731534     828.7606     1421.659     2015.466      91.6232     184.2045     368.7395      2.428     6.11     1259.824      65.0481      104.631        11     1.118     0.940 -54.69   0
        17    211.8877    991.8648 307.8094545  +6.2557470     2079.677      2355.68     2507.526     92.50562     184.7916     369.0699      0.710     1.58     1259.995      65.0481     958.4877         7     0.773     0.475 -15.43   0
        18    936.6866    984.5451 307.5080880  +6.2826313     5242.112     9707.979     10646.02     92.50563     184.4982     369.2166      2.037     4.46     1255.675      65.0481      617.899        41     1.803     1.199 -46.58   0
        19    696.2298    982.7446 307.6082150  +6.2754795     1906.213     4094.546     5718.405     92.21243      184.645     368.9965      2.706     6.19     1259.296      65.0481     254.5646        26     1.827     1.073 -39.15   0
        20    223.0357    985.5292 307.8050318  +6.2587341     700.3324     1569.971     1802.464     92.35914     184.5716     369.0699      2.554     4.00     1260.149      65.0481     123.2913         5     0.916     0.499   0.65   0
        21    343.2741    980.2371 307.7551783  +6.2648912     917.2504      2255.28     2750.726     92.35914      184.645     369.0699      2.466     7.76     1261.091      65.0481     124.0515        14     1.400     1.204 -41.25   0
        22    730.0528    969.8927 307.5945763  +6.2819039      4749.83     10494.94     11633.58     92.35914     184.4982     369.2899      2.309     5.53     1258.215      65.0481     532.9624        48     1.944     1.400 -44.94   0
        23    525.6443    970.6254 307.6796151  +6.2748759     2306.916     5683.871     6608.321     91.91828      184.645     368.8864      2.463     6.59     1260.008      65.0481     245.7677        39     1.913     1.376 -37.37   2
        24    522.8110    962.8983 307.6810572  +6.2779768     4474.754      10774.2     13060.45     92.21242     184.1309      368.813      2.505     6.12     1259.717      65.0481     444.4185        57     2.118     1.574 -38.43   2
        25    276.0299    969.5654 307.7835245  +6.2670831     8166.681     20424.64     25869.68     92.06547     184.2779      368.813      2.687     6.05     1260.183      65.0481     784.0968        77     2.394     1.688 -35.36   0
        26    891.3782    963.1520 307.5276687  +6.2899883     6315.887     12835.92     14811.98     92.06547     184.5716     368.8864      2.187     5.09     1254.772      65.0481     672.5857        46     1.909     1.293 -42.97   0
        27    864.8609    959.3717 307.5388323  +6.2906807     8769.746     18092.51     20691.38     92.06547     184.5716     368.9598      2.233     5.02     1254.595      65.0481     970.1072        60     2.094     1.378 -42.43   0
        28    986.6406    958.7333 307.4881740  +6.2949393     3901.765     7334.693     8341.967     92.50563     184.4982     369.1432      2.032     4.68     1253.496      65.0481     473.4655        39     1.733     1.321 -42.82   0
        29    509.5547    958.5638 307.6867212  +6.2793318     2110.261     5085.215     6163.641     92.21243     184.4982     368.9598      2.532     7.02     1259.645      65.0481      222.859        36     1.890     1.358 -22.81   0
        30    577.7499    959.5241 307.6583094  +6.2811805     744.0615     1761.385     1902.008     92.35914      184.645     369.0332      2.202     4.57     1259.425      65.0481     100.7206         6     1.293     0.459  -9.38   0
        31    462.4899    955.3718 307.7064157  +6.2791007     1069.248     2709.163     2820.966     92.65188      184.278     368.9231      2.453     9.13      1259.56      65.0481     129.8529        23     1.742     1.337  80.14   0
        32    896.6497    946.9099 307.5260257  +6.2968754     30651.69     61562.87     68680.52     92.50562     184.3514     369.2166      2.165     4.89     1254.061      65.0481     3299.681        78     2.040     1.454 -43.35   0
        33    204.2645    945.8270 307.8141984  +6.2745253     951.8587     2183.866     2844.263     92.06547     184.4982     368.9231      2.456     7.96      1258.89      65.0481      131.995        14     1.542     1.173  49.02   0
        34    794.7406    940.7643 307.5686450  +6.2960702     1504.558     3124.008      3645.23     92.50563     184.5716     368.9965      2.252     6.13     1254.379      65.0481     184.8538        21     1.359     1.244 -31.22   0
        35    742.8317    938.6741 307.5903185  +6.2952288     3997.878     9132.706     10902.76     92.35914     184.5716     369.0332      2.416     5.53     1255.656      65.0481     472.0206        49     2.008     1.467 -39.05   0
        36    529.1964    938.2001 307.6792405  +6.2883965     668.9498     1068.531     824.9816     91.77086     184.0574     368.7395      1.527     3.71     1258.705      65.0481     106.4835         5     1.179     0.336 -79.18   0
        37    212.5542    937.9985 307.8110160  +6.2780351     869.4346     1757.509     1751.171     91.77086     184.2045     368.5559      2.066     6.38     1258.905      65.0481     94.57068        10     1.395     0.821  58.50   0
        38     37.5432    936.5908 307.8838913  +6.2728301     1449.543     3492.251     4240.908     91.77086     184.4982     368.7028      2.467     7.20      1256.74      65.0481     176.6554        26     1.588     1.317 -39.07   0
        39    931.0310    933.5939 307.5121688  +6.3035078     4847.185     9988.834     10972.69     91.77086     184.3514     368.7762      2.202     5.22     1253.427      65.0481     534.0417        47     1.988     1.313 -44.41   0
        40    904.6669    925.4070 307.5234183  +6.3060273     1475.559      2909.54      2949.83     91.91828      184.278     368.8497      2.079     7.27     1253.069      65.0481     171.1696        22     1.534     1.314 -49.01   0
        41    237.8458    921.9592 307.8010388  +6.2855006     2194.929      5672.69     7081.644     92.35914     184.5716     368.8497      2.627     7.09     1259.129      65.0481     223.2966        48     2.090     1.605 -34.86   0
        42    625.5389    921.6829 307.6397087  +6.2983956     2685.313     6021.325     7159.242     92.65188     184.5716     369.0699      2.456     5.69     1257.108      65.0481     293.0343        43     1.901     1.452 -41.11   0
        43    762.8758    921.0815 307.5825743  +6.3031598      674.142     1423.729     1697.996      92.7979     184.8648     369.1432      2.353     5.24      1253.96      65.0481     93.07007         6     1.421     0.546 -71.29   0
        44      8.7711    919.8398 307.8964370  +6.2788018      802.201     1947.949      3023.04     92.06547     184.2779     368.8864      3.121     6.76     1256.573      65.0481     118.9497        10     1.669     0.769  67.58  18
        45    980.4102    914.0808 307.4922798  +6.3131934     654.3051     1191.804     1440.328     92.06547     184.2045     368.8497      1.713     4.36     1250.906      65.0481     94.40088         5     1.123     0.482 -84.58   0
        46    549.8466    913.2552 307.6714957  +6.2993880     958.7615     1903.078     1641.624     92.50562     184.5716     369.1065      2.028     6.57     1257.896      65.0481     139.7738        13     1.383     0.877  77.59   0
        47    269.9160    908.3801 307.7881563  +6.2921728     753.9072     1746.192     2592.759     92.06547     184.2045     368.9965      3.110     7.34     1259.471      65.0481     109.7445        10     1.431     1.053  64.52   0
        48    717.9129    907.9026 307.6017341  +6.3071299     6345.096     6555.237     6410.545     92.50562     185.0844     369.0699      0.507     1.53     1254.139      65.0481     4033.648         8     0.674     0.315  48.66   0
        49    873.6868    900.5963 307.5371529  +6.3152668     4554.648     9630.688     10362.14     91.91828     184.1309     368.7028      2.185     5.57     1252.094      65.0481     508.0039        47     2.019     1.315 -45.34   0
        50    409.6110    898.0817 307.7303729  +6.3010393     1002.244     2492.366     3030.698     92.06547     184.2779     368.8497      2.736     8.79     1258.217      65.0481     130.8772        16     1.687     1.280 -24.44   0
        51    311.4268    896.7179 307.7712794  +6.2983639     4620.057     11976.76     14108.38     92.35914     184.3514     368.9598      2.630     6.34     1259.391      65.0481     514.7097        59     2.057     1.766 -42.70   0
        52    231.5643    895.6234 307.8045517  +6.2961794     3547.709     9068.854     10784.22     91.91828      184.278     368.7762      2.598     6.06     1258.899      65.0481     378.3853        59     2.014     1.785 -36.97   0
        53    844.8056    883.6119 307.5497490  +6.3213397     512.3089     815.3742     602.0927     92.06547     184.2779     368.9231      1.474     3.43     1251.482      65.0481     95.66211         5     1.276     0.266 -55.39   0
        54    725.7911    878.4291 307.5994567  +6.3195725     1090.141     2253.353     2932.926     91.91828     184.3514      368.813      2.353     6.54      1252.63      65.0481      169.243        11     1.304     0.920   9.33   0
        55    956.3458    874.4941 307.5036365  +6.3287686     932.2999     1643.841     2542.579     92.35914     184.5716     369.2899      2.082     5.43     1249.469      65.0481     135.2883         9     1.341     0.620 -59.66   0
        56    644.1727    872.4511 307.6336278  +6.3193597     1417.483     3470.694     4080.765     92.06547     184.7183     368.9598      2.538     7.48     1253.926      65.0481     196.9087        25     1.808     1.212 -43.45   0
        57     41.6112    869.0449 307.8845085  +6.3008851      1448.02     3697.217     4347.558     91.91828     184.4248     368.7028      2.522     7.66      1256.18      65.0481     189.3704        26     1.553     1.443 -16.57   2
        58     59.2795    869.1063 307.8771538  +6.3014444     750.3455     1694.822     1524.165     92.21243     184.7916     369.1065      2.107     5.29     1256.183      65.0481     112.3795         7     1.408     0.561  13.59   0
        59    184.8957    867.3303 307.8249391  +6.3063326     988.9021     2501.302     3099.431     92.35914      184.645     369.0332      2.684     6.41     1257.609      65.0481     152.8633        15     1.582     1.152 -13.53   0
        60    639.0519    861.3906 307.6361351  +6.3237633     3569.305     9036.301     10531.74     91.91828     184.4248     368.7395      2.542     6.32     1253.445      65.0481     379.2487        52     2.086     1.563 -43.89   0
        61    876.5794    857.4006 307.5374143  +6.3332178     1624.431     3546.261     4359.638     92.06547     184.2045     368.7028      2.495     8.33     1249.913      65.0481     190.1606        27     2.107     1.194 -28.90   0
        62    322.0838    854.9135 307.7682703  +6.3159961     7539.348     20337.38     25846.84     92.21243     184.7916     369.0699      2.751     6.47     1258.278      65.0481     740.1216        75     2.206     1.840 -46.06   0
        63     56.5436    855.7597 307.8787487  +6.3068707     709.2142     1414.676     1332.996     92.50562      184.645     369.0699      1.829     4.10     1255.792      65.0481     120.2606         5     1.119     0.459  36.27   0
        64     85.7224    845.8205 307.8669457  +6.3119446     890.1253     2173.284     2730.708     92.06547      184.278     368.9965      2.337     6.04     1255.537      65.0481     92.51355        11     1.469     0.698  40.45   0
        65    867.1104    838.9659 307.5419807  +6.3405275     1303.393     2480.773     2823.227     92.65188     184.4248     369.0332      1.987     7.22     1248.661      65.0481     168.2434        18     1.369     1.068 -55.59   0
        66     68.8727    839.5619 307.8741718  +6.3139741     1108.847     3090.205     4148.545     92.35914     184.4982     369.1065      2.901     9.16     1255.242      65.0481     126.8636        22     1.597     1.465  35.62   2
        67    837.4672    838.5801 307.5543312  +6.3397138     1185.411     2631.713     3270.313     92.06547     184.5716     368.9231      2.356     7.82      1248.91      65.0481      140.599        18     1.474     1.159  -5.11   0
        68    801.2136    838.0002 307.5694396  +6.3387630     1675.085     3559.667     4660.521     92.06547     184.2045      368.813      2.455     7.75     1249.121      65.0481     169.4015        26     1.645     1.223 -18.45   0
        69    537.1273    829.9194 307.6796253  +6.3334176       154669     412480.3     509100.8      92.7979     184.8648     369.0699      2.691     6.35       1254.8      65.0481     14932.65       189     2.427     1.960 -42.62   0
        70    381.6433    832.5074 307.7442472  +6.3272231     3458.412     9285.003     12246.25     92.50563     184.5716     369.1799      2.908     6.74     1256.439      65.0481     349.7781        62     2.259     1.718 -40.80   0
        71    324.7097    831.1033 307.7679895  +6.3259250     5631.983     15544.14     19546.38     92.50562     185.0844     369.0332      2.789     6.53     1257.583      65.0481     580.4041        72     2.198     1.872 -35.81   0
        72    625.8368    832.4240 307.6426200  +6.3353025     544.2678     1115.388     861.5127     92.06547     184.3514     368.7762      1.896     4.32      1251.84      65.0481     84.36792         5     0.942     0.565  46.84   0
        73    643.0450    827.0906 307.6356394  +6.3380734     1625.381     4494.574     4871.862     92.50562     184.4982     369.1799      2.668     9.18     1251.062      65.0481     169.1133        35     1.834     1.487 -37.91   0
        74    875.2567    825.6461 307.5390420  +6.3463010     3142.761     6961.749     7799.819     92.50563     184.5716     369.1065      2.409     6.29     1247.477      65.0481     336.1195        40     2.060     1.252 -37.88   0
        75   1008.7493    819.6540 307.4836845  +6.3531565     3294.136     6779.296     6988.898     92.65188     184.5716     369.0699      2.170     5.46     1244.619      65.0481      346.743        41     1.904     1.321 -44.00   0
        76    619.2349    820.4753 307.6457740  +6.3400245     1416.878     3014.788      3489.74     92.35914      184.645     368.9965      2.323     7.34     1251.231      65.0481     147.2104        15     1.584     0.952 -83.69   3
        77    616.2012    820.9747 307.6470197  +6.3397183     1433.218      2928.95     4562.158     92.06547     184.2045     368.7762      2.729     6.57     1251.377      65.0481     169.2922        20     1.407     1.215 -85.85   3
        78    806.3486    819.7025 307.5679236  +6.3464955     936.6034     1871.291     2117.228     92.35914     184.5716     369.2899      2.423     5.57      1247.96      65.0481      134.644         9     1.170     0.748  83.98   0
        79    611.9781    815.3596 307.6489683  +6.3419004     873.8506     2268.202     4130.498     92.06547     184.3514      368.813      3.935     6.81      1251.09      65.0481     118.7019        13     1.394     1.170  63.83   3
        80    893.8936    813.7667 307.5316882  +6.3518233     1925.441     4061.481     4810.172     92.65188     184.4248     369.1065      2.220     8.02     1246.073      65.0481     212.0355        25     1.698     1.173 -49.08   0
        81    354.0000    810.8656 307.7564897  +6.3352572     914.8361     1786.263     2613.725      91.6232     184.1309     368.7028      2.839     4.69     1256.059      65.0481     150.9456        11     1.166     0.864 -27.27   3
        82    355.0192    807.7272 307.7561725  +6.3365881     782.2994     1323.351     2396.212     92.06547     184.4982     368.9598      3.507    11.42      1255.92      65.0481     125.3701        16     3.100     1.172 -16.22   2
        83    489.0404    799.7596 307.7006655  +6.3443006     1316.489     3558.618     4606.595     92.21242     184.7183     368.8864      2.705     9.08     1253.912      65.0481     149.1802        28     1.731     1.329  -1.59   0
        84    535.7466    795.7005 307.6813647  +6.3475172     2801.148     7661.757     10539.47     92.35914     184.5716     369.2899      2.964     7.48     1252.715      65.0481     293.0013        55     2.243     1.656 -27.72   0
        85    869.2330    795.4975 307.5425720  +6.3585660     436.3195     1216.763     1780.066     92.50563     184.4248     369.1799      2.596     4.54     1245.419      65.0481     78.90271         5     1.176     0.498  86.04   2
        86    506.1462    789.5993 307.6938921  +6.3490642      8624.09     23914.41     29979.12      91.6232     184.2045     368.5191      2.748     6.70     1252.781      65.0481     856.9397        82     2.330     1.849 -38.85   0
        87    453.6732    793.1794 307.7156094  +6.3458551     648.5874     1403.784     1264.676     92.06547     184.4982     368.9598      1.978     4.02     1253.564      65.0481     93.62524         6     1.264     0.365 -27.31   0
        88    919.8738    787.6320 307.5217612  +6.3634793     2325.891     5329.792     6551.404     92.35914     184.5716     369.0332      2.411     6.69     1243.854      65.0481     248.9933        37     1.998     1.352 -45.09   0
        89    298.9827    778.4924 307.7804915  +6.3468232     1487.109     4317.791      4702.51     92.21242     184.2779     368.8864      2.628     8.87     1255.584      65.0481     183.1538        36     1.881     1.491 -55.44   0
        90     17.2252    780.0305 307.8977019  +6.3368723     858.1238      1795.02     2440.286     91.91828     184.3514     368.8497      2.267     5.72     1252.088      65.0481      148.062         8     1.455     0.633  40.44   0
        91    764.2655    773.9421 307.5869929  +6.3640292     28255.26        69879      83857.7     92.65188     184.4982     369.0699      2.542     6.12     1246.063      65.0481     2740.156        96     2.276     1.742 -44.09   0
        92    221.2337    750.8500 307.8137938  +6.3556817     765838.4      2544852      3397279     92.35914     184.5716     368.9598      3.051     7.57     1253.854      65.0481     63879.81       668     2.905     2.455 -60.21   4
        93    889.3873    769.1087 307.5350786  +6.3701361     4788.286     10926.73     12300.38     92.21242     184.2779     368.7762      2.352     5.51     1243.949      65.0481     475.0983        56     2.045     1.536 -43.43   2
        94    886.3077    760.5463 307.5366508  +6.3735745     3938.818     8989.263     10471.47     92.35914     184.4982     369.2166      2.392     5.64     1243.728      65.0481     384.8137        50     2.050     1.437 -44.70   2
        95    687.5053    765.8104 307.6192181  +6.3648673     34842.34     101906.3     160320.7     92.06547     184.1309     368.7762      3.458     8.95     1246.289      65.0481     4006.057       191     3.455     2.335  22.32   0
        96    331.3014    766.3208 307.7674559  +6.3529214     8493.528     24500.13     31621.93     92.35914      184.938     369.0699      2.864     6.89     1253.883      65.0481     830.5754        90     2.382     1.980 -46.54   0
        97    393.1065    764.1514 307.7418065  +6.3558573     9171.237     26660.15     34357.79     92.35914     184.4248     369.1799      2.855     6.86     1252.399      65.0481     865.2571        86     2.325     1.948 -39.26   0
        98    929.7819    762.9917 307.5184728  +6.3739901     1263.269     2765.891     3321.421     92.21242     184.2779     368.8497      2.390     7.68     1242.749      65.0481     160.5231        18     1.570     1.052 -73.44   0
        99    627.2202    759.7181 307.6445169  +6.3654026     2876.801     7589.654     9289.736     92.21243     184.2045     368.9598      2.708     6.86     1246.973      65.0481      325.418        52     2.169     1.617 -48.98   0
       100   1009.3002    751.8348 307.4857530  +6.3812096     744.1542     1146.436     1410.937     92.50562     184.4248     369.2166      1.948     6.06     1240.575      65.0481     105.7188         7     1.237     0.835  77.43   0
       101    661.7572    749.7654 307.6304804  +6.3706531     1051.435     2929.039     3326.345     92.21243     184.5716     368.8497      2.767     9.79     1245.657      65.0481      137.214        24     1.904     1.404 -21.93   0
       102    396.0766    746.7703 307.7411628  +6.3631400     21513.38     63073.98     81429.16     92.35914      184.645     369.0699      2.885     6.94      1251.26      65.0481     2009.344       112     2.421     2.036 -42.68   0
       103    513.8619    745.6368 307.6921777  +6.3674911     2854.796     8182.865     9886.545     92.50562      184.645     369.0332      2.758     7.40     1248.895      65.0481      308.902        59     2.205     1.777 -38.47   0
       104    430.2069    743.3224 307.7270749  +6.3656908     1804.616     5367.453     9588.458     92.06547     183.9838      368.813      4.243    11.99     1250.328      65.0481     197.6147        61     2.771     1.928  86.63   0
       105    125.2692    734.3188 307.8542988  +6.3593427     1323.497     3157.157     3658.257      92.7979     184.8648     369.0699      2.333     8.21     1253.108      65.0481      150.567        22     1.689     1.166  22.12   3
       106    117.0562    734.5959 307.8577075  +6.3589565     4955.931     14109.17     20147.95     91.77086     184.3514     368.6661      3.351     6.81     1253.086      65.0481      565.792        86     2.393     2.198  -8.84   3
       107    109.5915    731.8275 307.8609089  +6.3598540     1227.073     4185.705     7618.077     92.06547     184.3514     368.8497      4.030    11.22     1252.755      65.0481     146.2804        37     1.973     1.794  66.08   3
       108    904.1976    730.7379 307.5302157  +6.3864837     3505.852     8167.698     9817.507     91.77086     184.4248     368.7028      2.441     5.88     1241.954      65.0481      364.557        48     1.931     1.583 -47.81   0
       109    953.5003    730.7404 307.5096939  +6.3881000     982.7249     2217.823     4060.847     92.21243     184.5716     369.1799      3.522     7.55     1240.784      65.0481     142.0859        15     1.452     1.097  69.70   0
       110    546.4124    726.7600 307.6792722  +6.3763664     966.2688     2368.826      3332.47     91.91828     184.3514     368.7762      3.288     6.27      1246.61      65.0481     148.9916        11     1.426     0.774 -14.71   2
       111    661.1428    728.4672 307.6314603  +6.3794370     785.3102     1674.599     1925.804     92.65188     184.4982     368.9965      1.935     3.42     1244.277      65.0481     96.16528         5     1.189     0.285 -54.71   0
       112    657.6929    726.6392 307.6329583  +6.3800791     681.8843      1316.72     2699.296     92.65188     184.4982     369.1065      3.292     4.09     1244.269      65.0481     95.33105         5     1.005     0.475   4.44   0
       113    758.7655    742.2253 307.5903594  +6.3769594      5635.23     14596.39     17949.48     91.91828     184.3514     368.7762      2.662     6.29     1244.037      65.0481     568.3096        63     2.152     1.694 -40.60   0
       114    898.8040    722.3636 307.5327447  +6.3897684     1602.204     3992.196     5159.045      91.4753     184.3514      368.813      2.649     9.18      1241.33      65.0481     184.7744        36     2.253     1.402 -25.11   0
       115    928.0711    722.0082 307.5205746  +6.3908756      1724.13     4078.328     4671.673     91.91828     184.0574     368.8864      2.387     6.18     1240.719      65.0481     218.2996        28     1.679     1.320 -63.10   0
       116    958.5569    721.8348 307.5078911  +6.3919473     1120.447     2518.768     3708.765     92.21243     184.5716     368.8497      2.879     7.16     1240.067      65.0481     131.5516        16     1.513     0.950 -32.67   0
       117    650.6240    721.8220 307.6360645  +6.3818379     732.8173     1592.706     1966.823     92.06547     184.3514     368.9965      2.092     4.36     1244.095      65.0481     107.6079         5     1.185     0.457  81.51   0
       118    224.5334    716.7090 307.8135863  +6.3699033     951.2244     2157.411     3775.759     92.50563     184.7183     369.0699      3.323     7.05     1251.595      65.0481     119.4253        12     1.374     1.013  27.27   0
       119    942.8381    709.8866 307.5148390  +6.3963709     1369.107     3378.094     4033.107     92.50562     184.4982     369.0332      2.368     7.94     1239.532      65.0481     153.4165        26     1.860     1.138 -49.02   0
       120   1016.6680    703.8845 307.4843109  +6.4012728     4711.473     9928.981     11296.81      92.7979     184.8648     368.7028      2.258     5.21     1238.112      65.0481     530.4706        47     2.009     1.332 -48.68  16
       121    984.1187    703.3654 307.4978772  +6.4004204     1010.828     2317.142     2252.637     92.35914     184.5716     369.0332      2.291     6.46     1238.496      65.0481     162.3765        11     1.338     0.874  53.86   0
       122    870.9620    698.7388 307.5451353  +6.3986207     611.8153     1506.709     2213.115     92.50562      184.645     369.0332      3.143     5.65     1239.985      65.0481     108.9102         7     1.105     0.815 -53.39   0
       123     28.7010    689.8651 307.8960107  +6.3745225     886.9209     2821.052     3367.866     92.50562      184.645     369.0699      2.779     9.07     1249.024      65.0481     128.5768        18     2.048     1.120  22.62   0
       124    828.7863    689.0410 307.5630200  +6.4012448     780.3132     1820.771     1737.671     91.91828     184.3514     368.7395      2.289     5.53     1239.393      65.0481      115.864         8     1.376     0.711 -50.28   0
       125    640.8004    678.3073 307.6416333  +6.3995025     2666.994     7249.554     8926.091     91.91828     184.0574     368.6294      2.763     6.97     1241.733      65.0481      278.807        52     2.134     1.633 -33.37   0
       126    104.3275    674.4888 307.8650601  +6.3833812      1423.91     4276.776      5362.53     92.50563     184.8648     369.0699      2.787     8.92     1248.146      65.0481     207.3875        42     2.104     1.664 -15.44   0
       127    614.7297    673.6821 307.6526424  +6.4005565     836.7997     2397.641      2971.19      92.7979     184.8648     369.0699      2.611     9.87      1242.55      65.0481     108.4963        17     1.835     1.481 -32.18   0
       128    977.7297    673.0647 307.5015637  +6.4127365     1561.208     3060.229     3712.604     92.50562      184.645     369.0332      2.178     6.50     1236.845      65.0481     177.3014        21     1.657     0.937 -34.13   0
       129    757.7852    670.1653 307.5932153  +6.4067150     9075.759     24626.78     30416.36     92.06547     184.2779     368.8497      2.684     6.58     1237.979      65.0481     887.6909        76     2.300     1.755 -43.56   0
       130    887.5743    669.8895 307.5391993  +6.4110916     1804.729     4484.912     4747.012     92.65188     184.3514     368.8497      2.371     7.46     1237.369      65.0481     205.4746        33     1.634     1.571 -44.42   0
       131    457.3173    669.8202 307.7182955  +6.3969680     667.8674     1401.377     1348.207     92.21243     184.2045     368.9598      1.678     4.69     1246.108      65.0481     126.4222         5     1.210     0.517  40.64   0
       132    231.4757    664.1353 307.8124921  +6.3918646     2342.514     7020.564     10055.26     92.65188     184.5716     368.9965      3.345     8.24     1248.033      65.0481     235.8416        61     2.206     1.954 -43.88   0
       133    640.1743    664.1249 307.6423763  +6.4053445     2081.812     4149.093     4959.009     92.06547     184.3514     368.9965      2.161     8.02     1240.722      65.0481      238.449        26     2.218     0.810 -54.83   3
       134    637.3023    662.2057 307.6436370  +6.4060433     2750.119      5740.84     6619.598     92.21243     184.2045     368.7395      2.238     6.47      1240.67      65.0481     340.9601        33     2.003     1.112 -57.78   3
       135    709.9435    651.4907 307.6137641  +6.4128620     1385.637     4266.299     6407.139     92.35914     184.4248     369.1432      3.401    11.06      1237.58      65.0481     164.4492        39     2.182     1.563 -39.24   0
       136    914.3290    648.2773 307.5287955  +6.4209035     1314.164     2939.016     3202.998      92.7979     184.8648     369.0332      2.301     7.61     1235.953      65.0481     181.5891        17     1.625     1.185 -76.36   0
       137    976.2192    647.7024 307.5030522  +6.4231712     5188.579      11830.9     12821.11     92.35914     184.4248     368.7395      2.310     5.75     1235.346      65.0481     514.9596        52     1.977     1.489 -45.48   0
       138     53.9898    643.4106 307.8870745  +6.3945618     9863.585     30209.42     39159.09     92.06547     184.3514     368.9965      2.912     7.15     1247.448      65.0481     1070.429        92     2.367     2.051 -43.65   0
       139    514.8243    643.8729 307.6952424  +6.4095890     622.7018     2053.258     2807.155     92.06547     184.4248     368.9598      3.296     8.42     1243.405      65.0481     145.6738        13     1.881     1.054 -56.56   0
       140    903.4709    639.3751 307.5336174  +6.4242272     547.9488     1186.366     1142.597     92.06547     184.4248     368.9598      2.124     3.53     1235.661      65.0481      116.266         5     1.172     0.306 -19.35   0
       141    699.4713    635.3228 307.6186729  +6.4192010     1496.615     4381.165     5329.269      92.7979     184.8648     369.0332      2.801     8.37      1236.74      65.0481     173.1222        39     1.926     1.749 -24.75   0
       142    721.6600    633.3655 307.6095031  +6.4207397     1741.735      4749.03     6002.423     92.35914     184.5716     368.9965      2.775     8.81     1236.238      65.0481     155.6846        40     2.047     1.565 -45.11   0
       143    214.2592    633.3684 307.8207090  +6.4040135     647.8153     1796.158     3491.718     92.21243      184.645     368.9965      3.942     6.42     1246.368      65.0481       121.97        10     1.619     0.715 -32.11   2
       144    994.4910    629.3419 307.4960685  +6.4313602     3008.486     6747.078     7558.275     92.35914     184.4982     369.1799      2.270     6.02     1233.921      65.0481     288.2189        42     1.937     1.407 -43.96   0
       145    555.0000    632.0239 307.6789226  +6.4158103     963.5098     2261.138     3143.751     91.91828     184.1309     368.7762      2.559     9.14     1241.807      65.0481     145.8542        18     2.232     1.044 -56.56   2
       146    551.9871    630.3277 307.6802345  +6.4164123     1051.299     1962.699     2508.073     91.91828     184.2045      368.813      2.315     6.76     1241.871      65.0481     141.8228        12     1.300     0.985 -72.68   3
       147    959.7709    628.2700 307.5105579  +6.4306648      4550.71     10770.02     12570.79     92.21243     184.5716     368.9598      2.401     5.70     1234.405      65.0481     462.1023        50     2.008     1.488 -43.29   0
       148    118.7041    622.2787 307.8608613  +6.4054382     9143.887     27812.93     36808.25     92.21243     184.8648     369.0699      2.957     7.23     1245.828      65.0481     1016.162        89     2.387     2.054 -44.64   0
       149    407.0000    622.5570 307.7408507  +6.4148459     1083.725     2986.032      4140.74      91.6232     184.1309     368.5559      2.990     6.82     1243.343      65.0481      161.668        15     1.560     0.903 -85.64   2
       150    954.7267    611.1890 307.5132369  +6.4375603     3776.482     9224.883     11773.64     91.91828     184.1309     368.8864      2.608     6.07     1233.594      65.0481     403.1221        55     2.052     1.642 -53.06   0
       151   1010.1433    606.2426 307.4903357  +6.4414221     52368.95     120580.5     140134.3     92.35914     184.4982     369.0332      2.393     5.57     1232.056      65.0481     5332.652       110     2.210     1.666 -44.83  16
       152    550.2427    607.0286 307.6817538  +6.4259860     15805.81     36057.16      41956.5     92.06547      184.645     368.8864      2.372     6.42     1240.852      65.0481     1589.153        45     2.272     1.141 -68.46   3
       153    547.4946    605.9822 307.6829333  +6.4263280      16876.7     39460.28     50808.76     92.35914     184.3514     368.8864      2.614     8.33     1240.944      65.0481     1654.502        67     2.559     1.426 -72.08   3
       154    156.4962    603.7869 307.8457629  +6.4143319     1116.494     3335.088     4502.007     92.21243      184.278     368.7762      3.078    11.26     1245.017      65.0481      155.397        30     1.920     1.840  20.11   0
       155    445.8435    590.6533 307.7257692  +6.4293148     21591.38     69905.32     95314.38     92.50562     184.5716     369.0332      3.072     7.77     1240.613      65.0481     2059.946       123     2.575     2.136 -43.84   0
       156   1022.7578    589.8232 307.4856409  +6.4486230     1745.019      3106.74     3102.281      90.8813     161.7384     294.4661      1.889     5.66     1230.943      65.0481     240.9502        24     1.721     1.071 -81.69  24
       157    120.9494    585.5464 307.8611826  +6.4206960     657.6904     1731.719     1995.785     92.65188     184.4982     369.0699      2.640     5.70     1244.152      65.0481     98.70789         8     1.538     0.594  53.97   0
       158    290.2220    579.1559 307.7909407  +6.4289323     778.6703     1739.668     2428.637     91.91828     184.4248      368.813      2.106     3.84     1240.744      65.0481     111.5928         5     1.022     0.414  43.65   0
       159    718.9960    575.2422 307.6125875  +6.4446788     1592.964     3601.812     4973.984     91.77086     184.2045     368.7028      2.320     7.10      1234.05      65.0481      185.162        19     1.852     0.762 -25.04   3
       160    716.6142    573.0048 307.6136551  +6.4455253     1917.192     4009.824     5718.833     92.06547      184.278     368.8864      2.519    10.34     1233.998      65.0481     212.8009        30     2.434     1.224 -24.17   3
       161    771.2800    569.1682 307.5910289  +6.4489082     5774.566     16253.51     20572.57     92.35914     184.4982     368.9965      2.767     6.93      1233.22      65.0481     564.4944        74     2.352     1.797 -40.28   0
       162   1010.4263    568.0741 307.4915115  +6.4572094     1164.945     2551.486     2996.295     92.06547     184.4982     368.9965      2.428     9.20     1229.934      65.0481     164.2583        18     1.823     1.296 -43.23   0
       163    594.8881    567.3444 307.6645199  +6.4438604     1098.625     3434.657     4125.848     92.50562     184.4248     369.2166      2.874    10.34     1235.145      65.0481     167.8838        30     1.821     1.636 -61.62   0
       164    847.4681    552.4934 307.5598788  +6.4583038     1310.275     3319.748     4019.594     92.35914     184.7183     369.0699      2.576     8.24     1231.333      65.0481     155.8464        25     1.880     1.275 -42.12   0
       165    805.7636    550.6862 307.5773015  +6.4576812     1059.946     2630.651     3015.436     92.50563     184.4982     369.0332      2.422     8.29     1231.794      65.0481     115.9886        19     1.511     1.272 -45.84   0
       166    235.7288    545.7515 307.8147647  +6.4409404     2689.744     6099.538     7477.814     92.50563     184.4982     369.0699      2.532     7.38     1241.647      65.0481     258.4702        42     2.288     1.242 -59.08   3
       167    232.6342    544.1384 307.8161080  +6.4415049     2094.349     4275.169     5551.582     92.35914      184.645     368.9965      2.314     8.20     1241.642      65.0481     274.4646        27     2.258     1.007 -60.56   3
       168    786.5754    541.0820 307.5856157  +6.4610209     63890.64     186907.9     239657.1     92.21242     184.2779     368.9965      2.854     6.93     1231.686      65.0481     6090.833       186     2.702     2.039 -36.31   0
       169    168.4937    539.9497 307.8429506  +6.4411162     19692.08     65012.27     89949.19     92.35914     184.4248     369.2533      3.113     7.85     1241.661      65.0481     2215.852       124     2.585     2.193 -47.29   0
       170     92.6928    536.2610 307.8746298  +6.4401336     2173.537     6834.934     9277.799     92.35914     184.5716     369.1065      2.985     8.49     1241.865      65.0481        274.9        57     2.155     1.948 -31.01   0
       171    823.2922    528.2939 307.5707648  +6.4675134     1858.865     5238.503     5961.313     92.50562     185.1576     369.0332      2.671     8.60     1229.879      65.0481     244.6454        48     2.276     1.607 -41.38   0
       172    343.4033    527.0765 307.7705802  +6.4522158     5895.454      13702.4     17994.41     91.91828     183.9838     368.8864      2.652     7.91     1236.371      65.0481     615.2347        60     2.623     1.450 -67.29   3
       173    340.4748    525.4936 307.7718533  +6.4527735     4932.844     11155.26     14695.61     92.35914     184.7183     368.9965      2.675     9.31     1236.171      65.0481     539.8749        30     2.374     1.130 -61.68   3
       174    145.6729    525.8721 307.8529313  +6.4461806       825.88     1876.378      2855.28      92.7979     184.7183     369.0332      2.891     6.44     1240.491      65.0481     99.89185        10     1.310     0.889 -79.50   0
       175    508.2951    521.7564 307.7021195  +6.4598530     2231.241     7198.967     9673.224     92.50563     184.4982     369.1799      3.062     8.48     1233.316      65.0481     264.5413        62     2.316     1.907 -34.86   0
       176    777.1250    521.5639 307.5902130  +6.4687787     2330.129     6779.601     8509.746     92.35914      184.645     369.0699      2.811     7.91     1230.219      65.0481     215.3906        48     2.095     1.624 -45.59   0
       177    156.6809    515.4144 307.8487065  +6.4508675     2403.165     6044.411      9231.64     92.06547      184.278      368.813      3.323     9.84     1239.206      65.0481     277.1144        49     2.603     1.506 -46.83   2
       178    153.4932    513.4919 307.8500992  +6.4515567     1648.911     3128.366     4389.067     92.50563     185.1576     369.0332      2.315     6.12     1239.126      65.0481      184.175        14     1.498     0.775 -61.74   3
       179    551.3027    514.2878 307.6844701  +6.4643572     886.5853      2503.05     3485.621     92.50562     185.0844     369.0699      3.220     9.82     1232.223      65.0481     110.1799        14     2.181     1.234  88.38   2
       180    250.4618    511.4720 307.8098025  +6.4555970        27861     95042.96     132388.7     92.65188     184.5716     369.1065      3.146     8.09     1236.904      65.0481     3096.007       137     2.598     2.260 -44.93   0
       181     28.3644    514.6412 307.9021470  +6.4469408     1862.323     4087.112     5862.152     92.21243     184.5716     368.8497      2.641     9.84     1241.829      65.0481     242.2731        34     2.509     1.126 -43.77   2
       182     25.2174    512.4123 307.9035332  +6.4477580      1270.47     2330.623      3704.98     92.21243     184.2045     368.9231      2.571     7.23     1241.686      65.0481     159.3094        17     1.684     0.870 -51.19   3
       183    773.3213    503.5386 307.5924089  +6.4761049     6368.339     18661.62     23357.77     92.65188      184.645     369.0332      2.816     7.13      1228.63      65.0481     607.2791        74     2.290     1.869 -44.32   0
       184    477.1024    502.0798 307.7157752  +6.4669587     14245.97     46218.83     67157.38     92.35914      184.938     369.0699      3.233     7.90     1232.102      65.0481     1340.368       122     2.626     2.259 -38.44   0
       185    637.3790    497.8537 307.6491959  +6.4739844     968.6943     2482.065     4399.054     91.91828     184.5716      368.813      5.195     7.78     1229.975      65.0481     135.1442        12     1.722     0.984 -16.08   3
       186    636.0483    495.4331 307.6498322  +6.4749412     1031.482      2131.81     3980.841     92.21242     184.5716     368.9598      4.430     6.94     1229.804      65.0481     133.0983        13     1.978     0.682  -7.48   3
       187    305.5917    491.4124 307.7875377  +6.4657098     1326.518     4114.285     5444.456     92.06547     184.3514     368.9598      3.035    11.53     1232.498      65.0481     159.5703        33     2.054     1.803  24.42   2
       188    121.5987    489.9727 307.8641802  +6.4602236      8695.44     28148.34     38912.52     91.91828      184.278     368.7762      3.097     7.73     1238.506      65.0481     994.1825       100     2.456     2.194 -57.29   0
       189    374.1946    491.9870 307.7589593  +6.4677368     599.6972     1637.273     1901.515     92.06547     184.2779     368.8864      1.527     3.46     1232.492      65.0481     75.74365         5     1.576     0.219  63.03   0
       190    849.1927    491.1544 307.5612432  +6.4837165     587.2249     1364.324     1721.122     91.91828     184.3514     368.6294      2.427     5.88     1226.504      65.0481     101.1284         6     1.516     0.641 -85.44   0
       191    949.5567    504.2456 307.5190159  +6.4815988     832.7799     1728.729     2040.905     92.50563     184.5716     368.9598      2.408     6.95      1225.83      65.0481     111.2604        10     1.263     1.072  60.11   0
       192     86.9005    490.0952 307.8786200  +6.4590248     851.4155     2474.166     3495.861     92.50562     185.1576     368.8497      3.067     8.05     1239.854      65.0481      121.587        12     1.792     1.011 -19.25   2
       193   1023.1902    490.1032 307.4888404  +6.4898594     755.2837     1185.963     1310.528     87.07703     154.7215      286.826      1.591     3.33     1221.556      65.0481     121.0465         6     0.903     0.584 -25.76  24
       194    946.6030    483.9585 307.5209337  +6.4898882       2594.5     6499.401     7785.692     91.77086     184.2045     368.7028      2.439     6.27     1224.532      65.0481     269.0548        46     1.908     1.584 -41.93   0
       195    418.4944    470.8538 307.7412381  +6.4779340     13335.67     45364.68     63718.57     92.35914     184.4982     369.2899      3.159     8.04     1230.326      65.0481      1439.07       120     2.635     2.202 -41.97   0
       196    627.8625    471.1591 307.6540659  +6.4847060     3733.296     8714.523     12113.06     92.50562     184.4982     369.1432      2.811    10.23     1228.238      65.0481     368.9559        46     2.822     1.215 -41.76   3
       197    625.2799    468.9961 307.6552147  +6.4855151     3844.805     8198.533     9880.062     91.91828     183.9838     368.7395      2.305     6.71      1228.16      65.0481     370.1924        34     2.054     1.081 -44.80   3
       198    183.7482    468.6102 307.8390386  +6.4711094     6176.966     20912.38     30022.95     91.77086     184.4248     368.7395      3.200     7.99     1234.539      65.0481     663.9833        96     2.474     2.248 -47.85   0
       199    149.6453    470.2721 307.8531784  +6.4692947     603.4088     1722.053     2238.957     92.35914      184.645     369.0332      2.499     6.39     1235.646      65.0481     126.8656         9     2.354     0.487  45.02   0
       200    546.6938    466.2974 307.6880230  +6.4840431     854.9058     2403.972     3498.259     92.50562     185.2307     368.9231      2.782     7.47     1228.724      65.0481      128.031        12     1.996     0.783  85.42   2
       201    921.5858    464.0319 307.5320250  +6.4973046     2243.238     5786.408     6725.801     92.06547     184.2779     368.9598      2.611     7.35     1223.991      65.0481     249.0038        41     2.009     1.474 -39.84   0
       202    596.4713    463.8340 307.6673839  +6.4867006     2054.752     4418.833     5481.169     92.35914     184.5716     369.0332      2.420     9.59     1228.293      65.0481     217.6644        31     2.308     1.112 -26.61   3
       203    594.5355    461.3122 307.6682756  +6.4876794     2038.253     4418.224     5755.255     92.50563     184.7916     369.0332      2.473     8.83     1227.973      65.0481     215.9783        27     2.261     0.963 -21.06   3
       204    944.0513    456.1954 307.5229378  +6.5012810     1566.322     4285.388     4600.997     91.77086     184.2779     368.5559      2.495     7.45      1222.78      65.0481     196.3224        33     1.721     1.521 -70.56   0
       205    507.9763    455.4399 307.7045114  +6.4872556     2151.135     5625.694     8059.417     92.06547     184.2779     368.7762      3.177    11.70      1227.87      65.0481     244.1406        48     2.816     1.354 -42.83   2
       206    505.8560    452.8202 307.7054833  +6.4882687     2160.724      4243.56     5247.655     91.91828     184.5716      368.813      2.147     4.91     1227.702      65.0481     239.0787        17     1.347     0.944 -44.19   3
       207    354.1939    456.3258 307.7685021  +6.4818178     643.4531     1485.191     2363.301     92.06547     184.0574     368.9231      3.283     4.97     1229.792      65.0481     92.04114         5     1.108     0.632  60.09   3
       208    353.5923    452.9531 307.7688676  +6.4831921     685.3547     2239.982      3092.96     91.91828     184.4248     368.5926      3.163    10.68     1229.604      65.0481     141.3707        16     2.216     1.435 -22.16   2
       209    864.0847    449.1531 307.5564693  +6.5015678     1562.077     3876.419     5889.445     92.50562     184.5716     369.0699      3.425     9.35     1223.629      65.0481     188.6156        30     2.118     1.151 -20.45   0
       210    869.6951    443.7192 307.5543180  +6.5039983     917.4168     2142.024     3836.026     92.21243     184.8648     369.1432      3.496     8.79     1223.243      65.0481     124.1223        14     2.449     0.881  34.33   2
       211    873.1810    442.7381 307.5529000  +6.5045183     685.2331     1472.189     2363.892     92.06547     184.4982     368.8864      2.132     3.85     1223.137      65.0481     129.0917         5     1.224     0.346  13.33   3
       212    697.9259    441.3888 307.6259098  +6.4993173     662.4188     1623.337     3477.475     91.91828     184.1309     368.8497      4.571     7.11     1224.382      65.0481     123.1853         8     1.928     0.734 -26.19   2
       213    695.5847    438.6461 307.6269778  +6.5003741     909.4914     2415.876     4007.308     91.91828     184.3514     368.7395      3.578     7.18     1224.253      65.0481     123.2683         9     2.267     0.637 -48.74   2
       214    366.7075    438.4223 307.7639034  +6.4896315     1307.917     3992.359     5275.651     92.50563     184.3514     368.8497      3.125     9.54     1228.316      65.0481     167.3007        29     1.994     1.367  25.57   2
       215     58.3639    440.3579 307.8922010  +6.4786394     860.1858     1583.252     1919.214     92.21243     184.5716     368.8864      2.179     5.15     1238.105      65.0481     178.3884         8     1.574     0.476 -55.80   0
       216    593.8360    435.0150 307.6694619  +6.4985268     3289.475     11036.49     15291.82     92.06547     184.3514      368.813      3.116     8.31     1225.174      65.0481     346.5669        75     2.414     1.988 -48.05   0
       217    758.3802    431.7922 307.6010672  +6.5052719     5258.995     9985.008     13312.89     92.06547     184.2779      368.813      2.333     6.87     1223.659      65.0481     572.8159        37     2.372     1.001 -62.55   3
       218    755.6075    430.2315 307.6022745  +6.5058260     5716.147     12153.19     16031.42     91.91828     184.3514     368.7762      2.533     8.84     1223.543      65.0481     602.2743        46     2.659     1.135 -66.36   3
       219    277.7500    432.5335 307.8011382  +6.4891286     801.7618     2332.632     3402.151     92.35914     184.4248     368.9965      3.246     8.23     1229.031      65.0481     141.7822        12     2.066     0.916  49.68   2
       220     94.5429    423.9656 307.8777007  +6.4866127     1360.969     4683.111     6510.385     92.35914     184.5716     369.0332      3.144    10.40     1236.088      65.0481     195.6998        48     2.263     1.782 -71.56   0
       221    941.4454    425.1002 307.5250775  +6.5140496     849.7698     1802.191      2188.14     92.50562     184.5716     369.2899      2.791     4.54     1220.718      65.0481     124.5553         7     1.067     0.548 -64.67   0
       222    995.4304    420.9940 307.5027405  +6.5175176     2127.117      5466.75     7260.346     91.91828     184.3514     368.7762      2.832     6.82     1219.819      65.0481     230.7107        43     1.982     1.563 -29.63   0
       223    730.9202    422.4465 307.6128173  +6.5082325     833.4435     2385.084     3127.977     92.50562     184.5716     369.0332      2.825     6.42     1223.096      65.0481      113.068        10     1.987     0.583 -47.28   2
       224    331.8815    419.4137 307.7790505  +6.4963394     1035.454     2591.712      4319.07     92.06547     184.2779      368.813      3.389     7.02     1227.612      65.0481     151.1914        14     1.640     1.146  73.23   2
       225    253.4666    419.8707 307.8116801  +6.4935606     728.1889     1753.026     3314.196     92.50562      184.645     369.0332      3.619     6.59     1229.074      65.0481     95.10059        11     1.446     0.842  52.02   0
       226    683.6489    414.6013 307.6327648  +6.5099209     607.8633      1226.98      2148.59     91.77086     184.1309     368.5191      2.377     3.84     1222.679      65.0481     106.2681         5     1.030     0.411  75.16   0
       227    695.0396    403.1057 307.6284133  +6.5150476     5130.916     16224.35     22449.18     92.65188     184.4982     369.1432      3.075     7.91     1221.901      65.0481      469.556        82     2.442     2.003 -47.86   0
       228    797.9664    405.5479 307.5854777  +6.5174215     607.3629     1805.072     2350.234     92.35914     184.4982     368.9231      2.796     6.68     1222.024      65.0481     97.72229         8     1.940     0.646  -6.68   0
       229    617.3877    399.8926 307.6608521  +6.5138207     1040.951      2669.75     4185.583     92.21242     184.2779      368.813      3.330     7.86     1221.849      65.0481      134.391        16     1.687     1.112 -54.14   2
       230    588.3572    394.3750 307.6731264  +6.5151458     5588.899     17716.95     29380.95     92.06547     184.4982     368.8497      3.529     8.22     1221.585      65.0481     606.4917       125     2.875     2.472  35.24   0
       231    919.9420    392.8417 307.5351249  +6.5266790     1751.543     4880.222     5517.949     92.50562     184.5716     369.1065      2.710     8.16     1218.525      65.0481      187.955        40     1.883     1.629 -50.96   0
       232    359.5461    389.2703 307.7685618  +6.5097128     8263.329      30173.4     42870.91     92.35914     184.4982     368.9598      3.216     8.63     1224.423      65.0481     952.3864       102     2.585     2.210 -44.69   0
       233    107.0797    389.2948 307.8736676  +6.5013590      761.183     2107.047     2454.657     92.21242     184.8648     369.1065      2.616     6.40     1234.131      65.0481     105.0084        10     1.849     0.623  48.17   2
       234    874.2278    387.6008 307.5543359  +6.5273450     717.6328     1860.346     3219.597     91.91828      184.278      368.813      3.157     7.39     1219.415      65.0481     97.45508        11     1.554     0.984 -16.36   0
       235    889.0193    383.1785 307.5483276  +6.5296587      2140.87     6168.749     7435.497     92.21243     184.4982     368.9598      2.778     8.24     1218.619      65.0481     234.1382        51     2.134     1.723 -40.15   0
       236    217.2135    379.9648 307.8281360  +6.5088580     4105.364     14644.67     20926.08     91.91828     184.3514     368.8497      3.216     8.47     1228.691      65.0481     490.6344        86     2.552     2.141 -36.86   0
       237   1021.2882    369.9521 307.4937050  +6.5394649     4552.817     10440.47     11387.88     92.50562     179.6647      319.306      2.322     5.82     1215.537      65.0481     447.5204        47     1.906     1.545 -53.08  24
       238    117.4581    368.6060 307.8700545  +6.5102542     1620.856     5609.141     7749.393     91.91828     184.4248     368.7028      3.060    10.80     1232.894      65.0481     210.4312        50     2.074     1.972 -64.76   0
       239    140.4481    364.8872 307.8606105  +6.5125520     922.8253     2334.536     3316.503     92.50562     184.4248     369.0699      2.932     8.16     1231.431      65.0481     120.4197        12     1.461     1.275 -27.68   0
       240    364.9837    359.4435 307.7673157  +6.5222215     753.0396     1684.753     2965.176     91.91828     184.4248     368.7762      2.841     4.43     1221.504      65.0481     104.5626         6     1.165     0.479 -72.29   0
       241    360.9766    357.3053 307.7690570  +6.5229731     612.5502     1380.972      2791.76     92.50562      184.278     368.8864      2.211     4.02     1221.346      65.0481     109.3427         6     1.459     0.316 -13.60   0
       242     13.6431    354.0090 307.9137740  +6.5128510     1271.427     3532.678     5200.484     91.91828     184.3514     368.7395      3.121     9.24     1237.651      65.0481     200.6455        30     2.121     1.404 -64.04  16
       243    418.0873    353.6721 307.7454034  +6.5263594      2300.28     5337.906     7681.162     92.65188     184.8648     369.0332      2.772     9.17     1220.731      65.0481     241.4073        42     2.753     1.200 -50.85   3
       244    415.3441    350.9633 307.7466379  +6.5273886     2148.246      4841.74     6185.333     92.35914     184.5716     369.0699      2.555     8.08     1220.604      65.0481     226.8741        30     1.985     1.180 -65.24   3
       245    756.9260    349.8136 307.6044588  +6.5391119     4717.292     14723.33     20070.59     91.91828     184.2779     368.8497      3.055     8.04     1218.634      65.0481     451.1344        79     2.418     1.956 -31.50   0
       246   1000.4769    344.7879 307.5032233  +6.5491849     1721.946     4370.134     4532.646     92.06547     184.1309     368.8497      2.528     8.93     1213.386      65.0481     193.2618        33     1.784     1.409 -63.14   0
       247    466.9412    336.9644 307.7256330  +6.5348769     960.1794     2342.269     3901.713     92.50562     184.5716     369.0332      3.501     4.43     1218.216      65.0481     140.0082         7     0.917     0.609 -33.29   2
       248    438.5353    337.2563 307.7374498  +6.5338195     742.4595     1689.428     2020.586     92.65188     184.4982     369.0332      1.935     4.76     1219.174      65.0481     145.7156         6     1.442     0.446 -33.93   0
       249    822.4557    332.5842 307.5777601  +6.5483873     12966.08     38695.43     50258.87     91.77086     184.4982     368.7028      2.900     7.02     1216.997      65.0481     1184.432       103     2.475     1.989 -51.67   0
       250    592.9173    323.7417 307.6736325  +6.5444935     862.9387     2265.747     3771.111     92.65188     184.5716     369.1065      3.372     9.80     1216.069      65.0481     133.4701        17     1.953     1.371 -33.44   2
       251    678.9393    318.6949 307.6379878  +6.5494109     26655.02      86446.2     118354.8     92.35914     184.5716     369.1065      3.062     7.89     1216.112      65.0481     2530.922       128     2.590     2.143 -44.57   0
       252     79.0661    314.8289 307.8878778  +6.5312126     2117.126     6923.617     10119.13     92.21242     184.4982     368.9598      3.185     9.19     1234.414      65.0481     247.1361        64     2.512     1.901 -47.15   0
       253    541.1707    317.0496 307.6954057  +6.5455554      806.873     2581.352     3689.639     92.06547      184.645     368.9231      3.014     6.56     1215.395      65.0481      112.021         9     1.579     0.765  23.54   2
       254    526.4003    312.7031 307.7017036  +6.5468655      2181.49     5130.161     6664.069     91.91828     184.1309     368.5559      2.621     9.30     1215.162      65.0481     259.6915        41     2.580     1.343 -40.64   3
       255    523.8628    309.8324 307.7028579  +6.5479685     1968.446     4429.703     5823.734     92.21242      184.645     368.9965      2.533     5.77     1214.917      65.0481     217.7296        24     1.599     1.090 -39.44   3
       256    255.4983    309.1530 307.8146161  +6.5393939     915.5443     2443.918     3285.203     92.50562     184.4248     369.2533      2.923    11.56     1223.377      65.0481     157.8433        17     2.174     1.712 -67.89   2
       257    387.7095    307.0192 307.7596425  +6.5446417     7866.986     27736.78     39569.16     92.35914     184.2779     368.8864      3.216     8.53      1218.92      65.0481     860.3604       103     2.582     2.209 -43.91   0
       258    478.3087    298.4810 307.7222118  +6.5511593     2610.743     5526.537      7083.75     92.21243     184.8648     369.1065      2.514     9.62     1214.212      65.0481     259.9026        39     2.642     1.097 -65.15   3
       259    475.0010    296.3139 307.7236629  +6.5519461     2315.174     5356.919     7262.231      91.6232     184.0574     368.7028      2.530     9.46     1214.221      65.0481     224.1885        33     2.318     1.076 -69.33   3
       260    745.6682    296.2602 307.6109667  +6.5608793     1140.711      3594.68     4879.478     92.65188     184.4982     369.0332      3.057    10.87     1215.151      65.0481     176.9521        28     2.015     1.824 -54.47   0
       261    368.0175    282.3752 307.7686823  +6.5541788     2266.775     5663.595     8694.419     92.21242     184.3514     368.9598      3.049    10.38     1218.284      65.0481     280.0619        56     2.746     1.755 -40.10   2
       262    223.2894    284.0322 307.8288845  +6.5487134     796.2766     1855.239     3046.284     92.65188     184.3514     369.0332      3.232     6.42     1223.809      65.0481     107.8123        11     1.634     0.708 -50.74   0
       263    734.3751    277.2169 307.6163164  +6.5683799     19242.78     60586.48      80330.6     92.21243     184.4248     368.9598      2.978     7.70     1213.709      65.0481     1954.197       114     2.526     2.073 -43.59   0
       264    365.0000    280.4103 307.7700058  +6.5548914     1686.086     3146.306     3231.478     91.91828     184.1309     368.7762      2.168     6.21     1218.291      65.0481     215.3868        15     1.531     0.771 -87.02   3
       265    969.3056    274.2364 307.5185953  +6.5773270     710.0265     1932.138     2631.384     92.65188     184.4248     369.1432      2.905     6.24     1207.302      65.0481     117.0051         9     1.387     0.789 -48.23   0
       266    404.5404    274.5004 307.7537441  +6.5586391     614.9352      1480.02      2311.93     92.21243     184.5716     369.1799      2.785     3.95     1216.902      65.0481     101.4998         5     1.099     0.406 -73.55   0
       267    910.5345    272.9435 307.5431109  +6.5759332     1021.621     2734.472     3108.968     92.65188     184.4982     369.0332      2.522     8.68     1209.495      65.0481     157.2628        17     1.488     1.413  54.72   0
       268    732.6754    261.8995 307.6175449  +6.5746558     2105.432     6732.576     9148.783     91.91828     184.7183     368.9231      3.124     9.65     1212.511      65.0481     198.6187        54     2.351     1.669 -45.78   0
       269    170.8290    263.3728 307.8514329  +6.5555185     742.3245     1909.585     2887.928     91.91828     184.3514      368.813      2.424     6.28      1227.96      65.0481     113.8738         7     1.729     0.642   9.91   0
       270    748.4882    259.3226 307.6110483  +6.5762409     933.9279     2374.563     2747.675     92.50563      184.938     369.1432      2.558     6.19     1212.321      65.0481     114.6157        11     1.852     0.581 -64.57   0
       271    340.5226    255.8157 307.7810368  +6.5642498     753.9579     1921.333     2686.859     92.06547     184.2045     368.8864      3.024     4.67     1218.597      65.0481     90.80847         6     0.966     0.640 -12.51   0
       272    987.2561    250.4100 307.5119289  +6.5877649     2680.201     7317.339     8243.426     91.77086     184.4982     368.6661      2.595     6.75     1205.801      65.0481     287.5383        47     1.972     1.627 -56.31   0
       273    230.0121    247.6538 307.8273286  +6.5639728     1973.504     4095.605     5805.858     91.77086     184.4982     368.7028      2.431     9.15     1223.956      65.0481     245.6583        32     2.401     0.974 -43.59   3
       274    227.0397    245.3018 307.8286466  +6.5648468     1735.396     4385.403     5696.764     92.50562     184.4248     369.2899      2.677    10.66     1224.158      65.0481     183.8663        35     2.407     1.316 -52.27   3
       275    542.6545    229.4567 307.6977719  +6.5818123     592.4963     1560.397     2694.903     92.65188      184.645     369.0699      2.642     3.82     1206.744      65.0481     117.5366         5     0.983     0.425 -76.08   0
       276    704.9108    226.2489 307.6303184  +6.5884796     1764.766     5743.196       7283.8     92.50562     184.4248     369.1432      2.948     9.21     1209.416      65.0481     230.3176        52     2.131     1.832 -45.10   0
       277    884.1286    228.2344 307.5556241  +6.5935480     873.5078     1883.443     2644.725     92.35914     184.4982     369.0332      2.398     5.29     1208.434      65.0481     126.6844         8     1.227     0.644  -2.50   0
       278    647.6000    227.7234 307.6541323  +6.5859845      714.536      1515.67     1979.671      91.6232     183.8366     368.7028      1.902     4.89     1208.236      65.0481     98.94141         6     1.354     0.500 -51.07   0
       279    206.2062    212.9779 307.8384258  +6.5775193      827.175     1963.612     3073.703     92.06547     184.3514     368.8497      3.050     4.62     1226.433      65.0481     110.5482         8     0.987     0.613 -25.67   0
       280    736.8165    208.3851 307.6176403  +6.5969132     564.5023     1063.761     1331.051     92.21243     184.2045     368.9598      2.341     4.96     1208.722      65.0481     92.53259         5     1.056     0.660 -59.79   0
       281    440.3233    202.3151 307.7413070  +6.5896583     7160.416     16494.68     23058.84     92.65188      184.938     369.1432      2.828     9.29     1209.075      65.0481     728.3252        63     3.035     1.386 -46.95   3
       282    437.2751    200.0025 307.7426551  +6.5905137     6119.813      14453.8     17928.51     91.91828     183.9838     368.8864      2.544     6.56     1209.136      65.0481     624.1381        44     2.037     1.322 -51.94   3
       283    764.7750    200.1813 307.6062770  +6.6012236     4792.766     15655.17     21634.04     91.91828     184.2779     368.9231      3.077     8.02     1208.297      65.0481     508.9541        83     2.496     2.007 -33.95   0
       284    127.8634    195.5881 307.8716406  +6.5821161      828.496     2481.461     3617.181     91.91828     184.3514      368.813      3.337     9.21     1231.521      65.0481      137.661        14     1.767     1.340  77.21   0
       285    901.2094    190.6344 307.5497881  +6.6096515     530.8497     1172.519      1435.83     91.91828     184.3514     368.8497      2.497     4.49     1205.875      65.0481     92.90198         5     0.831     0.689  62.57   0
       286    564.2698    187.9886 307.6901839  +6.5996658     1307.335     2908.915     4131.912     91.91828     184.3514      368.813      2.556     8.70     1205.615      65.0481     156.7754        23     2.133     0.991 -63.08   3
       287    561.4792    185.9919 307.6914140  +6.6003993      1419.63     3314.013     4980.694     92.06547     184.0574     368.8497      2.724     9.90     1205.572      65.0481     160.6848        31     2.465     1.109 -78.11   3
       288    924.4968    185.0045 307.5402818  +6.6127431     965.2267     1878.029       2948.7     92.21242     184.2045     368.6661      2.624     6.62     1204.511      65.0481     121.0355        11     1.863     0.660 -41.77   2
       289    921.9820    183.3097 307.5413866  +6.6133611     1105.283     2151.846     2806.262     92.21242      184.278     368.9231      2.397     5.74     1204.507      65.0481     171.4274        15     1.608     0.925 -59.12   2
       290    869.6988    183.3654 307.5631565  +6.6116219     4674.217     13053.62     16252.86     92.50563     184.4248     369.2166      2.734     6.89     1206.946      65.0481     425.0032        68     2.217     1.843 -37.60   0
       291    956.2507    181.2094 307.5271876  +6.6153537      4408.46     11565.12     13913.66     91.91828     184.4248     368.6661      2.597     6.46     1202.912      65.0481     418.3113        55     2.088     1.606 -44.49   0
       292    668.7792    182.0506 307.6468675  +6.6055611     1125.338     3009.476     3877.702     91.91828      184.645     368.8864      2.774     9.33     1206.604      65.0481     131.0635        23     1.872     1.297 -36.11   2
       293      1.1015    178.8263 307.9249948  +6.5848471     679.0742     1129.227     1401.958     76.83389     142.1327       273.14      1.470     4.31     1239.719      65.0481     183.5078         8     1.777     0.298 -88.43  24
       294    477.0016    177.5502 307.7268786  +6.6011047     721.2358     1416.815     1737.518     91.77086     184.1309     368.5559      2.073     4.80     1205.777      65.0481     99.54346         5     1.378     0.474  -6.73   0
       295    808.8778    174.3658 307.5887894  +6.6133443     756.6573     2190.011     3205.452     92.35914     184.5716     368.9965      3.032     7.76     1206.896      65.0481     114.9152        12     2.202     0.765 -32.48   0
       296    718.6810    168.6579 307.6265432  +6.6127388     12767.57     27265.15     31631.43     92.50563     184.5716     369.0699      2.257     6.10     1206.452      65.0481     1246.039        45     2.029     1.302 -57.67   3
       297    490.2352    172.9448 307.7215251  +6.6034446      878.981     2183.846     3084.344     92.35914     184.5716     369.0699      2.797     6.13     1205.411      65.0481     118.5216         9     1.435     0.736 -70.21   0
       298    323.2690    169.1762 307.7911788  +6.5994933     2347.812     8025.709     12300.16     92.06547     184.4248     368.9965      3.378     9.16     1218.884      65.0481     263.8105        75     2.584     2.041 -54.96   0
       299    859.0781    170.9433 307.5680011  +6.6164080     809.7078     1845.999     2824.303     92.50562     184.5716     368.9965      2.369     4.89      1206.64      65.0481     110.6764         8     1.247     0.543 -67.06   0
       300    721.3315    170.3404 307.6253823  +6.6121305      12960.3     26994.11     35402.71     92.65188     184.4982     369.0332      2.526     8.96     1206.528      65.0481     1347.679        60     2.784     1.203 -48.58   3
       301    952.6574    169.2567 307.5290895  +6.6201768     1200.917     2975.014     4111.006     92.65188      184.645     369.0699      2.896     7.60     1202.328      65.0481     148.5188        18     1.575     1.026  14.86   2
       302    887.7507    166.4659 307.5562132  +6.6192003     3112.575     8965.546     10699.33     92.35914     184.4248     368.9965      2.710     7.12     1205.298      65.0481     287.2828        55     2.144     1.682 -46.26   0
       303    432.2600    166.9993 307.7458690  +6.6039905     1746.012     4674.309     6318.593      91.6232     184.3514     368.6661      2.906    11.26     1207.052      65.0481     192.6333        43     2.219     1.867 -64.08   2
       304    429.6613    164.9662 307.7470205  +6.6047452     740.7192     1774.125     2080.367     92.21242      184.645     368.9598      2.069     3.56     1206.977      65.0481     155.2853         5     1.094     0.333 -69.96   3
       305    991.5378    166.6838 307.5129859  +6.6225156     962.3754     2222.498     2338.983     92.65188      184.645     368.9965      2.319     7.02     1200.291      65.0481     128.4493        13     1.407     0.982  87.80   0
       306     90.3567    158.0923 307.8885406  +6.5963736     1812.086     4522.516     6776.433     92.50562     184.5716     369.1799      3.180    10.06     1233.379      65.0481     218.3223        40     2.182     2.010 -51.80   2
       307    259.1331    154.0367 307.8184020  +6.6036325     10033.77     36248.88     52814.36     92.35914     184.4982     369.1065      3.261     8.56     1225.959      65.0481     1316.033       115     2.658     2.247 -44.13   0
       308    234.3747    155.2233 307.8286708  +6.6023237     1833.564     6666.368      9128.11     91.91828     184.4248     368.9965      3.144     9.29     1227.883      65.0481     229.1808        65     2.235     2.139 -52.19   0
       309    384.4633    150.4781 307.7663355  +6.6092426     17115.44     39151.57     52049.89      92.7979      184.645     369.0332      2.703     8.66     1211.655      65.0481     1746.049        78     2.903     1.442 -44.90   3
       310    381.7138    147.8653 307.7675696  +6.6102319     12479.14     27386.24     30784.31     92.50562     184.7916     369.0699      2.289     7.26     1212.005      65.0481     1187.458        44     2.067     1.265 -49.73   3
       311    141.1590    151.2577 307.8676209  +6.6008801     1462.819     3199.405     5081.583     92.50562     184.5716     369.0699      3.226     6.05     1231.492      65.0481     186.9366        20     1.465     1.151 -44.00   2
       312    137.4256    148.9998 307.8692527  +6.6016899     916.2772     1802.513     3184.302     92.06547     184.2045      368.813      2.626     5.18     1231.594      65.0481     135.4027         9     1.548     0.491 -28.53   2
       313    287.8067    147.2004 307.8066958  +6.6074058     5672.315     19382.25     30336.36     91.77086     184.2045      368.813      3.467     8.57      1224.17      65.0481     656.2009       119     3.082     2.328 -14.71   0
       314    722.3699    145.3155 307.6258010  +6.6225091     11694.75     36876.94     49038.27     92.50563     184.3514     368.8864      2.985     7.60     1205.248      65.0481     1167.981       102     2.506     2.058 -42.50   0
       315     39.4238    143.3085 307.9102545  +6.6007979     3141.803     10234.85     13943.97     92.50563     184.3514     368.8497      3.018     8.02     1236.289      65.0481     408.3762        70     2.380     1.954 -42.12   0
       316    981.5786    125.0255 307.5185465  +6.6394094     922.6983     2380.089      3639.14     92.06547     184.3514     368.9598      3.033     5.26     1199.032      65.0481     111.4371        10     1.477     0.530  53.51   0
       317    258.0465    120.3285 307.8200062  +6.6175301     9321.546     33057.13     48389.83     92.50562     184.5716     369.0332      3.250     8.47     1227.355      65.0481     1203.909       110     2.627     2.251 -42.67   0
       318      3.7558    119.2971 307.9259287  +6.6095412     1613.097     4547.201     5814.708     92.50563     180.0411     320.0261      2.778     8.33     1237.056      65.0481     222.5264        36     2.067     1.522 -52.13  24
       319    688.0124    115.2525 307.6411313  +6.6338061     2259.548     4624.927     6268.227     91.77086     184.4982     368.7028      2.259     5.52     1203.826      65.0481     246.9094        16     1.279     0.998 -36.25   3
       320    101.4253    114.7009 307.8854167  +6.6146759     1974.995     5019.236     6750.759     92.65188      184.278     368.8864      2.825     8.61     1232.045      65.0481     213.4747        50     2.510     1.539 -39.41   2
       321     98.9613    111.5075 307.8865520  +6.6159143     866.0981     1647.414     2479.477     92.65188     184.4982     369.1065      1.895     3.50     1232.031      65.0481     119.1444         5     0.794     0.444 -20.63   3
       322    370.9998    107.8836 307.7733957  +6.6264050     1246.103     2921.896     4640.991      91.6232     183.9838     368.6294      2.863     8.63     1215.474      65.0481     150.9001        20     2.054     1.014 -15.78   3
       323    373.2303    110.7563 307.7723688  +6.6252912     1263.282      2184.93      3843.49     92.06547     184.5716     368.8864      2.483     4.96         1215      65.0481     174.6901        13     1.139     0.976 -75.37   3
       324    369.5626    111.5068 307.7738705  +6.6248599      1244.71     2687.629     3734.573     92.65188     184.4248     369.1065      2.543     7.48     1215.436      65.0481     140.3329        14     1.465     1.069   5.82   3
       325    336.2535    109.0880 307.7878236  +6.6247600     1073.582      3363.51     5454.179     92.50562     184.4248     369.1799      3.428    11.74      1220.57      65.0481     142.0521        31     2.144     1.791   8.07   0
       326     88.3127    107.2216 307.8911328  +6.6173333     590.5784      1250.61     1524.466     92.50563     184.3514     368.8864      2.161     3.83     1232.399      65.0481     91.94482         5     1.030     0.409  -4.46   0
       327    981.8228    101.9413 307.5192280  +6.6489597     754.1432     1599.667     1753.515     92.06547     184.5716     368.8864      2.355     5.38     1198.188      65.0481     101.2454         8     1.036     0.789  -9.08   0
       328    187.5466     98.2254 307.8501188  +6.6243356     1763.683     5950.636     7870.666     91.91828      184.645     368.8864      3.104     9.92      1230.14      65.0481     256.5956        57     2.330     1.979 -49.06   0
       329    650.1949     97.4950 307.6574842  +6.6399020     2226.469     4965.725     8075.541     92.21243     184.2045     368.7395      3.136     9.27     1203.255      65.0481      242.807        38     2.413     1.396 -42.22   2
       330    647.9830     95.2727 307.6584810  +6.6407478     1761.072     4067.469     5688.972     91.91828     184.4982     368.9231      2.540     7.63     1203.192      65.0481     180.2642        19     1.696     1.041 -54.60   3
       331     71.6546     97.8545 307.8983900  +6.6206536     1095.188     2429.091     3778.006      92.7979     184.5716     369.0332      3.014     5.26     1232.885      65.0481     168.1957        15     1.345     0.991 -80.71   0
       332    602.3520     94.9032 307.6774962  +6.6393982     3011.838     6619.058     9210.164     92.50562     184.4248     369.2166      2.567    10.00     1203.303      65.0481     309.7222        37     2.525     1.105 -23.40   3
       333    604.7203     85.3957 307.6768337  +6.6434063     17442.74     58718.46     85259.74     92.06547     183.9838     368.7395      3.256     8.07     1203.021      65.0481     1830.708       150     3.209     2.182 -52.41   2
       334    689.7519    117.8141 307.6403197  +6.6328044     2552.413     6972.806     9418.938     91.77086     184.4982     368.7028      2.914     9.28     1203.943      65.0481     273.8821        50     2.622     1.530 -51.34   2
       335    328.5410     89.6967 307.7916974  +6.6325208      1269.76     4243.545     6283.681     92.21243     184.5716     369.1799      3.410    11.83     1222.369      65.0481     142.0778        41     2.255     1.727 -13.49   0
       336    975.1499     87.8269 307.5224858  +6.6545753     569.2936     1225.991     1739.529     92.06547     184.7183     368.9598      2.087     4.16     1197.285      65.0481     96.80261         5     1.416     0.349   6.10   0
       337    285.1304     80.5550 307.8100869  +6.6348656      1351.51     3644.037     6157.398     92.50562     184.4982     369.0332      3.967    11.81     1227.759      65.0481     169.3035        30     2.561     1.515 -69.70   2
       338    669.3109     69.3732 307.6504807  +6.6521556     1128.385     3528.611     4996.943     92.65188      184.278     368.8864      3.168    10.07     1202.258      65.0481     161.1636        33     2.032     1.742  -6.53   0
       339    411.2720     60.6551 307.7582369  +6.6472564     1396.258     4340.125     5977.025     92.35914     184.4248     368.9965      3.182    12.17     1211.195      65.0481     170.5959        46     2.249     1.997 -66.91   0
       340    883.6437     55.2204 307.5617014  +6.6650510     1621.104     4831.098     6136.695     91.91828     184.4248     368.8497      2.908     8.68     1196.799      65.0481     163.5564        42     1.966     1.892  51.98   2
       341    864.8974     56.3443 307.5694704  +6.6639709     935.6902     2151.823     2848.835     92.35914     184.5716     369.2899      2.361     6.79      1197.17      65.0481     139.4094        13     1.644     0.786  77.16   0
       342    376.2311     52.2448 307.7731163  +6.6495764     879.8969     1805.865     2415.939     92.06547      184.645     368.8497      2.266     5.23     1216.701      65.0481     129.1575         9     1.204     0.640  73.85   0
       343    123.7207     50.7205 307.8783221  +6.6418601     1009.788     2753.359     4571.861      92.7979     184.8648     369.2166      2.648     6.74     1230.794      65.0481     143.7189        12     1.885     0.675 -51.93   2
       344      4.5372     47.2704 307.9280707  +6.6393390     4722.308     14369.25     19578.19     92.50563     184.5716     331.4569      3.037     7.56     1235.035      65.0481     659.8605        76     2.429     1.962 -55.99  24
       345    750.7984     39.5161 307.6175604  +6.6671779     1028.616     2686.436     3721.939      91.6232     184.0574     368.6661      2.893     7.07     1199.395      65.0481     127.6206        12     1.499     0.936 -14.89   2
       346    752.9197     42.0802 307.6165898  +6.6661877     862.1724     2003.829     3741.708      92.7979     184.8648     369.2166      2.822     7.19     1199.413      65.0481     139.3354        14     3.059     0.474 -42.18   2
       347    805.7241     41.0068 307.5946351  +6.6683671      2418.61     7320.445     9833.608     92.06547     183.9838     368.8864      2.923     8.28      1197.14      65.0481     241.3921        51     2.124     1.683 -34.92   0
       348     46.0168     39.1473 307.9110760  +6.6440709      1350.11       3345.1      4831.19     91.91828      184.645     368.7028      3.100     9.42     1233.411      65.0481     213.0631        28     1.915     1.552 -85.10   2
       349    746.9333     28.3176 307.6195510  +6.6716799     821.0223     1892.435      2239.54      92.7979     184.8648     369.1065      2.308     6.28     1198.958      65.0481     124.9392         9     1.385     0.800  23.12   0
       350     49.9115   1016.0291 307.8760284  +6.2404032     4658.617     10488.97     11792.45     92.65188     184.2779     368.8864      2.359     5.55     1257.086      65.0481     503.7058        51     1.979     1.513 -46.46  16
       351    402.2328     24.2460 307.7632436  +6.6620080     978.3326     2401.554     3294.386     92.21243     184.5716     368.9598      2.826     7.84     1214.448      65.0481     128.0851        16     1.710     1.006 -24.51   2
       352    400.4179     20.7707 307.7641181  +6.6633847     717.8427     1584.831     2360.451     92.06547     184.3514     368.9598      2.769     4.72     1214.847      65.0481     102.5232         5     1.074     0.587 -14.45   3
       353    779.0980   1014.9702 307.5726358  +6.2648816     9497.725     19214.53     21776.91     92.65188     184.2779     369.0699      2.173     4.95     1260.622      65.0481      1011.25        56     1.952     1.394 -41.62  16
       354    562.6318   1005.8057 307.6630262  +6.2615514      93056.2     215716.6     258433.1     91.77086     184.3514     368.7762      2.482     5.58     1261.056      65.0481     9364.791       125     2.314     1.726 -46.20   3
       355    564.1160    998.6099 307.6626534  +6.2645748     42566.05     94005.12     107916.3     92.06547     184.2045     368.8497      2.303     5.61     1260.809      65.0481     4204.947        75     2.082     1.483 -25.61   3
       356    196.7267   1009.3823 307.8151651  +6.2480051     2148.512     4908.646     5485.616     91.91828     184.4982     368.9598      2.314     6.63     1259.919      65.0481     217.6357        33     1.796     1.347 -47.21   0
       357    773.4696   1002.8025 307.5753910  +6.2697265     4526.742     9528.829     10987.15     91.91828     184.1309      368.813      2.258     5.33      1259.83      65.0481     464.9703        43     1.922     1.285 -40.35   0
       358    870.8671    999.3951 307.5349753  +6.2743332     1057.514     2161.411     3189.938     91.91828     184.2045      368.813      2.652     6.33     1256.372      65.0481     147.7185        14     1.430     1.073 -27.37   0
       359    194.2445    997.9722 307.8165876  +6.2526396     1253.796     2784.459     2993.823     92.06547      184.645     368.9231      2.265     8.36     1259.635      65.0481     172.8795        21     1.638     1.218 -26.65   0
       360    697.1403    995.3885 307.6074066  +6.2702828     4468.754     9984.568     11541.35     91.77086     184.4248     368.7028      2.335     5.37     1260.206      65.0481     463.1118        47     1.918     1.418 -44.34   0
       361    412.4714    995.6142 307.7258593  +6.2608171     2200.667     5622.988     7172.612     91.91828     184.4248     368.9231      2.719     6.75     1260.637      65.0481     256.2897        42     1.938     1.535 -33.33   0
