#   1 NUMBER                 Running object number                                     
#   2 X_IMAGE                Object position along x                                    [pixel]
#   3 Y_IMAGE                Object position along y                                    [pixel]
#   4 ALPHA_J2000            Right ascension of barycenter (J2000)                      [deg]
#   5 DELTA_J2000            Declination of barycenter (J2000)                          [deg]
#   6 FLUX_APER              Flux vector within fixed circular aperture(s)              [count]
#   9 FLUXERR_APER           RMS error vector for aperture flux(es)                     [count]
#  12 FLUX_RADIUS            Fraction-of-light radii                                    [pixel]
#  13 FWHM_IMAGE             FWHM assuming a gaussian core                              [pixel]
#  14 BACKGROUND             Background at centroid position                            [count]
#  15 THRESHOLD              Detection threshold above background                       [count]
#  16 FLUX_MAX               Peak flux above background                                 [count]
#  17 ISOAREA_IMAGE          Isophotal area above Analysis threshold                    [pixel**2]
#  18 A_IMAGE                Profile RMS along major axis                               [pixel]
#  19 B_IMAGE                Profile RMS along minor axis                               [pixel]
#  20 THETA_IMAGE            Position angle (CCW/x)                                     [deg]
#  21 FLAGS                  Extraction flags                                          
         1     77.7694     20.5108 307.9003120  +6.6519179     3421.733     10300.82     13801.69     92.97109     184.9866      370.231      3.016     7.90     1226.232     65.27221     424.4312        72     2.339     1.996 -41.32   0
         2    620.1806     11.9894 307.6747723  +6.6731086     6401.535     20063.88     27831.35     92.38266     184.8391     370.1573      3.058     7.51     1196.076     65.27221     730.4574        89     2.535     2.011 -40.46  16
         3    519.9935      8.2760 307.7166115  +6.6713887     2008.997     5822.126     8367.565     92.38266     184.6177     369.6044      3.085     8.08     1200.418     65.27221     238.0634        58     2.320     1.789 -18.97  16
         4    245.9585      4.7306 307.8308251  +6.6639324     3156.417        10022     14411.79     92.67735     185.2075     335.3747      3.420     9.51     1222.998     65.27221     451.1008        76     2.893     1.808 -35.20  24
         5    425.6888      4.0766 307.7560176  +6.6700577     7577.654     24136.04     31258.65     92.82433     183.6552     326.0999      2.943     8.16     1209.523     65.27221     872.7217        81     2.614     1.871 -22.85  24
         6     12.4270      5.7677 307.9280156  +6.6558793     696.2243     1815.887     1950.581     92.23497     184.9128     348.4925      2.424     5.17     1228.397     65.27221     108.6609         8     1.640     0.461 -42.31  16
         7    904.0499      4.4729 307.5568309  +6.6854220     706.5859     1772.721     2392.311     92.82433     185.2811     331.8602      2.724     3.54     1190.184     65.27221      95.9762         5     0.792     0.457 -17.00  18
         8    606.6540      2.7625 307.6807158  +6.6764849     1279.801     3015.952     3796.935     92.67735     169.6877     304.7926      2.595     8.98     1196.421     65.27221     143.1924        24     1.867     1.206 -22.74  24
         9    234.4936      2.4307 307.8356763  +6.6645096      1048.12     2220.865     3394.381     92.97109     165.0445     299.2401      2.678     8.17     1223.247     65.27221      144.442        17     1.944     0.959 -12.92  25
        10    199.8070    995.3658 307.8164937  +6.2527707     1124.386     2525.811     3229.539     92.23497     184.9866     370.0468      2.416     8.11     1253.395     65.27221     131.3103        19     1.721     1.068 -34.51   0
        11    689.6909   1022.3282 307.6117841  +6.2575439     2652.662     5151.263     5479.572     92.67735     168.6399     303.4027      2.091     6.77     1255.271     65.27221     360.0587        30     1.919     1.080 -26.66  24
        12    597.6049   1021.8100 307.6501115  +6.2547710     969.4992     2163.648     1964.257     92.23497      174.676     311.6924      2.330     6.06         1255     65.27221     130.7103        11     1.167     0.884 -65.37  18
        13    702.5364    992.1917 307.6074546  +6.2704232     4428.166     9820.705     11977.11     92.23497     184.9128     370.0836      2.495     5.64      1252.96     65.27221     481.7273        56     2.072     1.581 -30.42   2
        14    694.6277    991.5720 307.6107657  +6.2704231     846.2521      1649.16     2670.312     92.23497     184.9866     370.0836      4.651     6.06     1253.103     65.27221     128.5504         8     1.512     0.684 -85.06   2
        15    558.7142    991.4746 307.6673136  +6.2660536      2400.43     5697.401     7656.706     92.97109     185.5752     370.3782      2.716     6.71      1253.27     65.27221     242.7456        44     2.109     1.444 -52.05   0
        16    417.4459    992.7322 307.7260423  +6.2609437     2213.988     5400.694     7104.139     92.82433     185.1339     370.3046      2.794     7.71     1253.651     65.27221     228.8037        40     2.008     1.435 -36.96   0
        17    734.4127    988.1301 307.5943295  +6.2731362     949.4697     1884.335     2925.677     92.23497     184.9128     370.1573      2.398     5.13     1252.178     65.27221      151.156        11     1.316     0.882  33.25   0
        18    942.0119    981.6113 307.5081777  +6.2825533     5098.702     9808.775     10941.51     92.67735     184.9866     370.2678      2.061     4.78     1249.726     65.27221     629.7858        43     1.968     1.179 -39.29   0
        19    701.9467    979.9051 307.6081136  +6.2754852      1680.02     3843.331     5584.203     92.67735     185.0602      370.599      2.909     7.55     1252.187     65.27221     187.9745        29     1.885     1.176 -21.07   2
        20    348.2056    977.2773 307.7553697  +6.2650828      914.323     2336.781     2493.574     92.38266     184.6177     370.1205      2.497     8.67     1253.903     65.27221     106.8351        17     1.838     1.142 -35.59   0
        21    281.2455    966.5138 307.7835902  +6.2673545     8007.372     19587.32     24578.65     92.82433     185.0602     370.3046      2.683     6.12     1253.929     65.27221     803.6278        80     2.413     1.743 -33.86   0
        22    530.9127    967.5171 307.6796878  +6.2750583     2349.555     5566.322     6843.801     92.53012     185.4282     370.3782      2.524     6.82     1252.301     65.27221     261.3591        40     2.070     1.363 -33.98   1
        23    735.3260    966.9244 307.5946633  +6.2819353     4968.516     10612.55     12077.25     93.11762     185.5017      370.415      2.284     5.50     1250.974     65.27221     562.0425        48     1.949     1.403 -37.81   0
        24    500.0527    968.8752 307.6924808  +6.2734943     669.6782     1155.306     1211.424     92.82433     185.2811     370.3046      1.977     4.99     1252.465     65.27221     117.9297         6     1.173     0.600 -17.82   0
        25    796.4955    966.4214 307.5692307  +6.2841252     654.9794     1341.666     1511.289     92.67735     184.9866     370.0836      1.453     3.46     1250.375     65.27221     112.8282         5     1.096     0.315  21.23   0
        26    896.4341    960.2480 307.5278583  +6.2899137     6062.419     12283.76     14205.81     92.53012     185.2075      370.231      2.208     5.21     1249.175     65.27221     707.3472        48     2.046     1.263 -41.65   0
        27    528.3500    959.7905 307.6810146  +6.2781703     4801.377     10908.78     14533.48     92.23497     185.0602     369.9362      2.634     5.70     1251.998     65.27221     491.2397        59     2.154     1.588 -30.23   0
        28    870.2908    956.3162 307.5388676  +6.2906936     8104.429     16908.55     20303.84     92.53012     185.5752     370.4518      2.324     5.27     1249.195     65.27221     925.5408        60     2.185     1.356 -32.87   0
        29    514.7498    955.5692 307.6868152  +6.2794743     2337.157     5824.984     7656.454     92.38266     185.3547      370.231      2.734     7.16      1251.92     65.27221     275.5773        43     2.020     1.516 -34.00   0
        30    992.0252    955.6519 307.4882410  +6.2949060     3572.041     6971.887     7510.815     92.38266     185.2075     370.1941      2.086     5.01     1247.936     65.27221     465.3922        35     1.873     1.094 -30.34   0
        31    584.6271    956.5809 307.6577093  +6.2813249     720.8594     1647.539     2191.564     92.38267     184.9866     370.1941      2.628     5.46     1251.713     65.27221     126.3512         7     1.213     0.694 -13.83   0
        32    622.9952    954.7917 307.6418068  +6.2833100     776.0176     1753.314     1590.529     92.08704     184.9128     370.1205      2.312     6.47     1251.391     65.27221     123.9298        10     1.733     0.677 -19.73   0
        33     51.5724    954.0433 307.8795593  +6.2650249     546.8434     910.1135     1402.543     92.38266     185.2811     370.1941      1.654     4.15     1250.402     65.27221     90.59607         5     0.774     0.634  -7.33   0
        34    468.1806    951.8791 307.7063143  +6.2794872     1081.064     2512.423     3223.542     92.23497     184.8391     370.2678      2.542     7.84     1252.226     65.27221     136.7269        19     1.490     1.154 -17.49   0
        35    901.9659    943.9340 307.5261050  +6.2968394     29976.05     60819.32     69592.09     92.67735     185.2811     370.3414      2.224     4.91     1248.352     65.27221     3480.342        83     2.187     1.424 -38.54   0
        36    209.5288    943.1993 307.8142144  +6.2746599     823.2191     1892.859     2582.894     92.08704     184.6915     370.0836      2.385     5.41      1252.47     65.27221     124.9766         7     1.355     0.609  57.34   0
        37    799.9436    937.6153 307.5687651  +6.2961497     1515.172     3474.896     3686.222     92.08704     185.1339     369.9731      2.229     6.22     1249.194     65.27221     182.4343        29     1.788     1.280 -33.22   0
        38    748.2897    935.6983 307.5903207  +6.2952690     4001.116      8826.39     10524.89     92.82433     185.7221     370.3046      2.437     5.35     1249.199     65.27221     477.8572        51     2.059     1.488 -41.18   0
        39    980.6182    936.7578 307.4936215  +6.3023509     7072.701     7482.493     7473.617     92.23497     184.9866     370.0468      0.710     0.92     1247.335     65.27221     4400.398         9     0.813     0.323  28.74   0
        40    217.1397    935.6479 307.8113036  +6.2780306     763.2678     1584.479     2632.698     92.82433     185.1339     370.3782      2.614     6.78     1252.385     65.27221     110.0184        10     1.663     0.775  38.08   0
        41     42.3026    933.5016 307.8841118  +6.2732168     1608.743     3615.868      3880.83     92.82433     185.7221     370.1205      2.299     5.90     1250.158     65.27221      210.328        28     1.497     1.413 -78.30   0
        42    936.3424    930.6683 307.5122478  +6.3034375      4812.48     9248.456     10517.65     92.97109     185.1339      370.231      2.139     5.25     1247.468     65.27221     551.6627        43     2.011     1.191 -38.48   0
        43    910.0106    922.1701 307.5234892  +6.3061002     1416.825     2902.245     3561.293     92.23497     184.9866     370.1205      2.264     7.19     1247.211     65.27221     196.7242        23     1.941     0.994 -34.03   0
        44    630.7339    918.3617 307.6398146  +6.2986266     2587.245     6034.771     7049.824     92.67735     185.1339      370.415      2.486     6.83      1249.32     65.27221     289.1991        44     2.109     1.415 -27.67   0
        45    243.4966    918.6508 307.8009134  +6.2859181     2287.106     5723.498     7207.832     92.67735     185.1339     370.5255      2.714     6.81     1252.492     65.27221     221.6349        41     1.885     1.505 -20.06   0
        46    769.3738    919.1071 307.5821067  +6.3028134     912.4907     1615.427     1691.383     92.97109     184.9128     370.1205      1.719     5.71     1248.282     65.27221     133.6843         9     1.196     0.768 -11.68   0
        47    452.9818    916.7516 307.7138233  +6.2935199     697.3379      1340.62     1386.535     92.23497     185.2811     370.0836      1.966     5.96     1251.678     65.27221     102.2782         7     1.207     0.828 -35.56   0
        48     12.7702    916.3168 307.8969801  +6.2793591     1278.412     3038.032     3639.899     92.82433     184.9866     370.1941      2.587     6.90     1249.597     65.27221     169.1873        23     1.763     1.166  -5.74   0
        49    556.0175    909.9755 307.6711836  +6.2996695     763.2468     1649.949     2548.527     92.53012     185.0602      370.231      2.675     7.41     1250.084     65.27221     112.0626        11     1.371     1.120  73.79   0
        50    274.2878    904.4162 307.7885846  +6.2928074     689.3382     1465.129      2068.51     92.53012     184.9128     370.1205      2.107     4.53     1252.731     65.27221     95.25024         5     1.197     0.488  -3.76   0
        51    878.9148    897.6717 307.5372507  +6.3152253     4650.806     9639.899     11353.73     92.97109     185.5017     370.3414      2.314     5.34     1246.451     65.27221      519.203        54     2.122     1.429 -37.23   0
        52   1001.3311    898.0707 307.4863022  +6.3190198     4293.084      3950.02     3820.701     92.82433     185.3547     370.2678      0.693     1.25     1244.154     65.27221     2098.125         7     0.588     0.435  42.21   0
        53    415.3764    895.6562 307.7301812  +6.3010210     1117.773     2789.587     3364.636     92.38266     185.2075     370.0836      2.621     9.38     1251.676     65.27221     147.0476        21     1.700     1.494 -41.84   0
        54    316.8091    893.6230 307.7712587  +6.2986551     4554.435     11688.62      14920.4     92.38266     184.9128     370.1205      2.689     6.39     1252.499     65.27221     492.7255        67     2.232     1.728 -38.59   0
        55    237.0895    892.5262 307.8044627  +6.2965127     3451.617     8891.081     10897.82     92.82433     185.5017     370.3414      2.664     6.54     1251.908     65.27221     346.8284        54     2.163     1.580 -48.00   0
        56    894.6214    882.1597 307.5312369  +6.3221486     708.4105     1467.804     1881.205     92.38266     184.9866     370.0836      2.218     3.44      1245.45     65.27221     93.72119         5     0.763     0.448 -72.59   0
        57    850.6215    880.7028 307.5495935  +6.3213270     570.4045     1018.076     988.8249     92.67735     184.9866     370.0836      2.229     4.09     1246.035     65.27221     93.07654         5     1.005     0.475  83.76   0
        58    731.2062    875.6340 307.5994504  +6.3195548     980.3484     2294.259     2677.122     92.08704     184.9866     370.0468      2.470     8.36     1246.011     65.27221     118.4691        15     1.756     1.112 -15.16   0
        59    962.0784    871.0080 307.5035436  +6.3289426     831.9048     1461.631     2218.234     92.38266     184.6177     370.0836      1.996     5.28     1243.087     65.27221     125.3226         8     1.607     0.489 -48.39   0
        60    649.7584    868.8804 307.6335664  +6.3197066     1370.392     3122.299     4626.177     92.82433     185.2075     370.2678      3.060     8.43     1246.989     65.27221     145.2068        24     1.548     1.283   4.97   0
        61    515.5502    871.1164 307.6893312  +6.3144251     740.1332     1497.815     2061.154     92.82433     185.2075     370.3782      2.509     4.67     1249.933     65.27221     96.95667         6     0.924     0.671  10.07   0
        62     46.8880    865.5905 307.8845058  +6.3014494     1373.248     3613.775     4482.452     92.38266     184.8391     370.0468      2.655    10.14      1248.96     65.27221     170.0209        32     1.818     1.575 -35.93   0
        63    189.9866    865.8049 307.8249637  +6.3060280     996.8787      2610.09     3280.982     92.38266     184.9128     370.1573      2.879     7.79     1251.086     65.27221     112.3024        16     1.372     1.238  57.36   0
        64     64.2558    864.8892 307.8773040  +6.3023062     888.5859      2210.08     2449.042     92.82433     185.0602     370.4886      2.525     7.28      1249.34     65.27221     136.7422        11     1.348     1.100  14.63   0
        65    644.4121    858.3458 307.6361458  +6.3238897     3596.456     8345.397     10755.39     92.08704     185.1339     369.9731      2.623     6.42     1246.558     65.27221     398.0601        51     2.208     1.462 -29.18   0
        66    881.8785    854.6529 307.5374636  +6.3331118     1841.603     3610.167     3771.144     92.82433     185.2075     370.3046      2.125     5.20     1244.238     65.27221     217.5786        28     1.557     1.253 -46.53   0
        67      3.8110    856.2410 307.9027443  +6.3039094     648.0458     1365.955      1670.21     92.08704     181.2641     321.6801      2.090     4.61     1247.993     65.27221     87.25647         5     1.315     0.460  60.42  16
        68    327.5139    851.9392 307.7682140  +6.3162413     7468.888     19702.12     25546.87     92.97109     185.3547     370.3782      2.809     6.58     1251.341     65.27221      721.002        79     2.418     1.805 -35.06   0
        69     92.2892    842.2952 307.8664065  +6.3125642     668.6389     1774.052     2380.838     92.82433     185.6487     370.3782      2.355     4.93     1249.408     65.27221     109.6095         6     1.710     0.403 -73.83   2
        70     89.1841    842.0000 307.8677084  +6.3125849     783.6539     1402.715     2249.334     92.23497     184.6177     369.9731      2.553     3.65     1249.363     65.27221     147.6143         5     1.058     0.362  -6.96   3
        71    872.3358    835.8374 307.5420669  +6.3405841     1044.082     2306.195     2962.169     92.67735     185.1339     370.3782      2.277     8.12     1243.026     65.27221     126.6074        19     1.840     1.002 -32.75   0
        72    806.5658    835.2159 307.5694544  +6.3387115     1795.294     3996.776     5115.456     92.38266     184.9128     370.1205      2.368     7.28     1243.078     65.27221     212.2761        31     1.969     1.214 -40.19   0
        73     74.6759    836.4576 307.8739322  +6.3144035     1211.392     3067.728     3367.716     92.97109     185.2075      370.231      2.351     7.83     1249.037     65.27221     154.2937        19     1.349     1.271  18.96   0
        74    842.8892    835.5613 307.5543288  +6.3397450     1266.915      2579.99     2852.982     92.82433     185.1339     370.3414      2.180     6.33     1243.133     65.27221     151.3253        17     1.516     0.996 -12.38   0
        75    542.4708    826.9377 307.6796205  +6.3335693     155882.5     402870.5     511230.5     92.97109     185.2075     370.3414      2.731     6.28     1247.574     65.27221        16014       196     2.562     1.946 -36.41   0
        76    386.9543    829.4502 307.7442427  +6.3274754     3413.023     9203.647     11466.22     92.82433     185.0602     370.3782      2.721     6.85     1250.197     65.27221      388.077        62     2.215     1.760 -27.97   0
        77    329.9849    828.1373 307.7679904  +6.3261647     5386.123     14897.81     18876.75     92.23497     185.1339     370.0836      2.790     6.89      1251.02     65.27221     515.1384        72     2.379     1.765 -38.24   0
        78    880.5247    822.9620 307.5390923  +6.3461738     3099.898      6679.78     7782.908     92.67735     185.2811     370.3414      2.324     6.42     1241.976     65.27221     391.1278        40     1.991     1.330 -47.72   0
        79    648.1672    824.1034 307.6357372  +6.3381724     1826.039      4810.88     5670.583     92.97109     185.0602      370.415      2.516     6.94      1244.37     65.27221     208.7869        40     1.945     1.505 -29.60   0
        80   1014.0682    816.8407 307.4837295  +6.3530246     3207.225     6562.713      7970.35     92.67735     185.1339      370.415      2.234     5.48     1237.457     65.27221     371.7361        38     1.902     1.265 -49.76  16
        81    622.4803    817.9962 307.6466311  +6.3398645     1570.334     3948.083     5656.803     92.23497     184.6915     369.9731      2.992     6.84     1244.284     65.27221     177.8335        24     1.450     1.309   2.44   2
        82    810.6281    817.8064 307.5683498  +6.3460428     980.2433     1867.482     2059.761     92.23497     184.9866     370.0836      2.056     5.90     1241.789     65.27221     108.3965        10     1.051     0.931  33.20   0
        83    614.9706    814.0997 307.6498871  +6.3412322     1108.074     3128.866     5191.698     92.82433     184.9128     370.3782      3.357     9.97     1244.068     65.27221     143.5778        29     2.076     1.334 -61.70   0
        84    899.6077    810.4662 307.5315718  +6.3519591     1795.253      3973.22     4191.253     92.23497     184.9128     370.1205      2.319     6.98     1240.956     65.27221     209.1622        31     1.997     1.175 -39.92   0
        85    359.0000    808.0323 307.7565975  +6.3354231     855.1271     2476.147     3897.379     91.93887     184.9128     369.9731      2.991     8.67     1250.319     65.27221     132.9484        12     2.520     0.833 -54.37   2
        86    494.2364    796.2263 307.7007264  +6.3447028     1317.109     3398.329       3929.7     92.38266     184.9866     370.0836      2.569     7.94     1246.104     65.27221      158.278        26     1.587     1.511 -17.10   0
        87    838.8088    794.8596 307.5573955  +6.3564452     594.3339     1199.559     1284.529     92.08704     185.0602     369.9731      1.783     4.27     1240.182     65.27221     102.5417         6     1.129     0.460  25.26   0
        88    541.3002    792.6566 307.6812640  +6.3477080     2511.454     6964.435     9949.867     92.53012     185.2075     370.5622      3.022     8.51     1245.684     65.27221     257.2308        52     2.359     1.554 -20.13   0
        89    511.6082    786.6862 307.6938201  +6.3492125     8408.022     23069.26     30123.76     92.38266     184.8391     370.1205      2.824     6.75     1245.383     65.27221     900.8376        87     2.488     1.839 -36.37   0
        90    457.4022    791.6180 307.7162084  +6.3454114     593.9937     1338.669     1819.997     92.38267     184.6915     370.0099      2.712     4.12     1246.824     65.27221     84.38867         5     0.991     0.490 -88.30   0
        91    925.3847    784.4202 307.5217210  +6.3635645      2211.98     5033.852     5370.044     92.38267     184.9866     370.1941      2.319     6.45     1239.374     65.27221     262.5331        34     1.884     1.275 -35.24   0
        92     20.9059    776.0000 307.8983528  +6.3376491     581.4307     1578.282     2039.758     92.23497     184.7653     369.8257      1.860     3.75     1246.239     65.27221     94.76514         5     1.402     0.289   0.00   2
        93    304.8103    775.3969 307.7802480  +6.3471552     1307.202     3699.053     4490.843     92.23497     184.8391     370.1941      2.692    10.55     1249.233     65.27221     139.7928        32     2.054     1.510  -2.11   0
        94    769.5453    770.9738 307.5870206  +6.3640796     27776.42     67777.07     82652.15     92.38266     185.2811     370.1205      2.572     6.03     1239.215     65.27221      2972.23        98     2.382     1.706 -36.79   0
        95      5.1249    775.8038 307.9049253  +6.3372149     738.4917     1256.512     1550.388     92.23497     184.6177     340.5383      1.678     3.90     1246.011     65.27221     138.8474         5     1.109     0.393  15.43  18
        96      4.4531    772.7260 307.9053092  +6.3384657      786.307     1698.009      1810.46     92.67735     185.2075     331.4903      2.479     5.06     1245.713     65.27221     141.2284         6     1.303     0.661  18.01  18
        97    226.6162    747.8698 307.8137147  +6.3559917       768053      2522345      3444204     92.23497     185.0602     370.1941      3.073     7.72     1247.462     65.27221     65129.84       622     2.942     2.445 -51.03   4
        98    894.7802    766.2247 307.5350677  +6.3700991     5007.172     11205.48     13065.28     92.38266     184.9866      370.231      2.392     6.02     1238.706     65.27221     578.6724        56     2.180     1.431 -43.20   0
        99    692.8141    762.8186 307.6192242  +6.3649647     34449.32     100680.8     158669.7     92.53012     184.8391     370.1941      3.457     8.71     1240.715     65.27221     4257.132       190     3.444     2.357  18.58   0
       100    336.6749    763.2816 307.7673991  +6.3532026     8324.097     23428.25     31121.84     93.11762     185.5017     370.3782      2.900     7.00     1247.887     65.27221     763.4165        88     2.479     1.935 -36.88   0
       101    398.5325    761.1473 307.7417327  +6.3560980     8896.271     25581.26     33714.88     92.67735     185.1339     370.1941      2.903     6.98     1246.403     65.27221      885.981        94     2.515     1.951 -36.58   0
       102    935.0005    759.3961 307.5185605  +6.3742245     1163.111     2604.468     2975.656     92.08704     184.6915     370.0099      2.343     6.74     1237.779     65.27221     129.1819        15     1.382     0.923 -42.97   0
       103    891.7155    757.5986 307.5366330  +6.3735673     3714.396     8702.581     10479.16     91.93887     184.6915     369.9362      2.482     6.50     1238.364     65.27221     408.4106        48     2.124     1.396 -35.20   0
       104    632.3754    756.9800 307.6445702  +6.3654187     2837.445     7592.854     9257.773     92.38266     184.9866      370.231      2.721     6.90     1241.192     65.27221     354.9379        58     2.243     1.689 -31.59   0
       105    421.3680    755.3101 307.7324280  +6.3592546     732.5914     1870.884     2238.603     92.97109     184.9866     370.3046      2.674     7.70     1245.406     65.27221     106.8307         9     1.473     1.127  86.43   0
       106    401.3674    743.8340 307.7411380  +6.3633499     21072.88     61229.12     81838.62     92.38266     184.9128     370.0099      2.916     7.06     1245.081     65.27221     2118.274       122     2.576     2.026 -36.25   0
       107    519.2415    742.6849 307.6921286  +6.3676570     2984.444     8111.749     11120.87     92.82433     185.0602     370.2678      2.974     7.24      1241.96     65.27221     326.3682        64     2.255     1.879 -39.00   0
       108    764.0988    739.2098 307.5903562  +6.3770391     5525.121      13846.4      17289.4     92.53012     184.7653     370.0836      2.612     6.29     1237.512     65.27221     615.7098        66     2.278     1.654 -38.27   0
       109    435.8486    740.9280 307.7268884  +6.3656730       1719.9     5341.625     9393.329     92.82433     185.2811     370.3414      4.058    14.48     1243.993     65.27221     193.0658        71     3.246     2.104  68.26   2
       110    785.2299    734.3470 307.5817266  +6.3797348        678.6     1498.043     1753.279     92.53012     185.2811      370.231      2.387     4.44     1236.863     65.27221     108.7938         5     1.015     0.624  64.32   0
       111    113.9241    722.6484 307.8614585  +6.3627473     844.1781     2538.403     4778.213     92.67735     185.2811     370.3046      4.275     9.37     1245.248     65.27221     119.9442        14     2.300     1.064 -56.63   2
       112    131.4631    731.6307 307.8538565  +6.3596050     1323.128     2808.375      2859.26     92.53012     185.2811     370.2678      2.367     8.15      1245.96     65.27221     158.1251        20     1.555     1.194  85.24   3
       113    122.3882    731.7601 307.8576280  +6.3592555     4669.514     13349.27     21243.32     92.08704     184.9866     370.0099      3.897    11.22      1245.83     65.27221     466.8638       114     3.515     2.302  12.13   2
       114    909.5618    727.7974 307.5302084  +6.3864692     3447.798     8189.439     10300.22     91.79046     184.9128     370.0468      2.496     6.09     1236.502     65.27221     413.4279        51     2.206     1.455 -32.21   0
       115    957.9370    726.9706 307.5101054  +6.3883761     692.0564      1644.24     2861.125     92.53012     185.2075      370.231      4.097     6.10     1235.607     65.27221     120.7778         8     1.759     0.595 -32.16   0
       116    666.0007    725.0854 307.6316530  +6.3796995     597.5411     1541.024     1891.228     91.93887     184.6177     369.9362      2.767     7.84     1239.314     65.27221     109.1017         9     1.661     1.035   3.30   0
       117    666.6440    747.0837 307.6306440  +6.3706231     961.4679     2626.098     2732.895     92.82433     185.2075     370.3046      2.518     8.10     1240.746     65.27221     122.3018        17     1.380     1.331 -69.28   0
       118    933.1814    719.2280 307.5206674  +6.3907773     1732.148     4042.268     5282.389     92.38266     184.9866      370.231      2.589     6.96     1235.598     65.27221     231.4227        29     1.704     1.272 -36.27   0
       119    904.1671    719.5538 307.5327304  +6.3897038      1623.36      3704.35     4310.121     92.53012     185.2075      370.231      2.304     7.34     1236.123     65.27221     198.7947        28     1.770     1.256 -30.24   0
       120    963.8526    718.7365 307.5079203  +6.3919727     1174.685     2479.322     2859.355     92.82433     185.1339     370.2678      2.175     6.19     1234.905     65.27221     173.9412        12     1.232     0.875 -10.56   0
       121    229.8911    713.7144 307.8135079  +6.3702228     741.9659     1937.456     3592.758     92.53012     185.7221     370.4518      3.529     6.07     1245.233     65.27221     97.50122         8     1.535     0.675   0.27   0
       122    552.0339    724.3230 307.6791027  +6.3763156     999.2258     2440.215     2687.821     92.67735     185.2075     370.2678      2.489     6.75     1239.978     65.27221     134.4663        14     1.590     0.802  59.04   0
       123    948.0055    707.0332 307.5149082  +6.3963001     1375.319     2825.686     3302.506     92.08704     184.9866     370.0836      2.308     6.64     1234.479     65.27221     182.2196        20     1.358     1.179 -41.34   0
       124   1021.7404    700.9418 307.4844282  +6.4012034     4405.755     8816.745     9460.005     92.82433     175.8429     313.3066      2.082     5.32     1231.679     65.27221     469.0486        39     1.791     1.301 -54.78  24
       125    989.2714    700.0016 307.4979717  +6.4005425      1129.14      1937.89     2199.266     92.23497     184.6915     370.1205      1.795     5.11     1232.664     65.27221     141.7279        10     1.034     0.749 -41.52   0
       126    791.2606    698.3240 307.5804294  +6.3948275     771.1701     1514.988     2162.245     93.11762     185.2075     370.2678      2.740     5.84     1234.925     65.27221     135.7731         8     1.205     0.795  -4.79   0
       127    877.7836    696.8079 307.5444744  +6.3982566      679.187     1416.864     1159.627     92.38266     184.9128     370.1205      1.853     3.91     1234.998     65.27221     100.1019         5     1.357     0.323  60.06   0
       128     33.9312    687.0311 307.8959500  +6.3748652     1063.911     2733.353     3501.293     92.67735     185.2075     370.2678      2.633     7.69     1243.031     65.27221     161.3027        21     1.789     1.454  -2.70   0
       129    834.5004    687.6393 307.5627949  +6.4006469     946.6396      2026.04     2361.322     92.82433     185.0602     370.5622      2.410     6.59     1234.413     65.27221     102.4828        11     1.202     1.014  23.01   0
       130    646.2162    675.3491 307.6415620  +6.3996260     2517.886     7111.977     9611.177     92.23497     185.2811     369.9731      2.964     8.00     1235.625     65.27221      244.875        59     2.399     1.686 -37.71   0
       131    109.3040    671.6685 307.8651082  +6.3836782     1486.583     4427.682     5951.612     92.67735     185.3547     370.3414      3.029     9.93     1242.584     65.27221     178.4424        39     2.058     1.677 -16.84   0
       132    982.7963    670.1971 307.5016675  +6.4126590     1534.649     3480.583     3214.486     92.08704     184.6915     370.0836      2.256     7.44     1230.455     65.27221     205.9714        24     1.645     1.222 -18.36   0
       133    620.4580    670.6196 307.6524405  +6.4007459     976.8633     2580.534     2916.999     92.38267     185.0602     370.0836      2.520     8.41     1236.196     65.27221     147.6116        13     1.700     1.164  30.87   0
       134    763.1429    667.1791 307.5931787  +6.4067964     8928.036      23271.5     29312.39     92.38266     185.1339     370.0836      2.677     6.55     1233.543     65.27221     887.9214        80     2.407     1.724 -36.08   0
       135    893.1443    666.8842 307.5390882  +6.4111288     1920.195     4465.292     4898.379     92.82433     185.2075     370.4518      2.353     7.00     1232.909     65.27221     219.2115        34     1.840     1.379 -32.55   0
       136    236.7513    660.9230 307.8124398  +6.3922773     2349.589     7196.703     11115.94     92.67735     185.2811     370.3046      3.445     8.53     1241.506     65.27221     232.6671        62     2.294     1.949 -47.36   0
       137    643.5241    660.0404 307.6431983  +6.4058695     3030.984     8032.098     9555.727     92.67735     185.2075     370.3414      2.661     7.08     1234.777     65.27221     352.2957        59     2.242     1.767 -40.52   0
       138    903.3232    651.5447 307.5353679  +6.4178019     719.3129     1362.968     1026.455     92.82433     185.2075     370.2678      2.060     4.33     1231.753     65.27221     102.1172         6     1.153     0.463 -55.25   0
       139    715.9637    648.3143 307.6134477  +6.4130685     1634.082     4314.514     6024.029     92.82433     185.1339     370.3046      3.032     9.08     1232.887     65.27221     179.7416        37     2.119     1.448 -27.65   0
       140    981.5619    644.8889 307.5030314  +6.4230854     5123.284     11350.06     13153.13     92.82433     185.1339     370.3414      2.384     5.44     1229.579     65.27221     545.1307        55     2.104     1.490 -35.02   0
       141    919.5732    645.3930 307.5288121  +6.4208718     1407.489     2886.278     3755.376     92.23497     185.0602     370.0836      2.513     5.25     1231.097     65.27221     188.0094        18     1.413     1.025 -51.63   0
       142      2.3123    645.2441 307.9105238  +6.3911126     891.5785     1713.992     1994.183     91.93887     163.3006     296.8616      2.153     6.01     1240.841     65.27221     116.3361        10     1.304     0.780 -22.04  24
       143     59.3066    640.4774 307.8869697  +6.3949449     9748.094     29301.55     38913.02     92.53012     185.4282     370.3414      2.964     7.14     1240.326     65.27221     1015.129        94     2.464     2.023 -39.43   0
       144    520.3845    641.8146 307.6950569  +6.4094083      890.735     2206.086     3030.122     92.53012     184.8391      370.231      2.572     8.02     1237.073     65.27221     122.6337        15     1.633     1.101 -79.53   0
       145    909.9559    635.4489 307.5331487  +6.4246731     475.8568     954.4185     1091.033     92.82433     185.1339     370.3046      2.276     5.31     1230.436     65.27221     79.52063         5     1.689     0.471 -33.72   0
       146    726.9230    630.4984 307.6094870  +6.4207916     1721.504     4774.139     6547.582     92.38266     185.5017     370.3046      2.817     9.32     1231.711     65.27221     193.7529        42     2.113     1.707 -47.06   0
       147    705.3564    632.0037 307.6184114  +6.4194698     1314.773     4140.669     5147.827     92.08704     184.7653     369.8994      2.937    11.31     1232.172     65.27221     138.7574        40     2.316     1.539 -28.04   0
       148    558.8015    628.3115 307.6795254  +6.4162404     1183.866     3750.737     5206.377     91.93887     184.6915     370.0468      3.191    11.09     1235.587     65.27221     149.9583        34     2.070     1.656 -50.75   0
       149    999.7404    626.2623 307.4960917  +6.4313763     2750.744     6000.073     7096.158     92.82433     185.1339     370.3414      2.407     6.23     1228.646     65.27221     333.1926        39     1.977     1.321 -43.42   0
       150    304.2410    628.6740 307.7854466  +6.4078118     586.3379     1443.535     2159.195     92.67735     185.2811     370.3414      2.656     5.31     1239.074     65.27221     93.56689         6     1.443     0.552 -56.95   0
       151    219.1769    628.1573 307.8208619  +6.4052543      713.299     1935.244     3386.563     92.38266     185.0602     370.1205      3.678     6.04     1239.104     65.27221     136.2832         8     1.597     0.793  48.60   0
       152    965.2971    625.2986 307.5104585  +6.4306611     4524.004     10332.57     11585.44     92.82433     185.7221     370.1205      2.424     5.67     1229.046     65.27221     487.7883        55     2.144     1.513 -31.72   0
       153    124.0507    619.3368 307.8607450  +6.4058000     8943.451     27229.06     36528.85     92.82433     185.1339     370.3414      2.997     7.46     1239.071     65.27221     983.2366        95     2.528     2.018 -39.19   0
       154    411.7242    620.4960 307.7409951  +6.4146919     1054.911     2630.643     3624.637     92.38266     185.3547     370.3782      3.024     8.70     1237.407     65.27221     146.8217        17     1.856     1.138  11.35   2
       155    960.1478    608.2489 307.5131744  +6.4375456     3792.073     9215.885     11499.32     92.97109     185.0602     370.2678      2.635     5.87     1228.178     65.27221     441.8849        59     2.056     1.720 -37.04   0
       156    553.8611    603.8149 307.6824078  +6.4262104     17310.77     53223.01     72377.84     92.23497     185.1339     370.0468      3.012     7.43     1234.666     65.27221     1756.434       117     2.615     2.060 -38.40   0
       157   1015.4342    603.2757 307.4903323  +6.4413900     53097.95       119289     140903.5     92.67735     185.2075     370.2678      2.422     5.66     1227.607     65.27221     5850.435       107     2.323     1.615 -38.09  16
       158    161.6548    601.6270 307.8456969  +6.4143501     1041.418     3109.877     4479.463     92.38266     185.2811     370.1573      3.308    10.46     1238.474     65.27221     119.9084        24     2.182     1.399 -26.83   2
       159     55.6355    594.7111 307.8900489  +6.4137505     806.5143     1942.693     2683.888     92.82433     185.1339     370.3046      2.666     5.24     1237.607     65.27221     105.6887         6     1.129     0.688  16.38   0
       160    451.1307    587.6934 307.7257041  +6.4295387     21454.05     68428.77     96249.64     92.67735     185.3547     370.3046      3.116     7.72     1233.934     65.27221     2150.415       126     2.681     2.149 -36.39   0
       161    124.4370    581.1697 307.8618775  +6.4215957      590.972     1361.775       2071.2     92.38266     184.9128     370.1205      2.163     3.66     1236.881     65.27221     84.59277         5     1.046     0.368  -4.45   0
       162    295.9420    577.6676 307.7906254  +6.4286345     867.4977     2484.716     3662.964     92.97109     185.1339     370.3046      3.525     7.29     1234.985     65.27221     119.9052        11     1.686     0.883  19.29   2
       163    722.9398    571.0554 307.6131468  +6.4452451     2058.716     5732.003     7010.996     92.97109     185.2075     370.3046      2.787     8.26     1227.992     65.27221     217.9285        48     2.020     1.761 -29.60   0
       164    776.6088    566.2126 307.5909738  +6.4489876     5861.902     16330.48     20470.88     92.38266     184.9866      370.231      2.794     7.13     1227.319     65.27221     603.1676        79     2.421     1.827 -40.43   0
       165   1015.4081    565.2672 307.4916197  +6.4571078     1121.301     2403.791      2920.95     92.23497     184.9128     370.1941      2.645     6.89     1223.534     65.27221     187.8021        15     1.714     0.966 -44.59  16
       166    600.8026    564.7194 307.6641911  +6.4439024     967.8595     2918.096     4511.318     92.08704     184.6915     370.0099      3.305     9.06     1228.448     65.27221     128.4265        20     1.990     1.152  36.08   0
       167    917.5270    560.3837 307.5325214  +6.4559616     793.7784     1665.974     1811.455     92.23497     185.0602     370.1941      2.025     7.40     1225.814     65.27221     146.0477        10     1.568     0.996  43.77   0
       168    852.1329    549.5994 307.5601006  +6.4583046     1118.238     3084.084     3932.703     91.93887     184.6915     370.0099      2.704     9.62     1225.818     65.27221     129.6931        25     1.817     1.422 -47.86   0
       169    810.9469    547.0912 307.5773264  +6.4580079     1158.911     3079.931     4096.316     92.67735     184.9866     370.4518      2.736     9.40     1225.934     65.27221     140.8604        24     1.672     1.475  38.47   0
       170    791.8915    538.1536 307.5855579  +6.4610866     64307.24     180766.6     238246.1     92.82433     185.1339     370.4518      2.881     6.99     1225.343     65.27221     6736.908       172     2.791     1.985 -35.18   0
       171    239.6606    542.4872 307.8152376  +6.4413493     2655.518     8143.862     10736.83     92.97109     185.4282     370.3782      2.976     8.85     1233.064     65.27221     267.0117        64     2.298     1.958 -33.10   0
       172    173.9091    536.9028 307.8427895  +6.4415151     19626.34     63841.97      89544.8     92.82433     185.7955     370.3046      3.134     7.89     1233.857     65.27221      2120.54       127     2.682     2.179 -39.63   0
       173     98.9991    533.8025 307.8740685  +6.4403533     2274.549     5491.246     7578.761     92.08704     184.6915     369.9731      2.728     8.89     1234.653     65.27221     258.2483        47     2.358     1.562 -38.42   2
       174     96.3396    531.9657 307.8752376  +6.4410261     1597.331     3218.403     4348.828     92.67735     185.2075     370.2678      2.608     6.05     1234.598     65.27221     215.4794        15     1.855     0.621 -55.97   3
       175    348.3196    525.3539 307.7705972  +6.4519736     5121.662     10004.39      12840.5     92.82433     185.2075     370.3046      2.287     7.47     1230.031     65.27221     628.3484        38     2.381     0.959 -41.29   3
       176    346.4133    522.7076 307.7714800  +6.4530058     5261.138     12336.33      16561.7     92.53012     184.9128     370.0468      2.685     8.52     1229.875     65.27221     528.1398        55     2.770     1.308 -39.54   3
       177    962.4056    528.7964 307.5149047  +6.4704766      624.489     1336.149     1828.049     92.08704     184.8391     370.1205      2.006     3.79     1222.334     65.27221     88.88232         5     1.050     0.394   5.02   0
       178    828.3304    525.4242 307.5708206  +6.4675314     1942.448     5112.044     6728.438     92.38266     185.0602      370.231      2.767     8.26     1224.021     65.27221     201.0237        46     2.173     1.710 -14.59   0
       179    782.3204    518.7238 307.5901955  +6.4688117     2439.718     6670.917     8456.411     93.11762     185.5017     370.4518      2.765     7.89     1223.803     65.27221     257.0674        52     2.246     1.633 -37.59   0
       180    513.4346    518.6288 307.7021071  +6.4601251      2229.84     6831.105     9304.142     92.23497     184.9128     370.0468      2.981     8.40     1227.879     65.27221     250.3068        63     2.241     2.034 -48.22   0
       181    147.0730    521.7144 307.8544721  +6.4469207      629.876     1907.979     3073.114     92.97109     185.5752     370.3046      3.815     7.44     1233.492     65.27221     115.3569         9     1.686     0.919   1.95   0
       182    160.6655    512.2784 307.8491351  +6.4512661     2270.907      7062.82     10384.87     92.97109     185.2811     370.2678      3.363     8.77     1232.839     65.27221     255.0303        66     2.495     1.917 -38.23   0
       183    557.1383    513.7593 307.6840825  +6.4635587     707.5938      1482.08     2758.248     92.82433     185.2075     370.3414      1.866     3.42     1226.811     65.27221     87.52124         5     0.992     0.342  43.29   1
       184    255.8392    508.5327 307.8096538  +6.4559178     28035.05     93311.06     133622.1     92.67735     185.1339      370.415      3.187     8.09     1229.916     65.27221     3301.695       143     2.734     2.225 -38.36   0
       185     32.5128    510.8562 307.9025149  +6.4476716     1877.321     5603.587     7710.871     92.82433     185.0602     370.4518      3.040     8.59      1235.03     65.27221     225.4958        50     2.130     1.878 -34.66   0
       186    560.0609    511.2591 307.6829505  +6.4646876     811.1376     2173.641     3134.902     92.82433     185.1339     370.3414      2.822     5.94     1226.543     65.27221      124.363         9     1.879     0.528  83.91   0
       187    554.4462    510.6433 307.6853081  +6.4647599     544.1743     1117.703     2743.961     92.82433     185.2075      370.231      2.869     4.80     1226.761     65.27221     92.36792         5     1.135     0.576 -59.39   0
       188    778.6348    500.4471 307.5923448  +6.4762506     6424.867     18352.26     23965.62     92.38267     185.1339      370.231      2.891     7.08     1222.227     65.27221     648.0156        80     2.435     1.847 -40.15   0
       189    482.4598    499.1685 307.7156554  +6.4671659     14039.26     45560.87     67394.66     92.53012     185.2811     370.2678      3.252     7.86     1227.437     65.27221      1302.16       130     2.747     2.266 -30.87   0
       190    641.8726    494.1401 307.6494782  +6.4744234     1220.447     3484.926     5409.625     92.97109     185.2075     370.3414      3.116     8.34     1223.917     65.27221     148.2999        20     1.752     1.109  79.90   2
       191    652.7504    493.2140 307.6449821  +6.4751594     623.6738     1413.569     2340.054     92.08704     185.1339     369.9731      2.810     3.22     1223.844     65.27221     112.2598         5     0.712     0.700 -27.08   0
       192    703.4373    490.9128 307.6239636  +6.4777555     559.0176     1255.532     1636.097     92.82433     185.1339     370.3046      2.527     4.89     1222.744     65.27221      83.0282         5     1.423     0.476 -84.01   0
       193    196.4407    497.5423 307.8347458  +6.4585265     739.9818     288.7249     1442.487     92.82433     185.2075     370.3414      1.479     3.76     1230.966     65.27221       99.073         6     0.969     0.419 -72.25   1
       194    311.9655    488.5190 307.7869726  +6.4660224     1236.738     3820.965      5408.59     92.67735     185.2075     370.3414      3.032    11.01     1227.032     65.27221     144.4291        35     2.055     1.642  64.56   0
       195    126.9829    487.0269 307.8640081  +6.4606095     8646.887     27773.81     39298.03     92.38266     184.9128     370.1941      3.129     7.58     1231.949     65.27221     1022.324       104     2.543     2.178 -42.34   0
       196     92.9149    485.4788 307.8782385  +6.4601379      941.188     2862.862     4321.842     92.82433     185.5752      370.415      3.323    10.06     1232.246     65.27221     134.0311        20     1.796     1.571 -68.21   0
       197    952.0969    481.0305 307.5208007  +6.4898969     2493.436     5873.466     6981.631     92.97109     184.9128     370.3782      2.437     6.75     1218.992     65.27221     289.4352        41     2.044     1.367 -42.48   0
       198    423.7888    467.8657 307.7411313  +6.4782030     13311.93     44604.77      63971.8     92.23497     184.9866     370.1573      3.186     8.12     1225.301     65.27221     1381.618       119     2.710     2.161 -36.24   0
       199    631.7769    467.3492 307.6545835  +6.4851750     4058.031     12773.11     17715.16     92.23497     185.2075     370.1941      3.053     7.94     1222.225     65.27221      394.219        84     2.628     1.973 -34.81   0
       200    189.1288    465.7369 307.8388659  +6.4714406     6197.774     20431.97     29751.96     92.82433     185.2075     370.3782      3.217     8.08     1229.169     65.27221     636.8489       103     2.611     2.230 -29.12   0
       201    554.3943    465.6156 307.6868492  +6.4833791     980.3505     2671.967     3879.444     92.38266     184.8391     370.1205      3.223     8.72     1223.535     65.27221     120.5985        19     2.128     0.999 -34.48   2
       202    157.0994    465.3355 307.8522095  +6.4705620     577.0521     1207.552     2289.265     92.82433     185.2811     370.3046      2.713     3.94      1230.32     65.27221      101.738         5     1.297     0.342 -48.53   0
       203    965.2100    464.6398 307.5158936  +6.4970995     614.9642     1306.006     1662.875     92.08704     184.9866     370.0099      2.193     3.45     1217.406     65.27221     95.28052         5     0.755     0.455 -14.65   0
       204    927.3552    460.9836 307.5317727  +6.4973869     2239.262      5739.78     7318.729     92.23497     185.0602     370.0468      2.647     7.62     1218.286     65.27221     252.5211        45     2.187     1.472 -37.22   0
       205    601.7156    460.6087 307.6673226  +6.4869866     2090.843     5103.629     8057.279     92.38266     184.8391     370.1205      3.210     9.84     1221.944     65.27221     237.0238        44     2.836     1.237 -44.48   2
       206    599.3955    458.2057 307.6683693  +6.4879049     1851.069      3551.89     4749.184     92.08704     184.8391     370.1573      2.339     6.25     1221.752     65.27221     255.7249        23     1.846     0.900 -45.82   3
       207    949.7009    453.3430 307.5227286  +6.5012697     1626.939     4214.937     5211.356     92.53012     185.2075     370.5255      2.759     9.27     1217.026     65.27221     173.2391        38     2.124     1.522 -57.77   0
       208    514.1433    452.5251 307.7040437  +6.4874847     2128.639     4382.107     6842.025     92.67735     185.1339      370.231      2.947     9.21       1222.9     65.27221      264.817        33     2.797     0.846 -41.03   3
       209    511.8295    449.9591 307.7050934  +6.4884707     2257.402     5596.503     7789.886     92.38266     184.9866     370.1205      2.936     8.49     1222.599     65.27221     247.3931        40     2.370     1.171 -38.82   3
       210    359.2228    453.7767 307.7684796  +6.4819283     846.1282     1982.463     3314.856     92.23497     185.0602     370.2678      3.683     6.65     1223.629     65.27221     116.3463        12     1.334     0.942 -51.32   2
       211    869.2127    446.5425 307.5564589  +6.5014770     1384.018     4133.951     6124.834     92.08704     185.0602     369.9731      3.620    10.77     1217.577     65.27221     150.9023        37     2.117     1.527 -22.05   0
       212    876.4918    439.7362 307.5536581  +6.5045274     814.8032      2443.86     3864.138     92.82433     185.4282     370.3782      3.551     6.30      1217.01     65.27221     120.7921         9     1.568     0.711 -22.06   0
       213    700.6782    437.1903 307.6269223  +6.4998828     993.5352     3101.172     3796.181     92.38266     184.7653     370.1573      3.009    10.83     1219.151     65.27221     110.4209        28     2.169     1.506 -38.58   0
       214    373.0038    436.6732 307.7633222  +6.4894497     1166.869     2729.633     4447.833     92.23497     184.6915     370.1205      3.519     8.91       1221.9     65.27221     164.7677        22     2.749     0.806 -38.91   2
       215    371.1411    434.0266 307.7641870  +6.4904836     1058.512     2121.785     3600.306     92.38266     185.2811     370.1205      2.741     5.94     1221.593     65.27221     115.8171        11     1.195     0.831 -53.00   3
       216     63.8972    438.2185 307.8919173  +6.4787339     741.1758     1431.877     2180.086     92.67735     185.0602     370.0099      2.430     4.90     1231.774     65.27221     115.0604         7     1.281     0.531 -26.67   0
       217    600.7326    433.0063 307.6686628  +6.4983695     3118.672     6997.419     9762.615     92.23497     184.9128     370.0836      2.550     7.33     1219.586     65.27221     324.6726        35     2.367     1.055 -62.46   3
       218    598.2331    431.0393 307.6697695  +6.4991017     3110.924     7143.546     10792.67     92.53012     184.9866     370.0836      2.952     9.21     1219.437     65.27221      345.735        45     2.874     1.265 -60.79   3
       219    761.8832    428.2928 307.6017469  +6.5055470     6252.781     18787.17     25380.04     92.53012     185.5752     370.4518      2.973     7.44     1217.707     65.27221     634.6592        88     2.607     1.874 -45.42   0
       220    281.8470    429.0347 307.8015201  +6.4896402     860.5179         2667     3395.296     92.38266     185.2075      370.231      2.595     5.54     1223.266     65.27221     143.2078         9     1.861     0.464  32.64   0
       221    946.9348    422.4828 307.5249173  +6.5139425     905.2422      1931.45     2190.644     92.97109     185.5017     370.3782      2.340     5.57     1214.819     65.27221     136.1115         9     1.120     0.781 -14.15   0
       222     99.8560    420.8475 307.8775409  +6.4870912     1345.315     4588.868     6407.223     92.82433     185.2075      370.415      3.132     9.83     1230.711     65.27221     176.6355        44     2.175     1.893 -53.39   0
       223   1000.9672    417.7965 307.5025843  +6.5176282      1933.07     5276.737     6676.979     91.93887     184.9866     370.0099      2.696     7.82     1213.606     65.27221     197.6801        46     2.039     1.678 -46.80   0
       224    737.3723    419.9818 307.6122290  +6.5081893     849.8681     2127.324     2657.354     92.38266     184.9866     370.1941      2.737     7.86      1217.37     65.27221     101.8373        13     1.564     1.103 -12.94   0
       225    335.0134    413.4975 307.7799177  +6.4977970     991.5751     2578.316     4835.665     92.67735     184.9128     370.0099      4.071     9.44     1220.325     65.27221     184.5851        19     2.113     1.176  16.78   2
       226    701.4939    401.5070 307.6277853  +6.5146659     4442.535     8969.767     11082.45     92.82434     185.7955     370.2678      2.331     8.85     1216.387     65.27221     482.0692        29     2.301     0.950 -30.71   3
       227    699.4037    399.2065 307.6287328  +6.5155495     4884.317     11704.12     15866.02     92.08704     184.8391     370.1573      2.808     8.55     1216.122     65.27221     513.5033        54     2.656     1.400 -21.43   3
       228    621.8465    395.7861 307.6611301  +6.5144472     802.3497     2657.492     3841.211     92.08704     184.9866     370.0468      3.317     9.69     1216.264     65.27221      102.948        20     2.253     1.162  51.27   0
       229    593.8627    391.4908 307.6729228  +6.5153149     5699.592     17152.12      28941.4     92.82433     185.3547      370.415      3.575     8.40     1215.833     65.27221      614.601       122     2.896     2.435  15.71   0
       230    925.5233    389.8564 307.5349268  +6.5267425     1851.054     4593.305     5193.767     92.82433     185.1339     370.2678      2.609     7.87     1213.185     65.27221     186.9983        36     1.919     1.485 -42.65   0
       231    364.8300    386.4312 307.7684230  +6.5099606     8489.631     29866.97     43275.52     92.23497     184.9128     370.0099      3.213     8.35     1217.884     65.27221     1065.515       108     2.674     2.196 -36.45   0
       232    112.8387    386.8223 307.8732909  +6.5015852     860.4529     1894.492     2451.399     92.38266     184.9128     370.0468      2.342     6.24     1228.259     65.27221     139.5704         9     1.702     0.643 -62.75   0
       233    109.0673    385.5651 307.8749032  +6.5019820     647.1656     1660.955     2324.429     92.67735     185.2811      370.415      2.508     6.10     1228.403     65.27221     106.8276         7     1.375     0.762 -87.66   0
       234    894.0792    380.5933 307.5483270  +6.5295555      2074.08     5793.458     7164.209     92.38266     184.6177     370.0468      2.791     7.33     1213.045     65.27221     223.5931        49     2.060     1.674 -30.74   0
       235    223.9059    378.2254 307.8273554  +6.5087632     4507.823     10635.76     14436.52     92.97109     184.9128     370.1205      2.724     8.64     1222.164     65.27221     486.1306        54     2.696     1.380 -36.52   3
       236    221.0072    375.4975 307.8286543  +6.5097967      3560.94     7788.335     10834.95     92.53012     184.7653     370.0099      2.663     7.02     1222.139     65.27221     376.2687        38     2.270     1.160 -41.88   3
       237   1023.7283    368.2552 307.4947743  +6.5388521     1082.494     1682.817     1969.113     79.70696     146.0231      277.443      1.676     5.39     1207.252     65.27221     242.5558         9     1.459     0.563 -88.41  24
       238    122.6887    366.0942 307.8698940  +6.5104783     1564.011     5374.224     7299.762     92.82433     185.7221     370.3782      3.081    10.08     1226.709     65.27221     225.2917        53     2.245     1.895 -50.18   0
       239    146.8386    362.3130 307.8599707  +6.5128300      830.364     2332.673      3655.54     92.82433     185.1339     370.3046      3.297     9.24     1225.508     65.27221     117.2117        16     2.193     1.086 -34.61   2
       240     18.7930    351.2493 307.9136394  +6.5132245     1225.322     3480.483     4474.269     92.23497     184.9866     369.8625      3.019    10.73     1231.608     65.27221     190.3876        31     2.002     1.711 -41.49   0
       241    422.1514    349.8895 307.7457996  +6.5269373     2220.915     7489.489     10822.86     92.82433     185.0602     370.4886      3.259     9.05     1214.592     65.27221     271.0011        74     2.460     2.101 -33.99   0
       242   1006.1509    341.7985 307.5029801  +6.5492250     1748.187     4310.074     5233.113     92.08704     184.7653     369.8257      2.529     7.10     1205.657     65.27221     206.0297        37     1.853     1.500 -21.50   0
       243    468.9120    333.0886 307.7269037  +6.5354061     1025.907     2819.632     4023.386     92.53012     185.7955      370.415      3.153     8.27     1211.742     65.27221     144.0161        18     1.450     1.319  40.35   2
       244    827.7368    329.6184 307.5776579  +6.5484877      13507.7     38478.55     50990.48     92.38266     185.1339     370.1573      2.904     6.94     1210.224     65.27221     1254.583       102     2.509     1.976 -42.90   0
       245    762.3453    346.7693 307.6043004  +6.5392759     4838.717     14318.38     19973.15     92.67735     185.2811     370.2678      3.064     7.73      1211.73     65.27221     482.7776        83     2.620     1.896 -26.80   0
       246    599.2589    322.8011 307.6729941  +6.5438962     861.8009     2691.055     3768.922     92.08704     184.9128     369.9362      2.945     9.95     1209.839     65.27221     119.7812        18     1.955     1.411  31.95   0
       247    684.2582    315.7151 307.6378513  +6.5495857     27743.76     86358.94     119520.3     92.82433     185.2075      370.415      3.068     7.67     1209.896     65.27221     2640.248       133     2.690     2.108 -38.46   0
       248     84.3840    311.9014 307.8876743  +6.5316380     2188.299     6805.362     9017.641     92.82433     184.9128     370.0836      2.951     8.21     1227.761     65.27221     262.8407        63     2.282     1.973 -23.92   0
       249    545.8952    311.4075 307.6955916  +6.5468745     789.6902     2387.379     4286.388     92.53012     184.7653     370.0836      3.735     7.93     1208.622     65.27221     120.8909        13     1.853     0.949 -41.24   2
       250    530.0767    308.8159 307.7022636  +6.5474322     2156.146     7323.447     10545.08     92.23497     184.9128     370.1573      3.171     9.69     1208.574     65.27221     259.6362        68     2.453     2.056 -31.84   0
       251    393.0410    304.0923 307.7594647  +6.5449289     7655.062     26945.45     40204.95     92.97109     185.1339      370.415      3.302     8.49      1212.64     65.27221     976.4126       107     2.708     2.226 -37.07   0
       252    259.7347    306.9078 307.8148573  +6.5394231     837.8884     2539.968     3521.321     92.67735     185.4282     370.3046      3.053     9.85      1217.48     65.27221      136.879        15     2.012     1.345  74.56   0
       253    483.1393    295.5057 307.7222512  +6.5514107     2906.477     7165.887     10573.11     92.67735     185.2811     370.3414      2.957     8.55      1207.65     65.27221     334.0387        52     2.629     1.545 -39.00   2
       254    480.7699    293.0006 307.7233220  +6.5523696     2335.245     5187.982     6744.906     92.08704     184.9866     370.0836      2.520     5.77     1207.361     65.27221     246.2523        20     1.625     1.018 -69.63   3
       255    751.3005    292.9307 307.6107116  +6.5611826     1168.064     3270.378     4313.894     92.82433     185.3547     370.3046      2.913     9.58     1208.974     65.27221     149.2324        25     1.658     1.543   6.95   0
       256    372.2162    278.8176 307.7689876  +6.5547030     2171.446     7508.382     10808.81     92.53012     184.8391      370.231      3.245     8.87     1212.175     65.27221     295.3123        69     2.478     2.009 -37.87   0
       257    228.9501    280.5567 307.8285633  +6.5493165     804.6163     1957.063     2803.826     92.97109     185.1339     370.3414      3.022     5.73     1217.782     65.27221     97.16382         8     1.376     0.672 -65.50   0
       258    739.7507    274.1917 307.6161509  +6.5685575     19244.62     58636.13      80735.1     92.23497     184.9866     369.9362      3.042     7.47     1207.543     65.27221     1880.661       118     2.662     2.048 -38.64   0
       259    412.1850    274.6738 307.7524905  +6.5577175      837.519     2222.116     2842.797     92.23497     184.9128     370.1941      2.519     7.90     1210.245     65.27221      118.535        12     1.911     0.913 -89.31   2
       260    974.2056    272.6541 307.5186022  +6.5767867     784.5878     1729.774     2307.563     92.23497     184.9128     369.9362      2.545     6.57     1202.777     65.27221     109.1218        10     1.813     0.667 -18.78   0
       261    914.9289    269.5787 307.5433820  +6.5761405     987.0444     2617.462      3029.63     92.38266     185.0602     370.2678      2.610     8.51     1205.121     65.27221     130.7174        19     1.778     1.138 -64.46   2
       262    398.4199    271.5348 307.7583264  +6.5585676     712.0114     1255.165     1748.417     92.38267     185.2075     370.1205      1.971     5.28     1210.691     65.27221     97.66797         5     1.006     0.783 -79.19   0
       263    738.2310    258.7267 307.6173046  +6.5749037       2243.5     6524.323     8439.344     92.67735     185.2075     370.3046      2.849     8.50     1206.306     65.27221     239.0276        58     2.368     1.773 -31.94   0
       264    175.8265    261.4182 307.8513241  +6.5554983     854.6048     2030.866      3008.57     92.38266     184.9866     370.1941      2.707     5.86     1221.726     65.27221     114.7236         8     1.520     0.635  57.65   0
       265    752.8489    255.5201 307.6113274  +6.5767038     886.4259     2397.814     3576.729     92.82433     185.2811     370.3046      3.128     8.36     1206.256     65.27221     128.6808        15     2.408     0.810  -7.88   3
       266    343.3206    252.7201 307.7818984  +6.5645544     819.3013     2129.238     3143.204     93.11762     185.5017     370.4886      2.553     5.11     1212.377     65.27221     108.1111         8     1.299     0.568  65.76   0
       267    992.5759    247.5911 307.5117971  +6.5877457     2910.229     7307.826     8910.555     92.38267     184.9866     370.1573      2.581     6.53     1200.892     65.27221     309.9305        45     2.003     1.491 -37.01   0
       268    233.9131    243.8196 307.8277416  +6.5646702     1874.724     5917.468      8614.14     92.53012     184.9128     370.1941      3.205     8.71     1217.452     65.27221     280.7483        56     2.363     1.890 -46.78   0
       269    137.6935    228.5893 307.8683096  +6.5678297     597.0399     1802.105      2675.23     92.53012     184.7653     370.0468      2.901     3.42     1224.384     65.27221     104.0037         4     0.780     0.433 -88.81   2
       270    548.8209    226.5763 307.6972376  +6.5820506     687.9197     1763.189     2543.303     92.53012     184.9866     370.2678      2.842     4.74     1201.308     65.27221     79.15356         6     1.673     0.381 -88.36   0
       271    711.3392    224.5281 307.6296519  +6.5881741     1599.482     3417.245     4641.306     92.97109     185.2075     370.3782      2.714     8.95     1202.817     65.27221     189.3805        29     2.443     0.915 -42.07   3
       272    709.0000    221.7862 307.6307181  +6.5892321     1518.533     3203.153     4000.572     92.23497     184.7653     370.0468      2.304     7.99     1202.673     65.27221     159.0021        24     1.849     1.072 -50.56   3
       273    890.0088    224.0505 307.5552878  +6.5941620      708.913     1814.127     2278.545     92.23497     185.0602     369.9362      2.524     5.29     1203.698     65.27221     93.72034         7     1.063     0.743  17.88   0
       274    653.2061    224.0614 307.6538681  +6.5864808     765.3565      1530.77     2340.292     92.08704     184.9866     370.0468      2.026     4.20     1201.611     65.27221     118.8425         7     1.224     0.412 -33.93   0
       275    651.1689    221.2047 307.6548125  +6.5875960     644.6547     1540.444     2033.897     92.08704     185.0602     370.0468      2.580     3.73     1201.554     65.27221     104.0344         5     0.915     0.437  45.99   1
       276    209.7547    210.3731 307.8389306  +6.5777135     763.7059     1922.763     3002.866     92.23497     185.2811     370.1941      2.792     6.63     1220.051     65.27221     100.3588         8     1.500     0.822  13.24   0
       277    445.1571    199.8211 307.7412951  +6.5897445     7419.988     16877.75     24014.24     92.23497     185.0602     370.1205      2.875     8.77     1202.836     65.27221     835.1848        69     3.144     1.347 -37.74   3
       278    443.1808    196.6190 307.7422261  +6.5910044     5844.677     12821.05     15659.45     92.53012     185.1339      370.231      2.441     7.10     1202.821     65.27221     596.6676        40     2.144     1.179 -30.59   3
       279    769.9394    197.2889 307.6061745  +6.6013391      4876.49     15045.32     21321.18     92.67735     185.3547     370.3414      3.106     7.57     1202.337     65.27221      561.869        82     2.424     2.009 -40.37   0
       280    134.0837    193.0058 307.8710185  +6.5824265     645.9705     1851.854     3353.261     92.38266     184.8391     370.0099      3.235     7.95     1224.775     65.27221      115.068        11     1.988     0.889 -50.74   0
       281    568.3694    184.0793 307.6905343  +6.6002600     1621.857     5007.068     6829.914     92.67735     185.1339     370.2678      3.006     9.62     1200.203     65.27221     186.9197        50     2.245     1.764 -32.42   0
       282    531.5544    185.7921 307.7058025  +6.5983553     787.7719     1640.568     2022.835     92.23497     185.0602     369.8994      2.752     7.04     1200.056     65.27221     137.2048         8     1.416     0.980 -11.91   0
       283    874.8619    180.4186 307.5630619  +6.6117154     4551.959     12918.96     16469.02     92.38266     185.1339     370.1573      2.777     7.02     1200.443     65.27221     439.1678        66     2.261     1.780 -40.48   0
       284    928.7604    181.6480 307.5405815  +6.6129519      1242.55     3175.844      4014.23     92.67735     185.2075     370.1205      2.714    10.12     1198.947     65.27221      134.056        26     2.094     1.364 -46.11   2
       285    961.5720    178.1053 307.5270405  +6.6154788     4699.086     11580.62      14531.3     92.97109     184.9128     370.1941      2.653     6.04      1198.37     65.27221     478.4845        60     2.110     1.694 -36.54   0
       286    673.4263    179.9229 307.6469389  +6.6053901     1025.418     2575.981     4022.765     92.67735     185.2075     370.2678      3.273     8.85     1201.327     65.27221      127.489        14     1.973     1.109 -51.25   2
       287      2.9115    177.5483 307.9261450  +6.5845343      9264.47     21689.87     25488.92     92.82433     171.5256     307.4203      2.418     7.53     1232.635     65.27221     1117.445        54     2.218     1.463 -75.57  24
       288    813.3127    169.8814 307.5890407  +6.6140792     788.0544      2191.51     2959.004     92.53012     185.5017      370.415      2.985     6.98     1199.852     65.27221     91.93494        11     1.233     1.109  30.50   0
       289    726.0369    167.9761 307.6254393  +6.6120376     13316.88     28689.74     39334.29     92.38266     184.9128     370.0468      2.652     8.11     1200.941     65.27221     1507.011        64     2.942     1.269 -41.08   3
       290    724.3116    165.3394 307.6262465  +6.6130720     12912.19     30030.99     36107.54     92.82433     185.3547     370.3414      2.443     5.92     1200.835     65.27221         1293        41     1.993     1.257 -44.07   3
       291    495.0764    170.5029 307.7215047  +6.6034921      945.483     2158.101     3283.517     92.38266     185.4282     370.3782      2.804     6.01     1199.731     65.27221     126.7767        12     1.556     0.654 -44.23   2
       292    329.1480    166.6671 307.7907096  +6.5996784     2420.041     7721.265     12496.21     92.67735     185.1339     370.2678      3.444     9.56     1212.241     65.27221     262.9873        66     2.655     1.932 -46.90   2
       293    865.1189    168.3626 307.5675239  +6.6163856     803.1354     2204.193     2915.308     92.82433     185.2811      370.231      2.713     7.38     1199.577     65.27221     114.3019        14     1.897     0.803  18.72   0
       294    958.8533    165.5599 307.5285942  +6.6205789     1309.912     3121.495     4016.043     92.67735     185.2075     370.2678      2.722     8.10     1197.756     65.27221     148.0967        27     1.762     1.442 -62.09   0
       295    892.9631    163.6374 307.5560907  +6.6192413     3035.127     8337.924     10331.62     92.53012     185.0602     370.1205      2.721     7.08     1198.579     65.27221     286.0411        58     2.250     1.655 -45.95   0
       296    561.8623    163.6967 307.6939314  +6.6084776     3882.674     6452.382     6291.676     92.53012     185.2811     370.3782      1.765     5.14     1199.674     65.27221     1832.405        15     2.244     0.333  71.81   0
       297    437.2516    163.1768 307.7458247  +6.6046410     1804.727     5553.031     7634.484     92.23497     185.2075     370.1573      3.099     8.62     1201.205     65.27221     198.4357        53     1.998     1.937  10.76   0
       298    997.0114    165.3356 307.5127154  +6.6219060     747.3613     1618.249     2314.573     92.23497     184.9866     370.1205      2.773     4.42     1197.502     65.27221      104.598         6     0.855     0.651 -27.68   2
       299    240.5593    153.6133 307.8280300  +6.6021897     2257.922     5171.672     7345.335     92.23497     184.9866     370.0099      2.724     9.63     1221.533     65.27221     272.3213        46     2.837     1.220 -38.30   2
       300    239.0332    149.8039 307.8287943  +6.6037152     1517.671      3301.07     3383.047     91.93887     185.0602     370.0468      2.145     6.36     1221.762     65.27221     178.3268        21     1.627     0.974 -28.33   3
       301     94.4206    154.5854 307.8888319  +6.5970194     1612.303     5408.776     7103.301     92.53012     184.9128     370.1941      3.056    10.41     1226.005     65.27221     217.6541        53     2.272     1.860 -48.98   0
       302    264.5592    150.9977 307.8181277  +6.6040536     10123.84     35375.59     52346.79     91.93887     184.9128     370.0099      3.266     8.20      1219.95     65.27221     1256.107       118     2.747     2.223 -42.55   0
       303    388.5874    146.4477 307.7666492  +6.6099753     15155.41     52833.09     77136.14     92.08704     185.0602     369.9731      3.230     8.28     1205.345     65.27221     1935.622       126     2.761     2.226 -37.45   0
       304    144.9160    147.9320 307.8680373  +6.6014191      1470.48     4496.919     6540.413     93.11762     185.5017     370.3414      3.177    10.74       1224.7     65.27221     189.2574        48     2.097     1.942  86.14   0
       305    293.2076    144.2569 307.8064298  +6.6077748     5595.842     19115.13     30289.03     92.08704     185.0602     370.0468      3.485     8.47     1218.134     65.27221     644.4261       123     3.127     2.279 -17.64   0
       306    727.7295    142.3511 307.6255984  +6.6226895     12031.94     36631.79     49352.01     92.82433     185.1339     370.3414      2.982     7.48     1199.949     65.27221     1306.099       101     2.572     2.006 -37.80   0
       307     44.9166    140.4082 307.9099202  +6.6012650     3229.405     9919.562      14018.8     92.38266     184.8391     370.1205      3.076     7.89     1229.733     65.27221      429.333        71     2.451     1.881 -41.72   0
       308    986.8715    123.0899 307.5183572  +6.6390487     1056.848      2632.51     3614.596     92.67735     185.5017     370.3046      2.855     8.33     1195.274     65.27221     118.9519        17     1.489     1.303 -72.20   0
       309    579.5363    120.2133 307.6880414  +6.6270338     674.8664     1708.903     3141.668     92.23497     184.9866     370.0836      2.375     5.46     1199.418     65.27221     109.4388        10     2.044     0.411 -43.30   0
       310      9.0228    116.2892 307.9256806  +6.6100657     1702.971     5034.284     6883.471     92.82433     184.9866     370.1573      3.048     8.68     1232.475     65.27221      231.105        49     2.126     1.914 -79.93  16
       311    694.9488    113.6407 307.6402138  +6.6334990     2973.685     8933.944     12329.05     92.82433     185.2075     370.2678      3.039     7.98     1199.177     65.27221     283.3242        68     2.292     1.970 -35.91   0
       312    263.3068    117.4219 307.8197860  +6.6178973     9405.658     32206.03     48173.35     92.82433     184.9866     370.0836      3.296     8.42     1221.346     65.27221     1194.171       119     2.789     2.236 -37.28   0
       313    105.8617    111.5185 307.8855298  +6.6152020     1546.494     5198.624     7239.827     92.97109     185.2075     370.2678      3.127     9.45     1225.596     65.27221     208.2727        52     2.317     1.677 -31.82   0
       314    341.2238    107.7819 307.7876750  +6.6244225     1179.074     2491.757     3955.034     92.38266     185.1339     370.1941      2.531     7.15     1213.922     65.27221     170.6615        18     1.806     0.794 -33.88   0
       315    376.4916    107.2167 307.7730117  +6.6258048     1369.883     4242.788     6310.286     92.53012     184.9866     370.1941      3.211    10.97     1208.608     65.27221     168.4233        41     2.131     1.832 -40.15   0
       316    338.2070    103.5009 307.7890758  +6.6260946     720.3864     1129.699     2442.669     92.53012     184.7653     370.0836      1.568     3.75     1214.553     65.27221     99.32715         5     1.033     0.390 -83.45   1
       317    987.2674     98.8552 307.5190072  +6.6490837     751.3435     1633.754     2390.704     92.82433     185.0602      370.231      2.521     4.59     1193.944     65.27221     108.8917         6     0.978     0.611  24.76   0
       318    193.8124     96.1039 307.8494388  +6.6244467     2054.344     4720.405     6769.796     92.67735     184.9128     370.0468      2.775     8.90      1224.01     65.27221     237.1008        45     2.511     1.585 -38.34   2
       319    192.1497     93.3908 307.8502229  +6.6255144     1438.622      3144.53     4381.272     92.23497     185.0602     369.9362      2.974     6.07     1224.048     65.27221     185.5282        16     1.445     1.143  31.73   3
       320    655.1818     94.8406 307.6574042  +6.6399830     1982.771     4162.676     6099.589     92.38266     184.9866     370.0468      2.738     8.62     1198.738     65.27221     223.7015        29     2.362     0.884 -34.61   3
       321    653.7922     91.9983 307.6580786  +6.6411133     2052.253     4711.741     6554.749     92.08704     184.8391     370.0468      2.680     6.89     1198.592     65.27221     223.2755        33     2.076     1.299 -30.71   3
       322     76.8198     96.1764 307.8981401  +6.6205979     698.4551     1561.335     2490.744     92.53012     184.9866      370.231      2.502     3.94     1227.277     65.27221     108.7749         5     0.955     0.465 -44.90   0
       323    606.8421     91.3311 307.6776481  +6.6398647     3375.654     9749.571     12284.63     92.67735     185.1339      370.415      2.811     8.02     1199.023     65.27221     404.2781        53     2.176     1.820  -3.41   3
       324    610.1206     82.3520 307.6765861  +6.6436843     18341.24     57719.22     83813.28     92.82433     185.2811      370.231      3.176     7.75     1198.726     65.27221      1992.49       135     2.850     2.198 -45.77   2
       325    335.9116     87.6248 307.7905686  +6.6325851     1263.446     3243.893      6387.02     92.97109     184.9866     370.1573      4.190    10.95     1215.368     65.27221     156.0453        23     2.004     1.668 -66.36   2
       326    291.0269     76.8232 307.8096205  +6.6355894     1291.602     3653.223      6472.23     92.23497     185.0602     370.1941      3.770    10.66     1221.128     65.27221     155.6106        29     2.428     1.305 -41.02   2
       327    675.5588     66.7127 307.6498692  +6.6522764     1192.141     3196.478     3815.473     92.82433     185.2075     370.3414      2.840     8.86     1196.874     65.27221     138.6384        20     2.085     1.051 -31.45   2
       328    417.1147     58.3595 307.7577518  +6.6473311     1518.249      3832.15     6108.076     92.82433     185.1339     370.2678      3.321     8.34     1205.544     65.27221     176.9995        34     2.179     1.357 -28.23   2
       329    888.3082     52.6288 307.5617646  +6.6649978     1850.803     4884.322     5948.877     92.97109     184.9128     370.1941      2.720     7.76      1192.35     65.27221     180.0571        41     1.966     1.615 -24.03   0
       330    871.1717     53.7536 307.5688617  +6.6639776     858.5085     2019.311     2318.964     92.38266     185.2811     370.1941      2.460     7.52     1192.509     65.27221     130.6439        12     1.477     1.071  51.85   0
       331    380.0374     50.5851 307.7734512  +6.6493390     693.0515     1791.902     2634.801     92.38266     184.9866     370.0468      3.316     7.11     1210.626     65.27221     121.1233        10     1.678     0.845 -19.75   0
       332    128.2174     47.5528 307.8783924  +6.6423830     1262.184     3381.522     5134.575     92.23497     185.1339     370.0468      3.300     9.24     1225.104     65.27221      171.504        27     2.304     1.365 -44.93   2
       333      9.6583     44.2641 307.9278612  +6.6398700     4657.848     14149.29     19956.37     92.97109     185.1339     370.3414      3.124     7.47      1230.11     65.27221     619.2177        80     2.486     1.977 -38.33  16
       334    811.0334     38.2296 307.5944237  +6.6684491     2316.234     6904.416      9230.52     92.23497     184.9128     370.0099      2.955     7.72     1192.057     65.27221     297.4227        56     2.277     1.741 -37.72   0
       335    755.9696     39.2496 307.6173158  +6.6662421     1227.968     3267.237     4342.323     92.38266     185.2811     370.1941      2.788     9.57     1194.067     65.27221     150.2013        22     1.939     1.319  -1.21   2
       336     50.1192     36.1109 307.9112938  +6.6445637     1240.108     3513.219     4388.459     92.53012     185.4282      370.415      2.935     8.58     1227.801     65.27221     201.6388        30     1.946     1.815   6.71   0
       337    751.5538     26.4496 307.6195858  +6.6713923     855.3326     2077.525     2705.678     92.82433     185.0602     370.3414      2.987     5.06     1193.401     65.27221     118.9366         7     1.006     0.719 -15.04   0
       338    219.2845   1020.8947 307.8075274  +6.2428483     887.3057     1873.043     1890.696     92.67735     183.9519     326.4759      2.141     5.97       1254.6     65.27221     110.8937        10     1.016     0.986  29.20  16
       339    407.1792     21.3579 307.7631396  +6.6623089     848.2189     1996.908     3020.938     92.23497     184.9866     370.1205      2.939     5.18     1209.944     65.27221     116.1288         7     1.128     0.674  35.40   0
       340    784.2995   1012.0089 307.5727712  +6.2648776      9399.56     19425.34      22198.9     92.53012     184.7653     370.1205      2.267     4.98     1252.538     65.27221     1135.304        61     2.118     1.393 -42.03  16
       341     55.2906   1012.9182 307.8760175  +6.2408000     4581.747     10573.05     12309.37     92.53012     185.5017      370.415      2.463     5.70     1251.008     65.27221     507.6199        52     2.037     1.498 -33.57  16
       342    567.8643   1002.9694 307.6631194  +6.2615971     90990.89     208946.6       257345     92.53012     185.2811      370.231      2.516     5.52     1253.857     65.27221     9766.795       136     2.410     1.776 -38.86   3
       343    569.5821    995.7218 307.6626490  +6.2646501     42982.46     95249.12     111788.2     92.23497     184.8391      370.231      2.354     5.41     1253.545     65.27221     4385.033        81     2.108     1.576 -24.28   3
       344    202.0493   1005.8769 307.8152052  +6.2484971     2032.518     5082.909     5723.132     92.67735     185.2811     370.3046      2.488     6.66     1253.681     65.27221     227.1046        39     1.831     1.489 -32.57   0
       345    778.7759    999.7491 307.5754817  +6.2697686     4272.818     8984.123      10458.2     92.38266     185.2075     370.1941      2.258     5.32     1252.087     65.27221     493.3445        45     1.981     1.305 -34.79   0
       346    876.3508    996.5087 307.5349954  +6.2742681     1007.149     2065.854     2353.171     92.82433     185.0602     370.4886      2.440     6.82      1251.16     65.27221     138.0105        15     1.641     0.795 -26.38   0
