#   1 NUMBER                 Running object number                                     
#   2 X_IMAGE                Object position along x                                    [pixel]
#   3 Y_IMAGE                Object position along y                                    [pixel]
#   4 ALPHA_J2000            Right ascension of barycenter (J2000)                      [deg]
#   5 DELTA_J2000            Declination of barycenter (J2000)                          [deg]
#   6 FLUX_APER              Flux vector within fixed circular aperture(s)              [count]
#   9 FLUXERR_APER           RMS error vector for aperture flux(es)                     [count]
#  12 FLUX_RADIUS            Fraction-of-light radii                                    [pixel]
#  13 FWHM_IMAGE             FWHM assuming a gaussian core                              [pixel]
#  14 BACKGROUND             Background at centroid position                            [count]
#  15 THRESHOLD              Detection threshold above background                       [count]
#  16 FLUX_MAX               Peak flux above background                                 [count]
#  17 ISOAREA_IMAGE          Isophotal area above Analysis threshold                    [pixel**2]
#  18 A_IMAGE                Profile RMS along major axis                               [pixel]
#  19 B_IMAGE                Profile RMS along minor axis                               [pixel]
#  20 THETA_IMAGE            Position angle (CCW/x)                                     [deg]
#  21 FLAGS                  Extraction flags                                          
         1    920.9578     14.9085 307.5489589  +6.6904300     996.5331     1417.601     1976.556     77.73412     155.0988     310.1976      1.513     5.36     814.8513     54.66107     162.2845        13     1.373     0.820 -34.51   0
         2    672.3879     14.3946 307.6522421  +6.6823802     2072.908     2929.593     2936.378     77.36426      154.852     310.0126      1.461     3.43     815.7085     54.66107     342.7274        18     1.292     0.817 -49.15   0
         3    183.5428     10.2490 307.8554589  +6.6677807     764.4203     1076.905     1096.663     77.73412     155.0988     310.2285      1.637     4.60     821.9615     54.66107     127.6606         8     1.268     0.474 -47.02   0
         4    238.5553      9.4667 307.8326325  +6.6699434      901.187     1068.147     1476.346     77.73412     155.0372      310.136      1.339     4.68     822.8052     54.66107     159.4427         9     1.208     0.593 -27.66   0
         5    160.6055      7.3621 307.8650846  +6.6682051     11534.15     17046.48      17341.9     76.86832      154.852     304.9441      1.572     3.79     821.5768     54.66107     1777.462        36     1.550     0.940 -40.55  16
         6    906.2610      4.9572 307.5553978  +6.6940505      4214.79     6124.228     6750.804     77.73412     155.0988     283.4291      1.521     3.69     814.5309     54.66107     628.0708        23     1.479     0.816 -46.98  16
         7    504.8699      5.4823 307.7221339  +6.6804795     3213.846      4384.09     4683.555     77.97973     155.3452       289.14      1.492     3.64     815.8942     54.66107     495.0557        22     1.419     0.828 -40.69  16
         8    707.2517      3.5647 307.6381218  +6.6880114     2222.741     3121.505     3570.132     77.61103      149.895     266.2797      1.508     3.45     815.4131     54.66107     348.0205        18     1.351     0.756 -44.64  24
         9    443.1522      4.0403 307.7478217  +6.6790165      1970.76     2990.158     2781.229     77.61103      153.363     272.4206      1.558     3.61     819.0062     54.66107      341.204        19     1.383     0.844 -42.46  16
        10    970.6142      1.8764 307.5287654  +6.6974582     1723.566     2381.565     2498.932     73.43324     131.0407      241.817      1.421     4.03     812.6217     54.66107     307.8848        13     1.290     0.642 -23.60  24
        11    765.0596      1.5517 307.6141735  +6.6907651     365.7472     465.4008     591.1443     70.23895     126.4362     236.7828      1.244     3.45     815.0972     54.66107     85.12366         5     1.470     0.234 -17.61  24
        12    223.2054   1003.5303 307.8055258  +6.2590365     1316.148     1860.563     1709.419     77.24057     154.7285      309.951      1.567     3.77     848.2464     54.66107     186.3388        15     1.276     0.750 -30.68   0
        13    775.4042   1021.6563 307.5757038  +6.2699500     6022.378     10289.31     11007.86     77.11668     147.7104     263.1736      1.833     3.86     848.8807     54.66107     741.1472        38     1.609     1.196 -39.59  24
        14    565.0372   1023.4909 307.6629652  +6.2621959     85363.77     100378.6     102394.3     69.82939     125.7537     236.1763      1.146     2.96     850.6199     54.66107     17785.13        29     1.306     0.671  -5.56  27
        15    566.2292   1017.5950 307.6626681  +6.2646697     70297.67     115743.6     123972.4     77.24057     154.9138     305.3828      1.774     3.90     850.4681     54.66107     8864.049        89     1.798     1.266 -42.02  19
        16    422.0192   1002.6295 307.7230312  +6.2660436     904.9278     1380.809     1103.246     77.36425     154.9138     310.0435      1.598     5.15     849.5511     54.66107     137.0557        12     1.236     0.843 -50.49   0
        17    714.1890   1000.9669 307.6018072  +6.2764573     1059.851     1601.967     1407.362     77.24057      154.852      309.951      1.576     4.91     848.9847     54.66107     131.4024         9     1.039     0.656 -57.11   0
        18    345.4240    999.1605 307.7549417  +6.2649210     1933.998     3000.507      3355.25     77.36425      154.852     309.8893      1.767     4.04     848.4835     54.66107     291.1667        20     1.443     0.884 -35.57   0
        19    193.2036    997.6370 307.8181774  +6.2604672     524.3621     744.1084     569.2469     76.86832     154.9138     309.9201      1.512     4.43     846.8356     54.66107     84.83069         6     1.170     0.477 -46.83   0
        20    956.6947    995.7549 307.5013144  +6.2866617     569.8608     813.0201     681.7067     77.61103     155.0372     310.2285      1.775     4.47     843.7279     54.66107     93.70587         5     1.170     0.486 -57.56   0
        21    596.2162    993.6345 307.6510241  +6.2755602     536.8019     929.8552     783.4358     77.36425      154.852      309.951      1.641     4.79     849.6457     54.66107     82.08606         7     1.045     0.622  50.06   0
        22    277.7437    987.9933 307.7834106  +6.2672724     14973.89     23695.02     26222.59     77.24057     154.9755     309.8275      1.726     3.96     847.8853     54.66107       2067.5        54     1.927     1.072 -39.74   0
        23    732.0848    988.7331 307.5947882  +6.2821031     7571.332     12518.78     12828.22     77.85703     155.3452      310.136      1.754     3.86     848.6611     54.66107     999.0314        41     1.583     1.172 -43.35   0
        24    527.5228    989.3391 307.6796831  +6.2750464     4282.375     6778.772     7655.166     77.85703     155.1604     310.0743      1.752     3.94     849.7022     54.66107     551.5522        29     1.514     0.993 -47.75   0
        25    498.0917    990.4343 307.6918632  +6.2736138     1015.727     1650.559     1507.777     77.85703     154.9755     310.1668      1.703     4.02     849.7405     54.66107     136.2418        11     1.084     0.698 -24.92   0
        26    793.6856    987.9149 307.5692443  +6.2844879     1028.952     1616.488     1934.522     77.48774     155.2221     310.1668      1.807     5.67     847.6001     54.66107     141.3005        13     1.223     0.820 -31.07   0
        27    402.1290    988.5573 307.7317602  +6.2711901      1054.35     1597.041     1666.336     77.61103     155.0988     310.1668      1.646     5.11     848.9581     54.66107     133.4573        11     1.164     0.747 -31.48   0
        28    248.9101    985.5537 307.7954612  +6.2673167     911.0613     1596.648     1765.174     77.73412     154.9755     310.2285      1.710     5.88     847.7273     54.66107     151.9935        11     1.243     0.783 -59.42   0
        29    893.3255    982.2299 307.5280722  +6.2901434     7839.299     13840.86        14676     77.61103     155.0988     310.1051      1.892     4.13     845.8854     54.66107      1028.53        45     1.754     1.209 -41.86   0
        30    524.6936    981.5275 307.6811196  +6.2781772     8568.064     13336.78     14181.18     77.61103     155.2221     310.1668      1.695     3.87     849.5092     54.66107     1116.808        35     1.602     1.014 -38.67   0
        31    866.9686    978.3716 307.5391425  +6.2908615     11195.27      20063.4     22425.17     77.24057      154.852     309.8893      1.921     4.17     846.5534     54.66107     1404.011        54     1.790     1.274 -41.18   0
        32    579.9012    978.8356 307.6582929  +6.2811269     1325.636     2211.863     2690.102     77.73412     154.9755     310.2901      1.986     5.61     849.2734     54.66107     219.5656        18     1.611     0.793 -50.25   0
        33    988.7357    977.7502 307.4886150  +6.2951578     4195.631     7833.313     7910.833     77.61103     155.0372      310.136      2.004     4.54     842.0178     54.66107     472.2128        39     1.751     1.251 -46.71   0
        34    510.9636    977.3625 307.6869588  +6.2794394     3934.368     6540.654     7113.496     77.48774     154.9755     309.9201      1.802     3.77     849.3958     54.66107     568.8617        34     1.596     1.223 -53.37   0
        35    621.0931    976.5693 307.6412697  +6.2834336     1400.362     2062.627      1685.16     77.85703     154.9138     310.1051      1.605     4.66     848.9709     54.66107     205.1688        17     1.384     0.922 -43.02   0
        36     46.2645    976.1136 307.8798939  +6.2644393     724.4869     1089.546      1420.61     77.85703     155.2836     310.1051      1.722     5.48      843.986     54.66107     104.4189        11     1.162     0.791 -55.94   0
        37    464.1180    973.9520 307.7065191  +6.2792865     2182.679     3550.544     3170.114     77.73412     155.0988      310.136      1.681     4.27     849.2267     54.66107     338.8762        22     1.524     0.861 -37.22   0
        38    898.7395    965.8936 307.5263709  +6.2970677     39499.94     68547.56     72846.33     77.61103     155.0372      310.136      1.856     4.01     845.3079     54.66107     4631.682        73     1.737     1.322 -41.10   0
        39    304.0594    968.0390 307.7731583  +6.2763890     616.1737     894.1521      688.637     77.73412     155.1604     310.1976      1.560     5.08     847.5688     54.66107     111.8707         6     1.051     0.695 -14.60   0
        40    206.1282    964.3654 307.8139326  +6.2746351     1730.572      2722.22      2962.81     77.61103     155.0372     310.1051      1.641     4.40     846.1646     54.66107     230.4114        19     1.348     0.926 -30.27   0
        41     93.7100    963.2041 307.8606353  +6.2713563     855.6649     1268.002     886.4707     77.24057     154.7903     309.8584      1.561     5.79     843.7995     54.66107      124.696        11     1.251     0.754 -56.95   0
        42    605.3005    962.4364 307.6482993  +6.2887429      717.469     1101.113      643.348     77.73412     154.9755     310.2901      1.612     3.98     848.7072     54.66107     122.2993         7     0.879     0.817 -19.88   0
        43    796.9584    959.5178 307.5688360  +6.2963206     2232.778     3668.115     3708.115     77.73412     155.0988     310.0435      1.760     4.22     846.7657     54.66107     289.2047        23     1.485     0.971 -42.13   0
        44    744.9193    957.5206 307.5905056  +6.2954161     6438.395     10539.19     11471.71     77.97973     155.3452     310.2593      1.757     3.85     847.6764     54.66107     809.4119        35     1.583     1.085 -50.66   0
        45    531.5995    957.3293 307.6790649  +6.2883975     889.9835     1252.757     1410.453     77.24057     154.6049     309.9201      1.413     2.61     848.7868     54.66107     162.7979         7     0.784     0.660 -12.27   0
        46    214.1499    956.7455 307.8108594  +6.2780489     1463.258      2396.75     2234.134     77.73412     155.0988      310.136      1.627     4.39     846.1732     54.66107     214.8865        16     1.413     0.801 -31.90   0
        47    178.7548    956.3801 307.8255640  +6.2770170     906.9554     1362.817     1544.684     77.36425     154.9755      309.951      1.785     3.00     845.0396     54.66107     166.4116         9     0.889     0.845  49.19   0
        48    933.0490    952.5699 307.5125734  +6.3037069     5963.477     10670.85      11412.4     77.36425     155.1604     310.0126      1.901     4.08     844.1264     54.66107     742.1158        40     1.691     1.205 -34.73   0
        49     39.2133    954.7243 307.8835419  +6.2730337     2769.973     4422.653       4759.3     77.24057      154.852     309.9201      1.708     4.11     843.5721     54.66107     367.1389        22     1.407     0.964 -38.91   0
        50    906.7103    944.3013 307.5237839  +6.3062468     1907.587     3097.952     3236.242     77.73412     155.5297     310.0743      1.724     4.50     844.6045     54.66107     258.2542        24     1.511     1.027 -35.56   0
        51    627.6276    940.3184 307.6397724  +6.2986175     4521.128     6939.852     7313.633     77.61103     154.9138     310.0435      1.669     3.96     847.8581     54.66107     624.6488        29     1.477     1.020 -43.43   0
        52    239.7401    940.5497 307.8007820  +6.2855902     4453.243     6784.741     7148.688     77.73412     155.0372      310.136      1.644     4.02     846.1532     54.66107     599.7178        27     1.474     0.942 -42.07   0
        53    977.1349    939.8268 307.4946977  +6.3104303     784.2592     1195.246     1526.013     77.36425     155.0372     310.0126      1.624     6.09     842.0092     54.66107      102.858        10     1.170     0.891  82.44   0
        54    766.5817    940.6331 307.5820783  +6.3031081     1208.982     1855.513     1954.274     77.24057     154.9138      309.951      1.598     5.88     846.8015     54.66107     135.5049        13     1.326     0.734 -38.72   0
        55    449.7158    938.6310 307.7136837  +6.2933888      1264.35     1896.419     1611.129     77.73412     154.9138     309.9818      1.643     4.24      848.272     54.66107     160.5262        13     1.169     0.764 -47.79   0
        56      8.5903    937.9240 307.8968197  +6.2789445     2000.699     3401.966       3260.9     77.36425     154.6667     309.9201      1.766     4.85     843.2368     54.66107     266.9324        21     1.618     0.844 -31.16  16
        57    859.2380    936.7576 307.5437435  +6.3077857     710.3292     1132.703     723.2397     77.48774     155.0988     309.9818      1.544     2.77     845.3037     54.66107     126.4926         6     0.752     0.529 -38.91   0
        58    930.7332    933.9993 307.5141555  +6.3112972     755.6835      1102.18      738.271     76.99261     154.6667     309.8584      1.542     4.84      843.905     54.66107     102.3821         9     1.076     0.617 -34.96   0
        59    552.0816    932.8502 307.6713838  +6.2991860     1671.338     2612.905     2819.208     77.73412     155.1604      310.136      1.718     4.32     847.9988     54.66107     260.4744        19     1.442     0.914 -45.22   0
        60    275.7693    934.0168 307.7860460  +6.2894905     719.8952     1331.155     1483.683     77.36425      154.852     310.0435      1.986     4.83     846.5808     54.66107     134.6325         8     1.162     0.569 -46.01   0
        61    984.1981    931.2351 307.4920525  +6.3142117     653.8329     1471.542     2031.899     76.86832     154.9138     309.9201      2.464     5.64     841.5789     54.66107     98.09186         8     1.358     0.659 -29.96   0
        62     41.2444    929.9340 307.8835348  +6.2833361     747.7885     1263.579      1370.97     77.73412     155.0372      310.136      1.737     5.97      843.095     54.66107     115.0408        10     1.655     0.607 -35.84   0
        63    591.5489    929.0005 307.6551291  +6.3020894     1340.535     1692.522     1467.966     76.99261     154.6667     309.6732      1.445     3.84     847.8011     54.66107     203.0795        14     1.279     0.687 -51.91   0
        64    271.2877    927.1924 307.7881359  +6.2921583     1473.642     2121.453     2796.424     77.24057     154.7903     309.8584      1.556     4.40     846.3359     54.66107     236.5867        14     1.367     0.717 -44.06   0
        65    539.2838    925.1881 307.6769535  +6.3019231     650.5631     1014.802     567.5005     77.36425     154.9138      309.951      1.534     4.69     847.8293     54.66107     93.08264         7     1.328     0.470 -64.94   0
        66    738.9930    923.0037 307.5941216  +6.3094697     928.3282     1338.454     1124.691     77.11668     154.7903     309.9818      1.459     2.93     846.8917     54.66107     155.0125         8     0.794     0.677 -38.85   0
        67    875.8162    919.4774 307.5374392  +6.3154704     6588.887     10678.83     11379.91     77.36425     154.7903     309.9818      1.756     3.73     844.6113     54.66107     877.3049        39     1.601     1.111 -40.13   0
        68    113.9930    920.9941 307.8536384  +6.2894607     480.7397     647.3109     985.6232     77.11668     154.9138      309.951      1.480     3.69     843.0338     54.66107     70.25299         5     0.993     0.394 -60.56   0
        69    411.7101    916.7177 307.7301966  +6.3011687     2196.375     3425.839     3702.609     77.48774     155.3452     310.1668      1.661     3.62     847.2852     54.66107     309.4099        23     1.422     0.935 -37.14   0
        70    313.2456    915.1474 307.7711238  +6.2985319     9950.932     14990.84     16506.33     77.73412     155.0988     310.1668      1.616     3.76     846.4954     54.66107     1400.659        36     1.566     0.994 -43.03   0
        71    581.0591    916.4150 307.6599058  +6.3069362     558.2634     905.9128     691.6396     77.11668     155.0988     309.8584      1.657     4.24     847.5479     54.66107     92.51733         6     0.799     0.642 -46.55   0
        72    233.4090    914.0920 307.8043006  +6.2963017     7182.053     11035.25     11295.79     77.36425     154.7903     309.8893      1.636     3.74     845.4359     54.66107     1042.718        32     1.565     0.957 -39.00   0
        73    561.5355    908.6696 307.6682704  +6.3094839     1113.239     1576.147     994.9516     77.73412     155.1604      310.136      1.414     4.03     847.3893     54.66107     163.1699        12     1.150     0.699 -41.66   0
        74    746.3475    908.4060 307.5915573  +6.3157410     772.5203     828.1364     842.0889     77.24057     154.9138     309.7658      1.397     4.86     846.4852     54.66107     96.84271         8     0.999     0.671  -5.02   0
        75    891.6777    904.3702 307.5313596  +6.3222340     1026.758     1920.989      2219.43     77.61103     155.1604     310.1051      2.045     4.82     843.9762     54.66107     140.8093        13     1.311     0.730 -20.54   0
        76    847.5297    903.6371 307.5497119  +6.3210712     685.9878     1159.183     1132.549     77.61103     155.1604     310.1668      1.899     5.50     844.8503     54.66107      116.717         9     1.721     0.495 -31.98   0
        77    958.9995    900.2587 307.5035485  +6.3261651     619.7098     1250.312     2203.779     76.99261     154.7903     309.7967      2.466     4.51     842.0031     54.66107     100.5847         5     0.992     0.584 -69.80   0
        78    820.9783    898.0845 307.5609204  +6.3224819     587.4778     943.2301     891.8453     77.48774     154.7903     310.0435      1.662     6.55     845.1136     54.66107     115.4989         9     1.548     0.777 -63.43   0
        79    728.1111    897.6721 307.5994875  +6.3195664     1560.886     2406.442     2446.204     77.73412     155.3452      310.136      1.632     4.70     846.5032     54.66107     197.2158        17     1.339     0.885 -40.13   0
        80    551.4828    898.4631 307.6727861  +6.3133630     692.0372     894.7906     817.5671     77.85703     155.0988     310.1051      1.442     3.70     847.1091     54.66107     102.6318         6     0.965     0.407 -70.67   0
        81    959.4085    893.1474 307.5036164  +6.3291147      1137.24     1926.617     2502.726     77.24057     154.9755     309.8275      1.788     4.68     841.8535     54.66107     163.1893        14     1.304     0.856 -68.66   0
        82    592.2534    893.9944 307.6560107  +6.3165654     689.3677     883.1269     785.9373     77.24057      154.852     309.8275      1.416     4.78       847.11     54.66107     98.84564         8     1.007     0.643 -24.34   0
        83    512.9465    893.5507 307.6889486  +6.3141075      1297.85     1911.213     2185.905     77.85703     155.0988      310.136      1.704     4.29     847.0079     54.66107     202.7535        14     1.252     0.803 -54.65   0
        84    646.4398    891.1489 307.6336112  +6.3195434     2671.724     4038.892       4055.1     77.73412     155.0988     310.1051      1.578     3.56     846.8989     54.66107     416.2819        22     1.418     0.939 -37.02   0
        85    807.8314    887.3751 307.5667367  +6.3264667     900.5459     1243.379     1261.705     77.24057     154.9755     309.9201      1.567     5.60     845.1192     54.66107     134.5917        12     1.218     0.751 -63.22   0
        86     42.9992    887.1822 307.8842480  +6.3010445     2850.801     4432.277     4362.604     77.36425     154.6667     309.7967      1.621     3.92      841.829     54.66107     415.6283        23     1.399     0.973 -39.89   0
        87    186.5139    886.2192 307.8247057  +6.3062419     2298.737     3435.365     3110.586     77.36425      154.852     310.0126      1.587     3.57     843.6381     54.66107     368.1069        20     1.390     0.874 -40.97   0
        88     60.6191    886.5031 307.8769568  +6.3019145     2017.448     2965.712     2953.072     77.61103     154.9755     309.8893      1.650     4.57      841.829     54.66107     300.7909        22     1.528     1.030  -9.69   0
        89    924.5477    886.2476 307.5183195  +6.3308070     707.9828     1121.484     909.2711     77.85703     155.0372      310.136      1.726     3.99     842.6011     54.66107     104.5553         8     0.850     0.756  22.48   0
        90    640.9634    880.2475 307.6362501  +6.3238619     6921.708     10477.79     11286.53     77.48774     155.0988     310.0435      1.590     3.76     846.7871     54.66107     1003.137        31     1.500     0.971 -39.94   0
        91    220.7295    882.6129 307.8106236  +6.3088741     854.5764     1374.302     1385.881     77.24057      154.852     309.9818      1.594     5.14     844.8005     54.66107     124.5935         9     1.138     0.678 -50.09   0
        92    325.5116    881.8748 307.7671509  +6.3126779     895.7357     1331.926      1769.34     77.73412     155.4067     310.1976      1.737     4.29     845.8344     54.66107     146.6046         7     1.115     0.469 -42.10   0
        93    778.4883    881.0023 307.5791318  +6.3281230     733.7811     1166.295     841.9946     77.11668     154.7285     309.8584      1.626     6.01     845.4817     54.66107     94.07727        11     1.387     0.732 -31.31   0
        94      1.5442    878.1348 307.9017614  +6.3033919     931.2434     1357.166      1478.46     70.23895     126.2848     236.6616      1.294     3.78     841.5619     54.66107     175.0159         8     1.088     0.520 -69.08  24
        95    878.8429    876.3397 307.5376253  +6.3333808     2653.103     4142.557     3698.043     77.73412     155.0988     310.2285      1.666     4.40     843.8033     54.66107     365.3879        24     1.465     0.962 -35.24   0
        96     14.2309    876.9481 307.8965351  +6.3043066     1152.215     1653.156     2129.839     77.61103     155.2221     310.0435      1.521     4.64     841.5322     54.66107     156.1899        13     1.162     0.853 -42.71   0
        97    323.9830    873.3323 307.7680728  +6.3161536     17160.91     25750.46     26969.94     77.24057     155.0372     310.0126      1.565     3.69     845.6777     54.66107      2363.08        42     1.550     0.998 -39.41   0
        98     58.9964    874.4618 307.8780364  +6.3068314     1296.838     2015.931     1883.772     77.11668     154.9138     309.8275      1.621     5.13     841.4431     54.66107     201.5087        14     1.314     0.759 -31.71   0
        99    374.7317    872.5236 307.7470326  +6.3181809     719.4158     910.9787     1218.296     77.85703     155.2221     310.0743      1.485     4.51      845.658     54.66107     126.8754         7     1.241     0.466 -38.69   0
       100    194.8600    872.7405 307.8216950  +6.3120855     1544.751      2026.32     2274.761     77.73412     155.0988      310.136      1.458     4.08     843.6965     54.66107     253.1871        14     1.269     0.790 -39.62   0
       101     87.3225    864.0670 307.8666282  +6.3120706     1794.733     2755.299     2828.398     77.85703     155.1604     310.0743      1.572     4.32     841.1615     54.66107     257.8011        20     1.541     0.835 -55.33   0
       102    653.5690    864.9201 307.6315308  +6.3306094     635.7912     1207.458     871.4798     77.61103     155.0372     310.0743      1.833     6.03     846.5803     54.66107     90.67706         8     1.692     0.604 -32.32   0
       103    402.0175    863.9768 307.7359925  +6.3226196     985.0531       1339.3     929.5705     77.36425     154.9138     310.0435      1.349     2.81     845.7046     54.66107     191.0217         7     0.867     0.516 -47.88   0
       104    482.4243    861.1608 307.7027070  +6.3264628     676.2933     816.3488     1020.986     77.36425     154.9138     309.8893      1.522     5.55     845.8444     54.66107     101.0779        10     1.474     0.590 -42.44   0
       105    655.8323    859.8660 307.6307605  +6.3327713     941.2006     1422.156     1456.896     77.61103     155.1604     310.0743      1.679     5.01     846.3745     54.66107      125.942         9     1.038     0.685 -52.13   0
       106    869.2231    857.9921 307.5422327  +6.3406365     1993.446     3078.247     3252.406     77.36425     154.9138      309.951      1.618     3.81     843.7881     54.66107     246.5782        21     1.350     0.933 -44.65   0
       107     70.8190    857.6660 307.8736949  +6.3141610     2423.818     3698.631     3935.728     77.36425     155.0988     310.0126      1.676     4.25     841.0504     54.66107     318.9703        22     1.476     0.935 -38.15   0
       108    839.9104    857.5227 307.5544179  +6.3398571     2031.445     3011.738     2588.164     77.61103     155.3452     310.1668      1.598     4.25     844.2495     54.66107     262.9453        20     1.464     0.867 -31.81   0
       109    803.3153    857.1436 307.5696234  +6.3387982     3076.476     4714.637     5112.768     77.73412     155.0988     310.2285      1.616     3.60     844.7065     54.66107     437.7563        24     1.375     0.960 -37.15   0
       110    539.1035    848.5405 307.6796005  +6.3335615     350973.8     516926.1     539865.1     77.48774     155.0988     310.1976      1.572     4.13     845.5273     54.66107     51471.12       163     1.704     1.181 -40.80   4
       111    433.6524    855.8069 307.7231341  +6.3270475     598.5789      829.436     1254.184     77.24057     154.9138     309.7967      1.625     4.22     845.6545     54.66107     82.08295         6     1.091     0.465 -83.99   0
       112    319.1155    855.4193 307.7706958  +6.3233866     742.2659     1122.508     1574.756     77.36425     154.7903     310.0743      1.782     4.77     845.4357     54.66107     110.7332         8     1.144     0.565 -54.48   0
       113    383.2835    851.1728 307.7442000  +6.3272809     7983.985     11808.55     12035.76     77.61103      154.852     310.0435      1.584     3.88     845.2885     54.66107     1227.256        32     1.564     0.922 -38.41   0
       114    627.1840    851.6967 307.6429278  +6.3351909     1292.274     1858.525     1303.967     77.61103      154.852      309.951      1.503     3.96      846.209     54.66107     179.6893        12     1.131     0.747 -51.06   0
       115    326.5069    849.5471 307.7678249  +6.3260576     13576.46      19854.4     20574.44     77.61103     155.0372     310.3209      1.592     3.88     845.3066     54.66107     2023.499        39     1.572     0.948 -41.41   0
       116    877.1858    844.7123 307.5393711  +6.3463836     4918.675     8213.066     9794.394     77.48774     154.9138     309.9818      1.890     3.90     843.1808     54.66107     675.0497        39     1.750     1.203 -22.67   0
       117    644.9727    845.8098 307.6357402  +6.3382133     3658.106     5276.367     5064.758     77.36425     154.9138     309.9818      1.508     3.67     845.8875     54.66107     495.8472        21     1.380     0.839 -44.17   0
       118    717.0970    842.4760 307.6059089  +6.3419885     772.1995     960.6625     203.1956     77.36425     155.2836      310.136      1.310     4.34     845.3452     54.66107     118.9167         8     0.917     0.651 -54.16   0
       119    619.8148    839.7682 307.6463872  +6.3398704     3533.916      5518.68     5582.347     77.36425      154.852     310.0435      1.603     3.54     845.8979     54.66107     583.7985        26     1.450     1.003 -42.37   0
       120   1010.8871    838.8411 307.4840587  +6.3532428     4333.883     7293.246     7770.047     77.73412     155.0988      310.136      1.748     3.94     839.5463     54.66107     551.3306        31     1.557     1.100 -39.30   0
       121    808.5225    838.7636 307.5680767  +6.3465595     1592.798     2473.651     2709.374     77.61103     155.1604     310.1051      1.705     3.29      844.272     54.66107     219.6116        14     1.176     0.727 -52.04   0
       122    163.2091    839.2043 307.8359636  +6.3248728     490.8929     794.1417     1023.942     77.11668     154.7903      309.951      1.556     3.80     841.6835     54.66107     69.61096         5     1.214     0.342 -79.10   0
       123    935.0270    837.3906 307.5156021  +6.3513259     728.9191     1355.314      1694.38     77.36425     154.9138     309.9818      2.180     6.85     841.2664     54.66107     102.1874        12     1.503     0.875 -38.54   0
       124    610.4827    838.5309 307.6503029  +6.3400706     1015.541      1638.23      1886.29     77.97973     155.3452      310.136      1.733     3.50     845.9651     54.66107     153.3897         9     1.021     0.623 -42.84   3
       125    612.8119    834.2165 307.6494806  +6.3419294     2269.395     3608.738     4073.893     77.61103     154.7903     310.0126      1.652     4.27     845.8016     54.66107     321.6546        25     1.624     0.900 -45.05   2
       126    896.2989    832.4642 307.5318456  +6.3520748     3380.669     5194.231     5039.987     77.73412     155.1604      310.136      1.656     3.84     842.3002     54.66107     426.4045        27     1.452     1.010 -38.77   0
       127    306.4336    833.2861 307.7767050  +6.3321009      1155.28     1645.687     1034.094     77.73412     154.9755     310.1051      1.581     4.75     845.1803     54.66107      164.231        13     1.401     0.629 -47.38   0
       128    354.3997    828.5244 307.7569523  +6.3356677     2666.523     3901.573     3928.847     76.99261     154.4811     309.8893      1.534     3.84     844.9526     54.66107     421.2101        19     1.367     0.797 -44.30   0
       129    323.7489    820.4077 307.7699498  +6.3379957     554.8171     653.8889     307.3469     77.24057     154.9138     309.7967      1.163     4.71     844.9349     54.66107     105.1559         6     0.986     0.637  71.59   0
       130    490.6725    818.1826 307.7007258  +6.3444815     3179.682     4580.775      4601.73     77.24057     155.0372     310.0126      1.555     3.90     844.9024     54.66107      514.542        21     1.383     0.870 -44.49   0
       131    835.5200    817.1382 307.5575919  +6.3563845     955.6438      1412.41     1603.849     77.85703     155.1604     310.1051      1.743     4.68      843.329     54.66107      150.927         9     1.254     0.528 -61.25   0
       132    556.2816    816.2013 307.6735541  +6.3474851     660.2469     1244.943     1959.141     76.99261     154.6667     309.8584      1.886     5.37     844.2437     54.66107     120.5975         9     1.476     0.558 -61.16   0
       133    537.5298    814.3094 307.6814026  +6.3476416      6418.58     9359.682     10402.63     77.61103     155.2836     310.1051      1.581     3.65     844.0314     54.66107      1008.46        30     1.489     0.921 -44.19   0
       134    544.5445    813.8313 307.6785064  +6.3480726     1371.115     2174.234     3230.803     77.61103     155.1604     310.0743      1.762     3.97     843.9152     54.66107     213.3314        13     1.370     0.655 -43.86   0
       135    249.3379    814.5975 307.8010368  +6.3379098     818.3568     1067.964      532.649     77.11668     154.9755     309.8275      1.418     3.20     844.3256     54.66107     148.1791         9     0.947     0.824 -41.91   0
       136    455.3560    813.1878 307.7155555  +6.3453665     1474.629     2413.331      2156.36     77.24057     154.9755     309.8275      1.638     4.46     844.7222     54.66107     262.4991        16     1.470     0.807 -42.48   0
       137    873.2311    812.4595 307.5420918  +6.3595683     1314.981     1894.162     1475.882     77.48774     155.0988     310.0743      1.496     4.47     842.4478     54.66107     182.9721        15     1.336     0.721 -35.20   0
       138     97.0221    812.4958 307.8643400  +6.3336858     1572.932     2357.767     2492.996     77.73412     154.9138      309.951      1.642     4.40     840.5259     54.66107     213.2365        14     1.309     0.675 -41.16   0
       139    673.3670    811.1143 307.6251149  +6.3534822     721.7243     1131.538     1116.985     77.73412     154.9138     310.1051      1.550     4.29     844.0693     54.66107     116.9141         7     0.927     0.565 -57.85   0
       140    349.3699    809.8198 307.7596693  +6.3432220     804.7205     1211.781     1011.481     77.24057     154.9138     309.9818      1.733     6.34     844.8077     54.66107     91.48193        13     1.371     0.824 -61.73   0
       141    508.1949    808.2073 307.6937861  +6.3491837     20301.04     29941.17     30297.12     77.11668      154.852      309.951      1.532     3.69       844.35     54.66107      2917.03        40     1.549     0.935 -40.30   0
       142    921.8235    806.4086 307.5221196  +6.3636792     3849.358     6111.268     6623.423     77.36425      154.852      309.951      1.726     3.76     841.1522     54.66107     495.7582        26     1.396     1.033 -41.93   0
       143    154.7747    807.7732 307.8405239  +6.3375670     626.5862     733.5427     698.1462     77.24057     154.9138     309.9818      1.265     4.10     840.8293     54.66107     106.6475         7     1.041     0.510 -24.63   0
       144     42.4748    804.2802 307.8872615  +6.3352523     629.1619     827.2903     513.1403     77.97973     155.3452     310.1668      1.350     4.46     839.6964     54.66107     94.85657         7     1.042     0.543 -33.18   0
       145    394.3886    803.3793 307.7411961  +6.3473830      612.653     962.2345     686.1545     77.36426     154.7903     310.0126      1.411     3.25     844.3263     54.66107     117.1514         5     0.736     0.463  74.61   0
       146     18.3610    798.9349 307.8974523  +6.3366518     1623.448     2524.985     2656.757     77.73412     155.0372     310.1976      1.650     4.40     839.2451     54.66107     254.8954        15     1.402     0.708 -35.48   0
       147    300.8178    797.0200 307.7802564  +6.3468858     3341.138     5120.607     5132.381     77.48774     154.9138     310.0126      1.598     3.90     844.3906     54.66107     545.6292        24     1.488     0.879 -41.33   0
       148    766.3688    792.7606 307.5871179  +6.3641518      56500.5     84439.08     88102.77     77.36425     154.9138      309.951      1.601     3.73     843.8402     54.66107     7821.705        68     1.609     1.085 -40.37   0
       149      1.6709    794.8610 307.9045184  +6.3377749     1794.615      2343.56     2374.312     71.72066     128.2382     238.8733      1.271     2.91     838.9551     54.66107     323.3383        14     1.136     0.711  86.16  24
       150    705.2104    794.4659 307.6124523  +6.3614147     695.8524     868.8012     1296.626     77.24057     154.9138     309.9818      1.360     4.20     843.8276     54.66107     109.8237         5     0.887     0.568 -49.47   0
       151    205.5334    794.2635 307.8199067  +6.3448411     597.7461     1355.798     1692.598     77.73412     155.0988     310.1051      2.349     3.38     842.5264     54.66107     89.26025         5     0.737     0.448 -68.04   0
       152    409.5034    791.3347 307.7353258  +6.3528597     1017.248     1600.875     1180.148     77.73412     155.2221      310.136      1.638     5.08     843.5627     54.66107     151.2728        11     1.223     0.783 -30.86   0
       153    222.9962    769.3024 307.8134974  +6.3557298     749575.5      1660219      1823674     77.48774     154.7903     309.7967      2.233    13.17      841.923     54.66107     63710.32       597     2.662     2.170 -65.77   4
       154    688.3035    783.8502 307.6198274  +6.3652352      91226.3     134998.4     141183.9     77.61103     155.0372     310.2593      1.574     3.71     843.4693     54.66107     13239.79        77     1.621     1.063 -41.00   3
       155    333.2311    784.7504 307.7672125  +6.3530334     21876.49     32206.36      33417.4     77.48774     155.0988     310.0435      1.544     3.67     843.6343     54.66107       3253.9        45     1.543     0.986 -37.87   0
       156    622.1642    784.2320 307.6472741  +6.3628772     791.2017     970.5565     1258.341     77.36425      154.852     309.8584      1.455     5.07     844.0906     54.66107     124.7121         9     1.192     0.609 -56.18   0
       157    395.0404    782.6375 307.7416226  +6.3559680      23406.9     34485.04     35778.95     77.48774     155.0988     309.9818      1.547     3.75     843.2253     54.66107      3606.39        46     1.570     0.980 -38.34   0
       158    382.5675    784.7421 307.7467302  +6.3546830     1521.886     2071.755     1775.115     77.61103     155.1604     310.0435      1.454     4.06     843.4255     54.66107      238.032        13     1.277     0.698 -46.83   0
       159    932.3695    781.5288 307.5185729  +6.3743011      1943.49     3163.902       3056.6     77.61103     155.0988     310.0435      1.752     4.14     840.3344     54.66107     267.3466        23     1.436     1.029 -38.39   0
       160    888.4764    779.3739 307.5368688  +6.3737342      6767.16      10461.5     11215.56     77.48774     155.0372     310.0743      1.692     3.71     841.4701     54.66107      943.924        35     1.531     1.057 -42.62   0
       161    861.6320    780.1223 307.5479893  +6.3725341     747.0967     923.9722     713.3705     77.61103     155.0988     310.0743      1.515     5.65     842.1667     54.66107     90.03906        11     1.156     0.778 -72.86   0
       162    629.0899    778.4570 307.6445924  +6.3654919      6801.06     9808.657     10247.59     77.61103     155.0372     310.2285      1.517     3.59     843.7781     54.66107     1030.505        30     1.446     0.911 -39.82   0
       163    118.9883    779.5608 307.8563310  +6.3480176     490.4519     707.9694     755.6002     77.24057     154.9138     309.8584      1.535     4.35     839.7562     54.66107     92.36096         5     0.999     0.540 -74.48   0
       164    417.8868    776.4592 307.7323452  +6.3592807     1780.948     2657.627      2728.67     77.73412     155.1604     310.2285      1.552     3.34     842.7269     54.66107     292.7037        16     1.341     0.732 -40.85   0
       165    143.0307    775.9888 307.8464702  +6.3502964     789.2089     1126.028      1422.62     77.24057      154.852     309.9818      1.575     3.88     839.8356     54.66107      108.892         7     0.878     0.543 -46.49   0
       166    717.5985    772.6810 307.6080389  +6.3708207      526.433     722.7055     217.9724     76.99261     154.6049     309.8275      1.288     4.45     843.5868     54.66107     102.0556         5     1.159     0.486 -30.23   0
       167   1011.9971    770.6760 307.4858748  +6.3814226     772.4503     1182.264     1312.895     77.24057     154.6049     310.0126      1.715     4.20     838.3016     54.66107     108.4821         6     0.964     0.522 -89.92   0
       168    582.3640    770.4184 307.6642616  +6.3672554     922.2589     1182.089     1779.451     77.24057     154.9138     309.8893      1.484     4.57     843.2682     54.66107     152.6276         8     1.244     0.477 -45.38   0
       169    857.9098    769.9761 307.5498741  +6.3765994     612.1585     972.5058     783.5198     77.73412     154.9138      309.951      1.624     4.11     842.1057     54.66107     105.3152         7     0.900     0.537 -40.61   0
       170    664.1685    768.5808 307.6303596  +6.3707365     2457.965     3861.933     3933.705     77.24057     154.9138     309.9818      1.653     3.95     843.1345     54.66107     379.3376        23     1.440     0.955 -46.81   0
       171    133.2411    769.9337 307.8507384  +6.3524688     886.9882     1116.413     1488.832     77.73412     155.0372     310.1976      1.403     4.97     839.5465     54.66107      150.275        10     1.213     0.576 -30.21   0
       172    108.6112    768.9134 307.8609979  +6.3520662     1219.892      1766.54     2000.255     77.36425      154.852      309.951      1.618     4.58     839.2639     54.66107     174.6623        15     1.350     0.762 -41.42   0
       173    397.9893    765.2883 307.7409815  +6.3632291     56317.68     82905.38     86413.39     77.36425      154.852     309.9818      1.542     3.69     842.1725     54.66107     8162.582        65     1.597     1.032 -38.90   0
       174    941.3271    766.4547 307.5153577  +6.3808219     728.7147     1011.359     927.3324     77.61103     154.9755     310.0435      1.541     5.25     839.7347     54.66107      100.406        10     1.399     0.556 -57.08   0
       175     50.2724    766.6697 307.8852929  +6.3510404     570.4875     772.5797       601.77     77.85703     155.2221     310.1051      1.386     3.84     838.7534     54.66107     104.6177         5     0.933     0.453 -45.99   0
       176    515.7590    764.2639 307.6921210  +6.3675780     7595.389     11040.48     11501.05     77.73412     155.0372     310.1976      1.548     3.53     842.6835     54.66107     1234.139        33     1.518     0.933 -37.85   0
       177    432.5201    762.9346 307.7267244  +6.3653524     4657.793     7064.646     7687.679     77.97973     155.2221     310.0743      1.596     4.21      842.224     54.66107     700.4097        27     1.549     0.931 -40.29   0
       178    891.6721    787.9714 307.5352544  +6.3702907      8662.16     13143.34     13887.06     77.61103     155.0988     310.0743      1.620     3.70      841.515     54.66107     1176.036        33     1.516     1.015 -38.36   0
       179    760.9434    760.8571 307.5904388  +6.3771432     12084.88     17899.66     18879.06     77.85703     155.1604     310.1668      1.554     3.61      843.194     54.66107     1867.284        37     1.540     0.973 -37.49   0
       180    265.4217    760.6567 307.7961750  +6.3607164     476.6121     757.8011     1151.712     77.36426     155.0372     309.9201      1.775     4.84     841.9238     54.66107     79.97357         5     1.132     0.585 -58.36   0
       181    429.1857    756.3483 307.7283300  +6.3679604     2445.452     3421.625     3583.151     77.11668     155.0988     309.8584      1.435     3.63     841.8104     54.66107     362.4136        18     1.336     0.792 -41.34   0
       182    782.9644    755.0874 307.5814891  +6.3802571     1399.638     1870.092     1716.119     77.73412     154.9755     310.1051      1.468     3.49      842.703     54.66107     213.1442        12     1.118     0.723 -59.39   0
       183    126.8727    753.2795 307.8539436  +6.3591314     3121.595     5014.694     5718.397     77.97973     155.3452     310.1051      1.752     4.11     838.9088     54.66107     474.5176        24     1.537     0.866 -38.99   0
       184    118.6922    752.9799 307.8573498  +6.3589815     12119.09     17911.81     19486.63     77.61103     154.9138      309.951      1.554     3.63     838.8032     54.66107     1977.334        38     1.536     0.968 -38.22   0
       185    694.6327    787.3807 307.6170814  +6.3639881     22092.75     33133.95     35306.12     77.24057     154.9138     309.9201      1.627     3.80     843.5964     54.66107     3226.689        53     1.624     1.065 -38.91   3
       186    955.7061    749.3854 307.5099581  +6.3883462     1501.843     2512.548     3198.214     77.48774      154.852      309.951      2.018     5.39     839.1103     54.66107     189.4697        20     1.502     0.958 -59.71   0
       187    906.4424    749.3847 307.5304124  +6.3867119     6577.054     10041.79     9932.899     77.24057      154.852     309.8893      1.639     3.84     840.3395     54.66107     938.9141        31     1.513     0.976 -38.31   0
       188    110.9103    750.3124 307.8606704  +6.3598224     2946.587     4718.458     5629.688     77.48774     155.5297     310.1976      1.729     4.30     838.5876     54.66107     436.5688        23     1.542     0.864 -37.90   0
       189    662.0443    746.9953 307.6319651  +6.3795776     1854.131     2675.652      2649.62     77.11668     154.7285     309.7967      1.476     4.06     842.6761     54.66107     266.7422        16     1.315     0.744 -51.84   0
       190    548.9178    746.3368 307.6789559  +6.3760838     2477.189     3275.617     3244.592     77.85703     155.0988     310.1051      1.388     3.46      842.203     54.66107      409.294        18     1.345     0.750 -40.86   0
       191    397.2722    745.4387 307.7419464  +6.3714001     1157.323     1998.951     2118.047     77.61103     155.0988     310.1668      1.717     6.54     841.0209     54.66107     180.4673        15     1.657     0.725 -72.56   0
       192    110.7943    743.9313 307.8609337  +6.3624529      2069.36     3225.012     3514.084     77.24057     154.7285      309.951      1.636     4.61     838.3675     54.66107     299.3828        16     1.394     0.764 -39.28   0
       193    900.7845    741.3491 307.5330303  +6.3898418     3106.937     4774.611     4921.464     77.11668     155.1604     309.8275      1.609     4.08     840.3602     54.66107     429.2211        23     1.456     0.875 -41.97   0
       194    961.0715    740.6160 307.5080235  +6.3921447     1878.501     2797.311     2935.366     77.24057     155.0372     310.0126      1.544     3.64     838.8961     54.66107     276.8593        18     1.237     0.954 -28.67   0
       195    930.0391    740.9383 307.5208975  +6.3909822     3135.783     4934.388     4847.538     77.73412     155.0988      310.136      1.617     3.67     839.2918     54.66107     419.8906        22     1.353     0.905 -30.78   0
       196    653.1661    740.6146 307.6358652  +6.3819166     1418.504     2042.865     2214.732     77.36425      154.852     309.9818      1.664     4.67     842.5364     54.66107     204.7814        14     1.276     0.718 -56.29   0
       197    413.5971    741.4776 307.7353018  +6.3735799     575.1187     667.7996     742.6135     77.24057     154.6049     309.9201      1.260     3.56     840.8643     54.66107     93.04736         5     1.064     0.593 -35.40   0
       198    800.3773    738.6850 307.5748085  +6.3876076      1212.43     1689.261     2044.044     77.61103      154.852     310.0435      1.652     4.48     841.9822     54.66107     166.7728        13     1.392     0.664 -34.92   0
       199    225.4310    735.9477 307.8136096  +6.3695815     1899.696     3213.759     3728.214     77.61103     155.2221     310.0435      1.777     4.14       840.15     54.66107     292.0933        17     1.346     0.917 -47.99   0
       200    876.0618    736.3789 307.5434615  +6.3910732     944.2688     1356.336     1464.046     77.36425     155.0988     310.0126      1.431     3.82     841.2156     54.66107     158.8333         9     1.043     0.653 -42.21   0
       201    918.3911    730.9750 307.5260669  +6.3947091     1130.389     1645.828      1625.53     77.36425     154.9138     309.9818      1.608     4.48     839.5185     54.66107     138.9243        15     1.300     0.773 -50.81   0
       202    663.2015    732.6470 307.6319657  +6.3855400     630.8041     976.7238     1645.315     77.11668     154.7903     309.7041      1.416     2.25      842.329     54.66107     135.6707         5     0.682     0.466 -12.29   0
       203    892.3203    729.9218 307.5369269  +6.3942787     1109.809     1574.285     1779.599     77.97973     155.3452     310.2593      1.677     3.74      840.435     54.66107      162.966        13     1.193     0.737 -42.85   0
       204    245.9927    731.0225 307.8052387  +6.3723019      717.269     1074.706     1024.232     77.24057     154.9138     309.9201      1.486     4.00     839.9775     54.66107     157.5291         8     1.221     0.523 -48.15   0
       205    141.1942    730.7477 307.8487571  +6.3689125     804.6294     1061.143     941.0392     77.24057      154.852     309.7658      1.174     2.93     838.3604     54.66107     190.6483         8     0.999     0.508 -53.58   0
       206    945.1190    728.7314 307.5150444  +6.3965222      2455.03     3760.907     4447.849     77.97973     155.3452      310.136      1.627     4.20     838.9313     54.66107       305.26        21     1.434     0.905 -42.48   0
       207    664.6713    728.0399 307.6315099  +6.3874909     983.0897     1580.549     1722.542     77.61103     155.0988     310.1668      1.684     5.09     842.1664     54.66107     150.6317        10     1.114     0.657 -24.35   0
       208   1018.9891    722.7628 307.4845723  +6.4014361     6984.821     11348.37     11689.31     77.24057     154.9138     294.0583      1.718     3.88     838.2027     54.66107     950.1324        39     1.604     1.095 -43.54  16
       209    987.2220    721.9294 307.4977902  +6.4007270     1712.495     2191.774     1854.659     77.36425     154.9755     310.1051      1.453     3.51     838.4891     54.66107     247.0204        15     1.158     0.805 -57.68   0
       210    612.9346    721.9437 307.6531951  +6.3882862     743.6121     1269.597     1130.871     77.85703     155.0372     310.1051      1.701     5.30     841.9108     54.66107     110.6401        11     1.497     0.531 -42.04   0
       211    385.5722    723.2501 307.7475498  +6.3801704     715.5989     873.0686     977.8712     77.36425     155.2221     310.0435      1.367     4.03     840.0449     54.66107     136.3729         7     0.951     0.523 -39.22   0
       212    788.4065    720.6078 307.5803840  +6.3946733     1223.864     1832.475     1633.432     77.11669     154.9138      309.951      1.541     4.36     841.7729     54.66107     190.3962        11     1.160     0.716 -64.60   0
       213    874.2205    717.8525 307.5448458  +6.3986609      1656.69      2574.48     2807.899     77.24057     155.0988     309.9201      1.653     4.38     840.6602     54.66107      210.162        19     1.345     0.990 -23.27   0
       214    849.2277    712.8929 307.5553889  +6.3998787     934.7537     1402.102     1711.933     77.85703      154.852     309.9818      1.539     4.03     840.8859     54.66107     146.4874         9     1.025     0.588 -58.98   0
       215    831.5010    709.2935 307.5628696  +6.4007761     1734.401     2413.008     2596.528     77.73412     155.5912     309.9818      1.437     3.97     840.9072     54.66107     254.8076        12     1.131     0.663 -37.71   0
       216     95.1475    708.6325 307.8686197  +6.3765023     762.1837     1373.178      1685.46     77.61103     155.0988     310.0126      1.932     6.43     837.2017     54.66107     117.0026         9     1.245     0.933 -33.81   0
       217     30.3969    708.2439 307.8955151  +6.3744957     2586.921     3805.973     4170.457     77.11668     154.7285     309.7658      1.557     3.83     837.6452     54.66107     390.7563        17     1.389     0.742 -43.99   0
       218    442.7638    707.5026 307.7243339  +6.3885792      582.997     851.8473     804.2961     77.73412     154.9755     310.2593      1.524     4.39      839.845     54.66107     102.8213         6     1.143     0.479 -44.14   0
       219     93.9639    705.4304 307.8692190  +6.3777847     664.1908      1261.18     1398.249     77.36425      154.852      309.951      1.589     3.86     837.1118     54.66107     118.1848         5     1.267     0.337 -48.68   0
       220    685.9064    700.4147 307.6236191  +6.3996027     483.7494     583.3273     1212.948     77.48774      154.852      309.951      1.367     4.08     841.4659     54.66107     99.28082         6     1.016     0.468 -58.64   0
       221    643.0461    696.8033 307.6415360  +6.3996677     6572.264     9619.144     10181.35     77.11668      154.852     309.7658      1.485     3.53     841.1636     54.66107     1116.195        25     1.438     0.839 -41.26   0
       222    500.6563    696.6524 307.7006616  +6.3949885      850.583      1250.59     1492.962     77.73412     155.0988     310.0743      1.536     3.97     840.0256     54.66107     137.8016         9     1.097     0.719 -56.77   0
       223    589.9200    696.0466 307.6636195  +6.3982119     1589.739     2437.721     2078.344     77.73412     155.0988     310.1051      1.571     3.77     841.0959     54.66107     252.9691        14     1.329     0.646 -48.68   0
       224    511.3393    696.6124 307.6962274  +6.3953610     607.0887     690.3222     184.1004     77.11668     154.9138     309.7967      1.208     3.90     840.2266     54.66107     113.3366         6     1.024     0.511 -52.50   0
       225    616.9442    692.5095 307.6525176  +6.4005718     2312.157     3241.018     3387.718     77.61103     154.9755     310.2285      1.499     3.76     841.0876     54.66107     347.9073        21     1.413     0.839 -36.82   0
       226    106.0610    692.7179 307.8646252  +6.3834377     3809.137     5850.508     5660.795     77.85703     155.0988     310.1051      1.564     3.58     836.8124     54.66107     657.6367        28     1.510     0.940 -41.44   0
       227    980.1032    691.9525 307.5017478  +6.4128673     2631.779     3851.553     4029.105     77.73412     154.9755     310.2593      1.571     3.90     838.4386     54.66107     344.2529        21     1.397     0.872 -40.53   0
       228    292.9843    692.6252 307.7870211  +6.3897236     799.5402     969.6205     840.9197     77.48774     154.9755     310.0435      1.458     6.10     837.8984     54.66107     101.7777        10     1.288     0.811 -43.76   0
       229    228.7540    692.5499 307.8136911  +6.3876092     748.5338     1013.368      1337.61     77.73412     154.9755      310.136      1.551     4.63     837.4251     54.66107     112.7213        10     1.266     0.630 -42.77   0
       230    759.9210    688.9070 307.5932730  +6.4068147     21019.29     30821.51     32176.48     77.48774     155.2836     310.1668      1.533     3.59     841.6693     54.66107     3387.899        45     1.564     0.984 -40.35   0
       231    889.9993    688.5452 307.5392746  +6.4112846     3816.887     5882.155     5757.282     76.99261     154.7903     309.7658      1.592     3.48     839.3314     54.66107     593.4734        26     1.447     0.958 -41.89   0
       232    304.6847    689.0125 307.7822848  +6.3916058     807.0953     1273.797     793.3423     77.36425     154.9755      309.951      1.601     5.88     837.8974     54.66107     106.4032        11     1.488     0.653 -39.21   0
       233    487.7437    688.6866 307.7062904  +6.3978469     911.7041     1219.546     1085.231     77.73412     155.0988     310.2285      1.419     4.72     839.4119     54.66107     162.1239         9     1.303     0.485 -51.60   0
       234    459.2428    689.0463 307.7181119  +6.3967484     1399.852     1949.715     1792.026     77.73412     155.0988     310.0435      1.460     3.93     839.1606     54.66107     233.6539        11     1.126     0.689 -40.44   0
       235    640.4603    681.6913 307.6431164  +6.4058208      7526.77     11090.24      11767.3     77.61103     155.1604     310.1668      1.565     3.84     840.7052     54.66107     1170.737        33     1.514     0.918 -41.62   0
       236    233.4332    682.5952 307.8120836  +6.3918754     6548.098     9500.215     9795.881     76.99261     154.9755     309.8893      1.553     3.84     836.8111     54.66107     992.1154        28     1.478     0.889 -39.50   0
       237    623.1030    682.7386 307.6502882  +6.4048108      830.451     910.3167     664.7897     77.48774     155.1604     310.1668      1.265     3.91      840.785     54.66107     165.5752         8     1.071     0.471 -52.28   0
       238    335.9465    681.8137 307.7695473  +6.3956215     734.4213     1040.624     689.1667     77.11668     155.0372     309.8584      1.403     4.79     838.2666     54.66107     119.9056         8     1.156     0.562 -42.83   0
       239    900.3853    674.0926 307.5354455  +6.4175963     1216.887     1766.943     2069.959     77.48774     154.9138     309.9201      1.590     3.86     838.7678     54.66107     173.5065        11     1.171     0.721 -32.94   0
       240    712.0411    670.2130 307.6137798  +6.4129409     3773.005     5806.906     6645.513     77.11668     154.9138     309.8275      1.655     3.87     841.1661     54.66107      521.613        32     1.592     1.034 -38.82   0
       241    978.4887    666.6585 307.5032635  +6.4232568     8951.797      13801.8     14244.31     77.61103     155.0988     310.2285      1.660     3.61     838.1189     54.66107     1174.925        36     1.551     1.038 -39.97   0
       242    917.0116    667.1605 307.5287737  +6.4210101     2429.164     3711.238     4151.136     77.24057     154.9138     309.8584      1.619     4.06     838.3988     54.66107     352.5253        22     1.503     0.881 -38.82   0
       243    967.3149    666.9119 307.5078947  +6.4227816     621.1927     641.0573     863.8879     77.48774     155.3452     310.1976      1.384     4.90     838.1486     54.66107     86.58405         8     1.060     0.640 -28.86   0
       244    667.8482    670.3995 307.6321232  +6.4113940     1182.673     1587.374     2231.734     76.99261     154.7285     309.6732      1.575     3.37     840.2401     54.66107     193.9991        11     1.049     0.681 -50.34   0
       245    531.7147    664.4652 307.6888467  +6.4093120     602.9656     813.3546     549.8116     77.85703     155.2836     310.1668      1.487     3.29     839.5977     54.66107     125.2421         5     0.765     0.412 -25.91   0
       246    414.4120    664.3011 307.7375572  +6.4054697     642.1375     937.2772     1160.713     77.48774      154.852     309.8893      1.482     3.99     838.2763     54.66107     108.0455         6     0.904     0.504 -47.28   0
       247     55.8230    661.5737 307.8865332  +6.3946142      27034.3     40122.09     41717.02     77.24057     154.9755     310.0435      1.586     3.88     836.7907     54.66107     3923.978        53     1.611     1.032 -40.41   0
       248    517.2831    662.4136 307.6949078  +6.4096782     2312.537     3330.115     3699.661     77.36425      154.852     309.9201      1.626     3.48     839.1877     54.66107     392.0592        18     1.334     0.757 -45.25   0
       249    907.0668    658.9712 307.5331770  +6.4240611      1016.28      1433.92     1503.982     77.48774     155.0988     310.0743      1.509     4.89     838.3474     54.66107     134.0123        13     1.263     0.789 -53.93   0
       250    485.6429    659.8880 307.7081299  +6.4096666     1443.355     2116.356     2187.654     77.73412     154.9755      310.136      1.521     4.17     838.4539     54.66107     251.4894        14     1.260     0.743 -32.91   0
       251    526.3704    656.1268 307.6913457  +6.4125765     945.0547      1376.93     1648.583     77.61103     155.0988     310.0743      1.614     4.36     839.1981     54.66107     157.2488        10     1.235     0.534 -26.64   0
       252    701.8503    653.7695 307.6185623  +6.4193909     3555.262     5064.069     5461.792     77.36425     155.2221     310.0126      1.471     4.03     840.3724     54.66107     621.4841        20     1.453     0.750 -43.37   0
       253    723.9073    651.9799 307.6094637  +6.4208632      4292.24     6315.225     6292.079     77.61103     154.9138      309.951      1.514     3.57     840.7056     54.66107     689.6038        26     1.456     0.884 -45.80   0
       254    391.5224    650.4501 307.7475268  +6.4104245     1385.437     1944.715     1814.562     77.73412     155.1604     310.0743      1.558     3.78     837.8848     54.66107     247.1683        13     1.284     0.728 -39.62   0
       255    555.3538    649.9019 307.6795203  +6.4161120     3513.382     5233.376     5603.304     77.73412     154.9755     310.2901      1.532     3.96     839.3864     54.66107     527.3966        22     1.448     0.796 -47.40   0
       256    299.4657    648.9105 307.7858010  +6.4079876     1478.797     2093.235     2193.171     77.73412     155.2221      310.136      1.534     4.11     836.5145     54.66107     226.9934        15     1.342     0.750 -38.09   0
       257    215.8584    649.5530 307.8204932  +6.4049294     1928.659     2543.536     2357.447     77.73412     155.0988     310.2285      1.456     3.23     835.9573     54.66107     289.4922        13     1.107     0.734 -52.04   0
       258    996.7579    648.1052 307.4962976  +6.4315227     4997.375     7606.481     7413.028     77.73412     155.0372     310.2285      1.612     3.76      837.118     54.66107     724.4842        26     1.452     0.957 -39.36   0
       259    962.0850    646.9768 307.5107327  +6.4308386     7823.779     12288.81     12774.25     77.61103      154.852     309.9818      1.656     3.83     837.4781     54.66107     1105.045        37     1.635     1.005 -40.70   0
       260    516.1205    647.3994 307.6958946  +6.4158382      624.128     969.4727     1115.616     76.99261     154.4811     309.8584      1.530     3.14     838.7443     54.66107      111.113         6     0.752     0.606 -53.01   0
       261   1011.5847    645.8858 307.4902152  +6.4329306      704.345     1153.724     1228.915     77.36425      154.852     310.0126      1.840     6.13     836.8356     54.66107     99.21027        11     1.424     0.742 -28.54   0
       262    682.1600    645.5153 307.6270149  +6.4221438     1065.944     1178.092     986.9885     77.73412     155.0372     310.0743      1.201     3.26       839.77     54.66107     195.1406         8     1.005     0.569 -51.20   0
       263     73.5640    643.6011 307.8797736  +6.4026278     932.8472     1404.674     1519.124     76.86832     154.9138     309.9201      1.625     3.74     836.3122     54.66107     166.5261        11     1.109     0.764 -52.16   0
       264    407.4415    641.3935 307.7412215  +6.4146946     2897.445     4167.073     4628.149     77.11669     154.7903     309.8275      1.553     4.03     837.8345     54.66107     429.8433        21     1.471     0.841 -43.88   0
       265    788.9423    641.0468 307.5828256  +6.4275388     1141.203     1582.687     1628.259     77.73412     155.0988     310.2285      1.352     4.18     839.7843     54.66107     184.0117        12     1.239     0.699 -54.14   0
       266    120.5765    640.4778 307.8603597  +6.4054903      25624.5     37121.61     38213.53     77.36426     154.9138     310.0435      1.574     3.72     835.9362     54.66107     3844.692        45     1.541     0.984 -39.41   0
       267    625.4299    640.7495 307.6507304  +6.4222238     560.4005     685.3066     925.3324     77.36425     155.2221     310.0126      1.327     3.38     839.3447     54.66107      85.3075         5     0.745     0.443 -68.31   0
       268    340.1636    635.3583 307.7693589  +6.4149414     838.6176     1125.838      780.704     77.48774     155.0988     309.9818      1.479     5.16     836.8754     54.66107     140.7143         9     1.206     0.623 -56.38   0
       269    957.0133    630.0494 307.5134046  +6.4376591     6636.232     11473.32     12845.29     77.11668     155.0372     309.8275      1.862     3.76     836.9936     54.66107     842.7141        45     1.610     1.320 -19.42   0
       270      1.9458    629.1493 307.9099963  +6.4061964     1101.235     1370.974     1156.087     74.33907     131.9134     243.0003      1.275     3.25      836.963     54.66107     204.5059        10     1.024     0.658 -62.45  24
       271   1012.3925    625.1191 307.4905736  +6.4415312     89926.46       141317     148494.4     77.36425     154.7285      309.951      1.680     3.76     835.6443     54.66107     12008.65        89     1.691     1.191 -40.78   0
       272    550.5914    625.3076 307.6823233  +6.4261073     50831.71     73362.41     76446.81     77.36425     154.7903     309.9201      1.548     3.71     838.3602     54.66107     8319.824        62     1.585     1.020 -40.77   0
       273    510.0946    625.2661 307.6991399  +6.4247752     811.5477      988.211     696.6882     77.73412     155.2221      310.136      1.313     5.55     838.0858     54.66107     128.2842        11     1.243     0.721 -45.26   0
       274    775.5242    624.5651 307.5889493  +6.4338975     612.9409     822.7112     588.6584     77.61103     155.1604     310.1051      1.561     4.63     839.4578     54.66107     74.86243         6     1.247     0.489 -84.86   0
       275    158.1053    621.9718 307.8454015  +6.4143855     2844.692     4022.232     4239.431     77.85703      154.852     310.0126      1.458     3.51     835.7626     54.66107     423.4085        21     1.516     0.760 -43.06   0
       276    961.8014    621.4454 307.5117040  +6.4413702     760.2361     1122.351     1754.429     77.11668     154.7285     309.7041      2.153     6.09     836.5889     54.66107     84.58337        12     1.248     0.837 -50.90   0
       277    480.6181    622.3673 307.7114766  +6.4249897     638.0046     844.2826     713.6239     77.36425     154.9138     309.9818      1.454     3.91     837.8452     54.66107     114.4343         5     1.212     0.362 -38.10   0
       278     50.9021    616.1985 307.8901069  +6.4131822     1388.417     2107.667     1894.465     77.24057      154.852     309.7967      1.571     4.33     836.2165     54.66107     223.5029        13     1.322     0.717 -39.59   0
       279    447.8328    609.1118 307.7255352  +6.4293692     66833.88     97051.55     100320.2     77.85703     154.9755     310.1051      1.526     3.72      837.564     54.66107     10786.98        59     1.587     0.988 -40.71   0
       280    633.6813    606.1846 307.6484635  +6.4367688     903.7814       1135.8     992.3292     77.36425      154.852      309.951      1.215     4.39      838.203     54.66107     169.7901         8     1.047     0.524 -33.30   0
       281    122.2293    604.3107 307.8608926  +6.4204769     1770.715     2428.324     1804.015     77.85703      154.852     310.0126      1.465     3.61     835.5754     54.66107      271.605        19     1.402     0.788 -47.19   0
       282    401.2415    602.1071 307.7451165  +6.4307073     950.4617     1744.177     1574.961     77.85703     155.0372     310.1976      1.904     6.63     836.7288     54.66107     145.9451        13     1.588     0.777 -36.48   0
       283    594.1397    600.4361 307.6650754  +6.4378259     1005.705     1546.911      1667.22     77.73412     155.0988     310.0743      1.622     5.03     837.6575     54.66107     168.5463        10     1.403     0.548 -48.06   0
       284    293.2609    598.3683 307.7900782  +6.4286468     2150.663     3362.652     3382.678     77.48774     155.1604     310.0435      1.604     3.89     835.5615     54.66107     332.3974        21     1.376     0.902 -44.97   0
       285    445.9535    596.4434 307.7267412  +6.4345368     899.3145     1248.831     1030.727     77.73412     155.0988     310.0435      1.380     3.61     836.9124     54.66107     163.1948         7     1.102     0.411 -55.15   0
       286    719.9287    592.5756 307.6131064  +6.4452566     5605.037     8091.647     8710.313     77.36425     154.9755     310.0435      1.525     3.84     838.4507     54.66107     911.7796        27     1.459     0.858 -41.63   0
       287    773.4218    587.8255 307.5910528  +6.4489960     14550.72     21292.11     21976.88     77.24057     154.9138     310.0435      1.554     3.82     838.3668     54.66107     2205.035        39     1.524     0.968 -41.06   0
       288    991.0035    588.3035 307.5006856  +6.4560219     1151.752     1753.922     1436.843     77.48774     154.7903     309.7967      1.527     4.77       834.95     54.66107     169.3699        11     1.175     0.656 -29.42   0
       289    515.8004    587.7224 307.6980315  +6.4404655     1343.979     2096.156     2162.547     76.99261     154.4811     309.8584      1.704     4.26     837.0031     54.66107     236.7306        16     1.326     0.908 -46.02   0
       290   1013.4331    586.7030 307.4914251  +6.4574264     2127.061     3312.555     3127.219     77.85703     154.9755     310.1976      1.667     3.80     834.3762     54.66107     278.8535        19     1.326     0.872 -51.60   0
       291    597.3728    586.0128 307.6642169  +6.4438883     3198.217     4711.186     4801.087     77.36425     154.9138     310.0435      1.469     3.99     837.2053     54.66107     526.9019        20     1.422     0.762 -41.93   0
       292     18.5644    586.7505 307.9045272  +6.4242568     738.4216     1202.091     584.8989     77.61103     155.0988     310.0435      1.751     5.49     835.6171     54.66107     101.4058         9     1.161     0.732 -39.11   0
       293    914.4992    582.1870 307.5326590  +6.4560092     1194.405     1821.193     2438.139     77.48774      154.852     309.8584      1.631     4.50     836.5338     54.66107     160.6319        14     1.250     0.839 -36.11   0
       294    355.9753    579.4987 307.7646725  +6.4385308     914.3292     998.0002     1260.801     77.85703      154.852      309.951      1.335     4.82     834.9019     54.66107     143.8683        10     1.121     0.666 -50.52   0
       295    209.8431    579.6289 307.8253459  +6.4335963     1470.984     2133.638     2637.368     77.36425     155.1604     310.0126      1.553     3.44     834.8369     54.66107     239.9323        12     1.115     0.683 -47.62   0
       296    173.6300    580.3688 307.8403574  +6.4320802     639.0309     981.5217     2076.052     77.24057      154.852     309.8584      2.020     3.83     835.1379     54.66107     119.5804         6     1.031     0.487 -32.70   0
       297    849.6036    571.0739 307.5599791  +6.4584430     3002.408     4340.321      4893.89     77.24057     154.6049     310.0126      1.493     3.53     837.1886     54.66107     479.7134        19     1.326     0.787 -41.25   0
       298    144.9114    570.8749 307.8526018  +6.4350394     790.0413     903.0419    -74.96514     77.73412     155.4067     310.1976      1.269     4.43     835.0165     54.66107     106.9043         8     0.877     0.637 -44.78   0
       299    808.3546    568.4337 307.5771963  +6.4581629     2533.698     3629.983     3628.143     77.36426     155.0372     309.9818      1.477     3.73     837.6972     54.66107     442.5714        21     1.430     0.872 -43.86   0
       300    779.1356    564.4044 307.5894646  +6.4588556     2601.918     4003.229     4240.272     76.99261     154.7903     309.8893      1.630     4.07      837.679     54.66107     407.8845        20     1.458     0.796 -37.87   1
       301    721.7999    565.3281 307.6132426  +6.4565682     604.5715     879.7576     1334.928     77.11668     154.6049      309.951      1.291     4.03     837.6766     54.66107     121.1829         6     1.188     0.390 -31.12   0
       302    236.2675    563.5123 307.8149167  +6.4411331     8238.252     12002.61     13056.42     77.85703     155.2836      310.136      1.576     3.49     834.1913     54.66107     1273.078        33     1.499     0.963 -39.66   0
       303    788.8048    559.7176 307.5856064  +6.4611119     165504.9     240839.1     251039.8     77.24057     154.7285     309.8584      1.547     4.03     837.5628     54.66107     26522.16       112     1.638     1.115 -43.16   0
       304    170.4453    558.1043 307.8424300  +6.4411655     61928.88     90399.98     94904.05     77.73412     155.0372     310.2593      1.539     3.67     834.7847     54.66107     9421.173        71     1.635     1.049 -39.46   0
       305    718.5260    559.8732 307.6147849  +6.4587114     671.7007     960.0889      1086.35     77.97973     155.3452     310.1668      1.429     4.15     837.5303     54.66107     143.4724         5     0.766     0.643 -21.82   0
       306     94.4322    554.3366 307.8741194  +6.4401784     6770.665     9989.158     10445.36     77.48774     155.1604     310.0743      1.582     3.62     834.3099     54.66107      1019.07        33     1.539     0.960 -38.18   0
       307    959.6758    551.5630 307.5149230  +6.4701517     1395.091     2238.917     1855.219     77.61103     155.1604      310.136      1.720     4.31      834.882     54.66107     210.9875        15     1.390     0.769 -34.26   0
       308    980.7635    550.1558 307.5062130  +6.4714322     948.5027     1488.335     1461.117     77.48774     155.0372     309.9818      1.560     3.67     834.4319     54.66107     161.8467        10     1.080     0.662 -22.25   0
       309    209.1155    549.7508 307.8266545  +6.4459071     706.1628     912.8174     1405.953     77.73412     155.0988     310.1668      1.509     4.47     833.9807     54.66107     107.1396         8     1.105     0.513 -55.98   0
       310    825.3397    547.0294 307.5708598  +6.4675642     4635.434      6606.49     6293.964     77.48774     155.0988     310.0743      1.488     3.62      836.985     54.66107     752.5516        22     1.403     0.813 -42.43   0
       311    343.8400    545.2148 307.7708647  +6.4522799     18164.43     26229.94     27491.38     77.36425     154.9138     309.8893      1.512     3.70     833.4673     54.66107     2920.403        43     1.583     0.930 -38.94   0
       312    434.1008    545.6004 307.7333716  +6.4551322     776.2961     933.5339     722.5216     77.24057     154.7285      309.735      1.291     4.30     834.0884     54.66107     138.6196         8     1.051     0.639 -46.66   0
       313    146.5115    543.6556 307.8528549  +6.4463302     1957.227     3074.634     3230.741     77.73412     154.9755     310.2593      1.996     8.03     834.5411     54.66107     299.0449        24     2.497     0.722 -29.58   0
       314    221.0864    541.8911 307.8219485  +6.4495520     934.6999     1369.074     1341.493     77.48774     155.5297     310.2285      1.497     4.25     833.4841     54.66107     165.6339         9     0.900     0.778 -13.99   0
       315     83.0128    541.2834 307.8793012  +6.4451851     992.2292     1381.182     1110.719     77.36425     154.9138      309.951      1.462     4.38     834.0378     54.66107     170.2085        11     1.308     0.672 -50.91   0
       316    779.3550    540.2988 307.5901809  +6.4688151      6023.67     8460.878     8642.064     77.73412     155.0372     310.3209      1.478     3.68     836.8827     54.66107     973.9528        22     1.411     0.814 -40.99   0
       317    510.1724    540.1262 307.7019669  +6.4599283     6832.093     9627.583     9570.634     77.61103     155.0372     310.0435      1.454     3.79     835.3046     54.66107     1039.749        24     1.420     0.864 -39.10   0
       318    368.5988    536.6694 307.7608713  +6.4566342      1420.69      2035.48     2141.432     77.11668     154.6667      309.951      1.489     3.89      833.063     54.66107     238.7578        13     1.273     0.683 -45.56   0
       319    157.1748    533.2341 307.8487784  +6.4509893     7142.059     10255.56     10249.22     77.11668     154.9138     309.9201      1.522     3.60      834.124     54.66107     1047.922        28     1.496     0.865 -39.03   0
       320    837.6758    533.6995 307.5661833  +6.4734773     610.0617     1054.516     1001.783     77.24057     155.2221     310.0126      1.946     5.63     836.4003     54.66107     133.5942         7     1.588     0.563 -27.62   0
       321    795.9907    532.6138 307.5835301  +6.4725408     1437.765     2242.326     2887.365     77.48774      154.852     310.0435      1.674     4.07      836.555     54.66107     260.7355        15     1.434     0.713 -47.61   0
       322    555.0244    533.1247 307.6835771  +6.4643132     2457.643      3664.58     3414.486     77.36425     154.9138     310.0743      1.594     4.89     835.1452     54.66107     363.6593        18     1.478     0.725 -39.73   0
       323    252.3738    529.7289 307.8093664  +6.4556187     90870.14     133562.3       139139     77.36425     154.9755     310.0435      1.564     3.78     832.7701     54.66107     13555.69        79     1.637     1.052 -40.72   0
       324     28.7536    531.9479 307.9021459  +6.4472228     5107.158     7752.305     7885.766     77.85703     155.0372     310.1668      1.605     3.88     834.0616     54.66107      796.941        28     1.486     0.921 -35.49   0
       325    541.7712    527.3587 307.6892741  +6.4662522     1053.391     1516.247     1572.032     77.36425     154.9755      309.951      1.578     5.04     834.7285     54.66107     164.3282        10     1.241     0.578 -45.18   0
       326    236.2842    524.7754 307.8162142  +6.4571261     1477.182      2085.36     2076.291     77.61103      154.852     310.0435      1.406     4.42     832.6087     54.66107     226.9572        12     1.296     0.604 -44.05   0
       327    952.0975    523.2238 307.5190176  +6.4816006       1674.8     2435.162     2448.363     77.85703      154.852      309.951      1.475     3.43     834.2695     54.66107     271.6365        13     1.158     0.746 -43.81   0
       328    775.5646    522.1052 307.5923644  +6.4762006     17062.51     24334.06     25029.39     77.85703     154.9755     310.1976      1.510     3.65     835.9661     54.66107     2766.109        36     1.515     0.897 -42.52   0
       329    479.1692    520.5540 307.7154986  +6.4669754     41669.91     66923.67     70936.53     77.36425     155.1604     309.9818      1.746     4.10     834.1003     54.66107     5975.149        68     1.718     1.180 -32.24   0
       330    629.7744    519.1432 307.6530056  +6.4725745     1016.974     1609.164     1955.155     77.36425     155.0988      309.951      1.739     4.52     835.1402     54.66107     164.1284        11     1.286     0.640 -44.58   0
       331    191.5634    516.8987 307.8350495  +6.4588831     1993.825     2834.576     3086.459     77.73412     154.9755     310.2901      1.546     4.76     832.8586     54.66107     318.5699        17     1.533     0.663 -41.94   0
       332     27.1064    517.3980 307.9033209  +6.4531744     1267.594     1877.144     2054.448     77.24057     154.7903     309.7967      1.581     4.57     834.0489     54.66107     208.0927        14     1.340     0.724 -39.37   0
       333    639.1365    515.5121 307.6492396  +6.4743852     3045.524     4518.293     5302.752     77.61103     155.2836     310.1051      1.562     3.89     835.1052     54.66107     473.1481        21     1.545     0.767 -46.23   0
       334    239.2021    517.5733 307.8152451  +6.4601969     491.2707     650.4114     926.3204     77.24057     154.7903     309.9201      1.218     3.43     832.2582     54.66107     91.85614         5     0.786     0.432 -21.51   0
       335    649.4827    515.4051 307.6449468  +6.4747737     1599.692     2063.723     2342.901     77.24057     154.7285     309.8584      1.408     3.08     835.1592     54.66107     254.6295        13     1.101     0.716 -51.25   0
       336    701.4982    514.3198 307.6233828  +6.4769523     1340.417     1865.686     1981.845     77.61103     155.4682     310.1668      1.351     3.53     835.3657     54.66107     221.1448        13     1.212     0.671 -56.50   0
       337     58.7065    513.0108 307.8903476  +6.4560436     720.7573     1124.652     1449.106     77.48774     154.7903     309.8893      1.622     4.14     833.8682     54.66107     114.6004         7     0.773     0.633 -80.62   0
       338    376.8018    511.1814 307.7583222  +6.4674307     1922.801     2541.662     2565.355     77.36425     154.6667     309.8275      1.428     3.59      831.889     54.66107     355.8929        14     1.262     0.746 -37.17   0
       339     54.5213    511.4708 307.8921374  +6.4565393      483.289     976.8844     1314.214     77.97973     155.3452     310.0743      1.743     4.80     833.8782     54.66107     76.22778         5     1.139     0.575 -58.88   0
       340    308.3439    509.5161 307.7868055  +6.4658330     4003.967     5851.518     6031.848     77.73412     155.0988     310.1976      1.524     3.70     831.3448     54.66107     645.5799        24     1.399     0.840 -47.27   0
       341    488.2959    508.8087 307.7121032  +6.4721287     2252.993     3472.151     4246.932     77.48774     154.7285     309.9201      1.736     3.54     833.5247     54.66107     352.5415        20     1.332     0.893 -45.37   0
       342    123.5069    508.0896 307.8636061  +6.4602439     27494.38     40027.96     41430.86     77.73412     155.5912      310.136      1.536     3.55     833.3086     54.66107     4242.658        47     1.572     0.960 -38.40   0
       343    851.4728    508.0807 307.5613113  +6.4845126     1697.306     2266.424     2316.145     77.97973     155.3452      310.136      1.453     4.06     835.3694     54.66107     224.2678        16     1.335     0.752 -50.37   0
       344     88.8096    506.2854 307.8780746  +6.4598277     2809.265     3995.609     4571.164     77.36425     154.7903      309.951      1.530     3.37     833.6203     54.66107     434.3769        19     1.313     0.799 -43.88   0
       345    325.6524    504.4965 307.7797870  +6.4684833      1156.23     1726.645     1488.213     77.61103     155.0988     310.3517      1.625     4.37     830.9642     54.66107     183.4809        11     1.298     0.606 -42.13   0
       346    949.1188    502.6585 307.5209423  +6.4899924     5227.363     7536.089      7889.12     77.73412     155.1604     310.1051      1.511     3.42     833.8327     54.66107      832.704        28     1.518     0.854 -38.64   0
       347    522.5140    494.9070 307.6983607  +6.4790085     1568.186     2492.926     2431.709     77.61103     155.5297     310.1976      1.639     3.87     832.8268     54.66107     252.3281        14     1.272     0.834 -47.04   0
       348    420.4765    489.2133 307.7409246  +6.4779574     45068.54     64823.53     67300.73     77.36425     154.7903     309.9201      1.536     3.70     832.2318     54.66107     7327.565        55     1.573     0.996 -41.44   0
       349    397.4116    491.6117 307.7504220  +6.4761978     523.8378     755.2987      912.571     77.61103     154.9138     310.0435      1.568     5.21     831.6437     54.66107     82.33862         7     1.027     0.746 -44.64   0
       350    134.8515    491.6808 307.8594486  +6.4673977     330.3791     738.2491     653.0984     77.73412     155.0988     310.1051      2.653     4.24     832.6439     54.66107     76.52252         5     1.591     0.322 -28.46   0
       351    628.5641    488.9006 307.6545227  +6.4850201     12851.26     18158.53     19012.55     77.73412     154.9755     310.2593      1.474     3.70     833.8723     54.66107     2092.264        32     1.485     0.870 -40.04   0
       352    185.6474    486.8378 307.8385190  +6.4710959     19748.02     30809.96     32300.41     77.61103     155.0988     310.0126      1.687     3.70     831.5561     54.66107     2866.516        54     1.629     1.167 -35.91   0
       353    151.5536    487.7157 307.8526468  +6.4695933     1685.901     2376.799     2351.683     77.73412     155.0988      310.136      1.561     4.27     832.1387     54.66107     234.3815        13     1.268     0.671 -45.33   0
       354    891.2634    486.6432 307.5455045  +6.4946845      688.148     793.7512     498.6979     77.73412     155.0372      310.136      1.262     4.22     834.4783     54.66107     101.6743         7     0.956     0.533 -58.46   0
       355    802.6790    486.7367 307.5822891  +6.4917039     1022.426     1728.486     1724.082     77.97973     155.1604     310.1051      1.691     5.24     834.3947     54.66107     151.0571        12     1.367     0.679 -41.52   0
       356    550.3030    485.4730 307.6871375  +6.4838292     3040.414     4301.786     3716.606     77.36426     155.2836     310.0743      1.490     3.27     832.3785     54.66107     514.7729        20     1.299     0.821 -41.16   0
       357    924.2303    482.7844 307.5319429  +6.4973718     4780.881     7042.244     6895.667     77.36425      154.852     310.0435      1.524     3.64      834.176     54.66107     745.0818        25     1.468     0.843 -42.48   0
       358    597.3781    481.2984 307.6677286  +6.4871205     6813.364       9905.6     10048.58     77.61103      154.852     309.8893      1.507     3.63      833.255     54.66107     1086.807        29     1.509     0.866 -38.80   0
       359     85.1085    481.7674 307.8804384  +6.4698259     1238.218     1794.957      1904.34     77.85703     154.9755      310.136      1.549     3.97     833.3802     54.66107     198.6994        13     1.241     0.710 -39.39   0
       360    962.3997    487.1155 307.5159467  +6.4968501     966.1715     1589.336     1739.873     76.99261     154.6049     309.7658      1.650     4.87     832.8989     54.66107     153.1155        13     1.408     0.835 -54.09   0
       361    946.7040    475.1284 307.5228658  +6.5012785     3562.898     5207.695      5444.16     77.61103     155.2221     310.1051      1.543     3.90     833.1263     54.66107     554.9731        20     1.408     0.790 -40.63   0
       362    268.3513    489.4120 307.8040893  +6.4727972     971.9676      1430.67       1572.6     77.11668     155.0372     309.7967      1.515     3.75     830.3963     54.66107       192.78         9     1.181     0.563 -35.38   0
       363    509.5388    472.5325 307.7045003  +6.4878135     8068.515     11310.76     11950.85     77.73412     155.0372     310.1051      1.543     3.76     831.7433     54.66107     1328.389        30     1.476     0.895 -42.18   0
       364    385.4357    473.9561 307.7559888  +6.4830873      857.691     1047.043     1371.662     77.48774     155.0372      309.951      1.287     4.87     830.5156     54.66107     146.7592         8     1.090     0.634 -52.05   0
       365    355.5248    472.7916 307.7684490  +6.4825698     2906.666     4447.275     4412.374     77.36425     154.6049     309.9201      1.590     4.71     829.4807     54.66107     479.5221        19     1.548     0.806 -36.22   0
       366    725.3813    472.6418 307.6148618  +6.4949537     610.7421     972.9703     636.3699     77.24057     154.9138     309.8893      1.349     4.67     833.2282     54.66107     131.4856         7     1.260     0.516 -44.13   0
       367     78.8859    471.6877 307.8833623  +6.4737790     558.4785     757.7746     633.3593     77.48774     155.3452     310.2285      1.497     5.43      833.193     54.66107     83.81171         8     1.371     0.607 -47.12   0
       368    977.4672    471.4999 307.5102114  +6.5037970     553.6017     985.5526     1180.028     77.73412     155.2221     310.0743      1.486     4.02     831.8885     54.66107       102.24         5     1.191     0.387 -35.90   0
       369    865.9987    468.3069 307.5566103  +6.5014160      3282.82     4794.679     5584.206     77.24057     154.7285     309.8275      1.529     3.92     833.7559     54.66107     482.2972        24     1.445     0.903 -39.75   0
       370    519.2515    469.2816 307.7005761  +6.4894793     702.3193      800.262     1192.993     77.73412     155.0988     310.1051      1.327     4.02     831.6048     54.66107     123.0638         6     0.970     0.476 -42.74   0
       371    214.1805    467.5001 307.8273220  +6.4800332     590.8064     603.8273     771.1733     77.73412     154.9755     309.8893      1.336     3.35     830.5784     54.66107     112.2855         5     1.160     0.280 -53.90   0
       372    873.4521    462.8168 307.5536987  +6.5039302     2166.376     3182.101     3319.324     77.24057     155.1604     309.8584      1.501     3.73     833.4636     54.66107      347.348        17     1.306     0.815 -44.81   0
       373    912.8962    461.8807 307.5373491  +6.5056261     1322.888     1875.454     1917.977     77.48774     155.4067     310.1976      1.536     4.69     833.2609     54.66107     212.1235        16     1.412     0.753 -46.22   0
       374     92.7178    461.8470 307.8779506  +6.4783045     843.2936      1239.45     913.9329     77.73412     155.0988      310.136      1.388     4.20     832.7357     54.66107     148.7728         8     1.219     0.461 -40.64   0
       375    251.4542    460.8246 307.8120686  +6.4840349     606.6171     889.8637     910.1734     77.36425     155.1604     309.9201      1.527     3.19     829.7673     54.66107     120.3578         5     0.852     0.549 -41.69   0
       376    697.3262    458.6957 307.6269802  +6.4997784     3042.671     4425.104     4754.168     77.48774     155.2221     310.1051      1.564     4.15     832.6876     54.66107     506.6708        19     1.427     0.786 -35.97   0
       377     59.1927    457.7260 307.8920109  +6.4788837     1957.551     2968.794     3377.216     77.36425     154.6667     309.9818      1.676     4.18     833.0957     54.66107     312.9628        15     1.327     0.727 -48.82   0
       378    368.2141    456.9275 307.7637132  +6.4895428     3854.033     5514.029     5729.203     77.24057      154.852     309.9818      1.467     3.49     829.4199     54.66107     634.8579        22     1.425     0.779 -41.19   0
       379    408.8459    457.0201 307.7468368  +6.4908604     1164.077     1734.698     2067.441     77.36425     155.0372      309.951      1.629     4.32     830.4584     54.66107     171.9744        10     1.076     0.689 -47.88   0
       380    596.0206    453.4208 307.6692280  +6.4985847     10512.64     15309.66     15835.35     77.48774     155.0372     310.0435      1.518     3.55     831.8079     54.66107     1680.905        34     1.488     0.921 -38.55   0
       381    758.7216    449.9983 307.6017748  +6.5054108     17203.22     24427.07      25576.5     77.11668      154.543     309.8893      1.486     3.65     832.5322     54.66107     2960.136        39     1.593     0.909 -47.55   2
       382    763.1470    445.0830 307.6001016  +6.5075872     1402.816     2094.211     2063.873     77.73412     155.0988     310.2285      1.537     4.25     832.3736     54.66107     206.3483        10     1.137     0.570 -47.23   3
       383    278.4051    450.3120 307.8012308  +6.4892753     3017.073     4347.271     4101.047     77.24057     154.7903     309.8275      1.552     3.86     829.0652     54.66107     463.7386        18     1.361     0.764 -45.27   0
       384    402.3700    449.4224 307.7497815  +6.4937811     592.1888     700.6765     542.6855     77.11669      154.852     309.9201      1.267     3.39     829.8915     54.66107     93.93146         5     1.019     0.327 -68.41   0
       385    787.6653    447.1649 307.5898495  +6.5075426     1330.295      1959.79     2086.307     77.61103     155.0988      310.136      1.554     3.69     832.6689     54.66107     224.0184        13     1.105     0.805 -21.51   0
       386    361.5424    446.8368 307.7668232  +6.4934861     1611.076      2493.23     3435.134     77.73412     155.0988     310.1051      1.722     4.26     829.0061     54.66107     255.5307        15     1.442     0.638 -41.70   0
       387    943.9196    444.9340 307.5250320  +6.5136522     1900.716     2821.646     2508.279     77.97973     155.2836     310.0743      1.527     3.92     832.0756     54.66107     299.6525        18     1.439     0.764 -39.60   0
       388    692.7767    443.6587 307.6293737  +6.5058352     575.1177     967.9648     977.6221     77.36425     155.0988     309.9818      1.711     3.06     832.1084     54.66107     146.7444         6     0.929     0.577 -30.43   0
       389     96.0626    441.9605 307.8772324  +6.4866265     4557.722     6968.011     7306.484     77.73412     155.0372     310.1668      1.564     3.91     832.1135     54.66107     696.2154        26     1.623     0.817 -43.94   0
       390     18.8745    444.0153 307.9092158  +6.4831940     509.5719     889.4204     570.6307     77.24057      154.852      309.951      1.667     4.46     833.3857     54.66107     80.35724         5     1.175     0.482 -18.72   0
       391    350.2596    442.9822 307.7716383  +6.4947009     703.9509     1111.831     1656.057     77.36425     154.9755     309.8584      1.455     3.87     828.7444     54.66107     136.5515         6     0.942     0.457 -57.07   0
       392    734.2967    440.9696 307.6122208  +6.5083263     2448.426      3673.88     4086.015     77.85703      154.852     310.1668      1.476     3.65     831.9926     54.66107     405.7498        19     1.368     0.758 -43.60   0
       393    104.5332    442.4852 307.8736972  +6.4866933     574.4315     660.7523     1121.872     77.85703     155.3452      310.136      1.504     4.76     831.9681     54.66107     85.48553         5     1.132     0.567 -31.25   0
       394    998.0504    439.6167 307.5027291  +6.5176430     3929.537      6698.79     6956.452     77.24057     155.1604     309.8275      1.821     4.06     830.9199     54.66107     413.8979        32     1.425     1.221 -23.75   0
       395    254.2080    438.8879 307.8116637  +6.4931834     1611.788     2215.255     2621.991     77.36425     154.7903     309.8584      1.477     3.26     829.1693     54.66107     266.2638        13     1.142     0.692 -40.15   0
       396    332.0978    436.5937 307.7793954  +6.4967321     3275.824     4815.933     5168.205     77.48774     154.7285     309.8893      1.529     4.07     828.6177     54.66107     538.6074        20     1.500     0.738 -48.41   0
       397    687.8198    434.5265 307.6317385  +6.5094406     1603.591     2312.023     2075.824     77.36425     155.0372     310.0435      1.530     4.40     831.7609     54.66107     262.6792        15     1.473     0.736 -32.14   0
       398    961.8748    433.3191 307.5179636  +6.5190433     706.0312     907.1009     1157.281     77.97973     155.3452     310.1668      1.646     4.73     831.3636     54.66107     122.5363         7     1.178     0.538 -40.59   0
       399    219.8083    432.7793 307.8261546  +6.4945556     879.9335     1298.359     1448.385     77.36425      154.852     309.8893      1.434     4.43     829.5418     54.66107     165.5759         9     1.122     0.617 -49.32   0
       400    430.9167    428.1766 307.7386410  +6.5035047     615.2729     741.7516     582.0001     77.61103      154.852     310.0435      1.321     3.90     829.2284     54.66107     93.82208         6     0.936     0.466 -36.53   0
       401    529.4938    426.9318 307.6977450  +6.5073049     1046.937     1555.326     1404.007     77.61103     155.2221      310.136      1.532     4.34     830.1384     54.66107     193.2389         9     1.267     0.619 -46.60   0
       402    814.3556    424.6666 307.5795186  +6.5177181     1448.479     2322.281     2176.938     77.73412     155.0372      310.136      1.691     4.61     831.8356     54.66107     238.8634        16     1.347     0.928 -44.08   0
       403    451.4817    425.5432 307.7301892  +6.5052777     1302.047     1920.257     2048.788     77.85703     155.0988      310.136      1.520     4.64     829.4555     54.66107     202.9219        13     1.410     0.655 -44.69   0
       404    799.7268    423.7579 307.5856244  +6.5176072     2086.727     2852.361     3194.429     77.61103     155.1604      310.136      1.545     4.80     831.8806     54.66107     313.9637        16     1.334     0.804 -37.42   0
       405    599.3676    423.4813 307.6688428  +6.5110569     638.0873     776.1356      841.228     77.61103     155.0372     310.0743      1.262     3.86     830.2963     54.66107     90.66608         6     0.886     0.481 -87.73   0
       406    697.1956    421.6614 307.6282761  +6.5150640     15866.17     22666.43     23312.25     77.11668     154.9138     309.8584      1.488     3.62     831.2589     54.66107     2579.124        35     1.509     0.879 -41.77   0
       407    618.2952    417.6089 307.6611793  +6.5141115     2808.008     3939.124     4071.539     77.48774     154.7285     309.8893      1.540     3.65     830.2123     54.66107     466.4714        19     1.319     0.829 -35.90   2
       408    613.6519    416.2904 307.6631519  +6.5145013     526.8337     793.6998     1146.014     77.73412     154.9138     310.2593      1.174     3.42     830.0489     54.66107     101.7607         5     0.756     0.449 -21.26   2
       409    691.0126    416.3538 307.6310219  +6.5170496     672.0118     866.9089      1045.23     77.11668     154.9138     309.8893      1.422     5.03     831.0391     54.66107     104.9375         9     1.182     0.605 -45.32   0
       410    593.5022    414.7258 307.6715725  +6.5144763     5805.227     8220.841     8634.689     77.36425     155.1604     310.1051      1.520     3.64     829.8778     54.66107     904.7729        26     1.466     0.888 -37.75   3
       411    589.6806    412.1878 307.6732448  +6.5153969     15412.49     21820.79     23305.66     77.36425     154.7903      309.951      1.501     3.60     829.7238     54.66107      2619.97        38     1.554     0.898 -39.02   3
       412    922.4675    411.5388 307.5350583  +6.5267280     3960.693     5658.294     5608.779     77.73412     155.0372     310.1051      1.541     3.79     830.8752     54.66107     579.2728        24     1.367     0.901 -44.47   0
       413    361.5569    407.5888 307.7681375  +6.5096901     30772.43     44368.64     46341.72     77.24057     154.9138     309.8275      1.546     3.80     827.8995     54.66107     4788.112        49     1.566     0.963 -40.63   0
       414    398.7893    409.3479 307.7526162  +6.5102064     511.7467     613.4669     516.2486     77.11668     154.9755     309.8584      1.284     3.16     828.0281     54.66107     91.69995         5     0.843     0.607 -43.87   0
       415    878.1410    407.4247 307.5536053  +6.5269551     1656.877     2546.728     3701.788     77.36425     155.0988      309.951      1.549     3.80      830.873     54.66107     261.1973        14     1.288     0.635 -38.49   0
       416    107.6444    407.0986 307.8735987  +6.5014065     2379.908     3554.259     3392.899     77.73412     155.0372     310.3209      1.530     3.52     831.0438     54.66107       416.02        20     1.391     0.824 -46.94   0
       417     41.1826    402.5218 307.9013527  +6.5010711      1503.52     2360.885      2547.49     77.36425      154.852     310.0435      1.535     3.44     832.1739     54.66107     252.5137        17     1.256     0.850 -52.96   0
       418   1010.1466    402.4145 307.4989490  +6.5334036     3378.845     3511.317     3513.777     77.11668     155.0372     309.8584      0.825     1.82     829.8604     54.66107     1038.751         9     0.793     0.461 -79.81   0
       419    891.2343    401.9600 307.5483504  +6.5296460     5343.613     7722.251     8415.191     77.48774     154.9755     309.9201      1.481     3.65     830.7104     54.66107     838.1014        25     1.416     0.862 -44.62   0
       420    572.7766    403.5573 307.6805548  +6.5183971     590.3277     744.2929     547.1213     77.36425     154.9755      309.951      1.146     3.41     829.2782     54.66107     108.2304         5     1.026     0.327 -22.61   0
       421    219.0522    398.1779 307.8276343  +6.5088154     14475.69     21296.21     22696.48     77.24057     155.0988     309.9201      1.524     3.68     828.6293     54.66107     2167.786        39     1.519     0.950 -39.95   0
       422    948.0597    399.1005 307.5248455  +6.5327125      618.068     883.6515     986.9833     77.48774     155.0988     310.2285      1.503     4.53     830.2168     54.66107     104.6668         7     1.062     0.550 -35.27   0
       423    713.8389    392.2232 307.6223511  +6.5277714     826.7997     1265.712     1456.097     77.36425      154.852     309.8893      1.656     6.05     830.5258     54.66107     126.2435        10     1.318     0.781 -31.05   0
       424     54.8685    391.9510 307.8960261  +6.5058935     846.9264     1007.821     1155.775     77.73412     155.0372     310.1051      1.425     4.38     831.6885     54.66107     138.3138         8     0.894     0.612 -44.15   0
       425    991.9332    391.1107 307.5068912  +6.5374665     696.4687     835.0964     552.6431     77.85703     155.2836     310.0435      1.296     3.79     829.4202     54.66107     103.8308         5     0.796     0.519  62.41   0
       426    942.7493    390.2010 307.5273487  +6.5362106     1076.503      1504.62     1403.722     77.11668     154.7285     309.6732      1.489     4.50     829.8938     54.66107     169.4377        11     1.048     0.726 -46.50   0
       427    682.5248    391.1908 307.6353907  +6.5271560      738.712     1090.333     1063.908     77.36425     154.6667      309.951      1.439     2.79     830.3245     54.66107     127.0945         7     0.814     0.598 -22.80   0
       428   1023.1890    389.0087 307.4939802  +6.5393708     6868.721     8665.456     8674.519     72.91058     130.0888     240.8662      1.285     3.98     828.9741     54.66107     1328.342        20     1.253     0.835 -59.92  24
       429    165.2641    387.9060 307.8503177  +6.5112576     896.7792     1159.881      883.883     77.61103     155.1604      310.136      1.460     4.44     829.8195     54.66107     126.0139        11     1.034     0.878 -66.03   0
       430    332.2121    387.7046 307.7809932  +6.5169197     1414.336     1923.713     2433.573     77.48774      154.852     309.8893      1.432     4.17      827.237     54.66107     208.7814        14     1.166     0.794 -43.13   0
       431    119.3530    386.7521 307.8694226  +6.5101982     5319.372     7745.483     8141.838     77.73412     154.9755     310.1051      1.567     3.73     830.4714     54.66107     808.9152        24     1.489     0.806 -43.01   0
       432    360.2533    386.6861 307.7693821  +6.5182763     508.2292      715.144     800.2355     77.73412     155.0372     310.2285      1.306     4.66     827.1467     54.66107     87.16351         5     1.042     0.647  61.11   0
       433    224.1229    385.8291 307.8259446  +6.5140830     1391.632     2031.674     2602.042     77.61103     155.1604      310.136      1.539     5.61     828.1725     54.66107     220.5816        14     1.411     0.714 -36.75   0
       434    417.2753    385.5282 307.7457401  +6.5206571     697.7628     995.3443     805.0386     77.97973     155.3452     310.1051      1.394     4.27     827.2049     54.66107     110.8821         7     0.959     0.541 -60.85   0
       435    805.7097    383.2740 307.5844957  +6.5345202     760.5361     898.5309      1016.63     77.73412     155.3452      310.136      1.312     4.49     830.8771     54.66107     108.8138         9     1.126     0.560 -47.05   0
       436    141.3474    382.6195 307.8604281  +6.5126401     2680.216     4279.584     4497.597     77.24057     155.1604     309.9201      1.739     3.85     830.0726     54.66107     375.4283        24     1.504     0.908 -50.57   0
       437    536.8979    381.8468 307.6961843  +6.5261651     1131.469     1522.614     789.6945     77.73412     154.9755     310.2901      1.429     3.98     827.9935     54.66107     193.7293        11     1.172     0.684 -38.90   0
       438    953.0273    377.4025 307.5235081  +6.5418356     957.8016     1691.274     1862.154     77.24057      154.852     309.9201      1.904     7.35     829.2262     54.66107     153.2426        17     2.290     0.661 -56.65   0
       439    252.7972    377.9098 307.8143033  +6.5183108     894.7348     1278.839     986.7398     77.11668     154.7903     309.8584      1.438     4.32     827.5633     54.66107     157.8419        11     1.310     0.583 -57.81   0
       440    365.0163    377.2195 307.7677226  +6.5223435      2255.18     3159.674     2944.814     77.48774      154.852     310.0126      1.501     3.35     826.7972     54.66107     375.4614        17     1.253     0.751 -47.34   0
       441    904.7296    376.2028 307.5436075  +6.5407281     2791.159     2778.068     2371.582     77.24057     154.7285      309.951      0.671     1.16     829.9044     54.66107     1383.125         6     0.564     0.402  -0.07   0
       442    298.8802    375.5890 307.7952435  +6.5208085     705.6396     1025.614     962.5551     77.36425      154.852      309.951      1.413     3.55     826.9886     54.66107      117.847         7     1.158     0.415 -68.29   0
       443    571.7098    373.9910 307.6819904  +6.5305682     638.5345     958.0839     1682.261     77.48774     154.7903     309.8893      1.643     4.29     827.7955     54.66107     109.1797         6     1.149     0.457 -16.33   0
       444    418.6740    370.9493 307.7456494  +6.5267227     7750.275     11153.22     11364.23     77.73412     155.1604      310.136      1.521     3.75     826.6537     54.66107     1351.806        29     1.524     0.858 -41.12   0
       445     15.0600    371.7755 307.9132385  +6.5128895       3313.3     5062.266     5306.086     77.36425     155.0988     309.9818      1.616     3.88      832.087     54.66107     558.8983        25     1.730     0.765 -45.44   0
       446    759.3662    368.2957 307.6042449  +6.5391639     13806.23     19576.86     20401.46     77.85703     154.9755     310.1976      1.480     3.68     830.3694     54.66107     2171.934        37     1.501     0.911 -38.51   0
       447    751.3657    369.8719 307.6075148  +6.5382471     2038.851     2985.868     2738.632     77.61103     155.0372     310.1051      1.522     3.65      830.364     54.66107     343.3904        15     1.325     0.696 -41.30   0
       448    590.0009    371.2719 307.6744852  +6.5322999     543.3713     668.1393     486.0861     77.11668     154.6667     309.9201      1.383     3.86     827.7706     54.66107     91.03143         5     0.848     0.504 -48.00   0
       449    179.8092    370.9366 307.8448494  +6.5187498     648.1817     769.6675     759.4902     77.24057     154.9138     309.9201      1.267     3.40     828.9542     54.66107     117.8318         6     1.056     0.687  86.83   0
       450    322.9930    366.8041 307.7855252  +6.5252406     1098.026     1528.196     1659.776     77.11668     154.7903     309.9818      1.431     3.97     826.5922     54.66107     204.1028        10     1.193     0.602 -38.09   0
       451   1003.2280    363.3750 307.5031274  +6.5492921     3783.449     5631.517     5779.558     77.24057     154.9138     309.9818      1.534     3.55      827.752     54.66107     606.3804        24     1.519     0.842 -41.46   0
       452    934.9017    359.5238 307.5316342  +6.5486156     499.7455      578.116       502.36     77.36425     155.3452     310.1051      1.188     4.27     828.8205     54.66107     95.95367         6     0.951     0.546 -71.52   0
       453    167.9136    359.0491 307.8501902  +6.5232596     690.6588     1109.409     932.7208     77.73412     155.0372      310.136      1.641     4.70      828.951     54.66107     144.1682        10     1.423     0.548 -48.60   0
       454    466.9291    354.5705 307.7261593  +6.5350941     3355.983     4853.017     5049.337     77.61103     155.0988     310.1051      1.502     4.15     826.2062     54.66107     523.9711        22     1.465     0.835 -45.70   0
       455    439.1569    355.0901 307.7376760  +6.5339534     2530.425     3759.811     3977.047     77.73412     155.0372     310.1668      1.528     3.46       826.11     54.66107     371.3134        19     1.313     0.844 -54.56   0
       456    895.3127    354.3638 307.5482494  +6.5494320     838.9081     1097.983     1054.515     77.73412     154.9755     310.1051      1.503     4.26     829.5345     54.66107     126.4243        10     1.021     0.775  39.38   0
       457    824.7182    351.2101 307.5776750  +6.5483896      34358.5     51264.96     53404.78     77.36425     154.7903      309.951      1.580     3.65     830.1694     54.66107     5183.399        53     1.584     1.032 -47.83   0
       458   1018.6340    349.3493 307.4971976  +6.5555937     493.3062     862.0041     1149.719     77.61103     155.1604     297.4527      1.843     4.11     826.7861     54.66107     79.83838         5     1.019     0.474  -3.19  16
       459     42.7371    347.8518 307.9025523  +6.5236931     670.1103     1093.275     1415.402     77.73412     155.0372     310.0743      1.764     5.29     831.0434     54.66107     108.4267         8     1.123     0.783 -76.32   0
       460    317.0404    346.8679 307.7886684  +6.5332724     885.1951     1248.351     921.5635     77.61103     155.0372     310.1668      1.499     5.73     826.0401     54.66107      148.696        12     1.530     0.606 -26.90   0
       461      4.7793    344.1028 307.9184421  +6.5239694     1213.037     1699.368     1545.036     77.61103     154.9138     281.1599      1.576     5.33     831.6398     54.66107     160.3694        13     1.380     0.677 -46.32  16
       462    596.6218    343.5891 307.6726647  +6.5439494     2903.236     3830.792     4027.794     77.36426      154.852     309.9818      1.437     3.64     826.6405     54.66107     463.2877        17     1.277     0.783 -44.33   0
       463    564.4818    343.8160 307.6860055  +6.5427853     454.1391     831.4949     1071.872     77.36425     154.7903     309.9818      1.386     3.12     826.3611     54.66107     95.08569         5     0.741     0.455 -69.43   0
       464    128.0596    342.0624 307.8673140  +6.5289392     610.7427     1050.252      850.491     77.73412     155.0372      310.136      1.441     4.05     829.3214     54.66107     112.8572         6     1.008     0.466 -37.79   0
       465    681.1219    337.2088 307.6377838  +6.5493961     84613.76     120830.6     124791.2     77.36425     154.6049      309.951      1.492     3.68     828.2284     54.66107     12302.77        71     1.553     1.000 -40.03   0
       466    839.4623    338.4961 307.5719770  +6.5541285     1317.946     1911.858     2190.742     77.48774     155.1604     310.1668      1.585     3.15       829.58     54.66107     233.0953        12     1.136     0.650 -54.11   0
       467     60.4301    336.6612 307.8955822  +6.5289055     1441.948     2031.434     2122.859     77.48774     155.0988     310.0743      1.484     3.70     830.4778     54.66107     251.9155        13     1.303     0.659 -38.74   0
       468    922.8322    334.1220 307.5374969  +6.5587025     904.0186     1308.152     1133.706     77.61103     155.0988     310.0743      1.391     4.50     828.2438     54.66107     155.4331         8     1.191     0.483 -47.54   0
       469    543.6597    333.9852 307.6949835  +6.5461502     2831.348     4270.283     4485.908     77.24057     155.0372     309.8584      1.569     3.61     825.8275     54.66107      453.727        22     1.426     0.896 -38.14   0
       470    371.1894    333.7449 307.7666215  +6.5404980     489.2131     614.7752     843.6323     77.11668     155.0372     309.7967      1.336     3.83     825.3511     54.66107     91.04248         5     0.932     0.452 -46.58   0
       471     80.8536    332.7644 307.8872320  +6.5311980     6655.719     9724.455      10277.4     77.61103     155.0988      310.136      1.559     3.64     830.0451     54.66107     1041.303        32     1.484     0.958 -37.36   0
       472    741.8962    331.9662 307.6127182  +6.5535820     661.7316     1076.049     1143.929     77.85703     154.9755     310.2285      2.125     5.02     829.1132     54.66107     104.6287         7     1.114     0.640 -30.60   0
       473    526.8433    330.1093 307.7020979  +6.5471901     7520.968     10756.81     10897.21     77.73412     155.0372     310.1976      1.503     3.78     825.5938     54.66107     1289.482        28     1.443     0.864 -42.03   0
       474    255.9119    327.6329 307.8147031  +6.5391714     2852.677     4135.718     3532.557     77.85703     154.9755     310.1051      1.462     3.25     826.3012     54.66107     480.1644        21     1.359     0.833 -41.83   0
       475    389.7726    325.2669 307.7591888  +6.5446183     27784.39     40228.11     41482.79     77.36425     155.0372     310.0126      1.534     3.61     825.0762     54.66107     4429.344        47     1.540     0.972 -41.54   0
       476    569.0921    323.9595 307.6847575  +6.5511367     619.0287     912.0444     558.4484     77.85703     155.0372     310.1668      1.349     3.52     825.6671     54.66107     112.2005         6     0.901     0.472 -57.83   0
       477    497.7939    323.7005 307.7143781  +6.5488678     1385.288     1744.042       1717.4     77.48774     154.7285     309.8584      1.363     3.33     825.2361     54.66107      227.768        12     1.022     0.772 -39.16   0
       478    369.6182    323.3898 307.7676224  +6.5447206     1197.621     1584.551     2252.797     77.48774     154.7903     309.9818      1.542     4.83     825.0096     54.66107     195.2842        13     1.464     0.607 -44.26   0
       479    469.2272    320.6172 307.7263461  +6.5491884     1159.743     1701.763       1758.9     77.36425      154.852     310.0126      1.499     3.65     825.0331     54.66107     197.9734        11     1.168     0.664 -44.94   0
       480    366.9111    317.8232 307.7689340  +6.5469285     705.0276     1119.207     1245.127     77.73412     154.9138     309.9818      1.747     5.53     824.8541     54.66107     113.0387        10     1.464     0.589 -57.87   0
       481    784.9191    317.8453 307.5953225  +6.5608421      981.288     1295.426     1260.438     77.73412     155.0988     310.1051      1.325     3.70     828.6315     54.66107     151.2651         9     1.066     0.596 -51.24   0
       482    620.6848    317.1554 307.6635579  +6.5556638     726.5222     836.5838     955.8351     77.73412     155.0372     310.1051      1.264     4.04     825.9413     54.66107     126.3372         7     0.785     0.624 -71.24   0
       483    478.8289    315.6643 307.7225247  +6.5515533      9153.42     13059.44     13273.68     77.48774     155.0988     310.0435      1.517     3.88      824.877     54.66107     1439.685        29     1.482     0.855 -38.85   0
       484    903.3326    314.5423 307.5462511  +6.5661390     1005.717     1395.476     1732.275     77.85703     155.0372     310.0743      1.695     5.63     827.9697     54.66107      165.312        10     1.410     0.632 -52.52   0
       485    748.0319    314.3708 307.6107596  +6.5610504     3318.042     4880.448     5443.623     77.24057      154.852     309.8584      1.508     4.04      828.344     54.66107     496.8187        20     1.419     0.800 -42.86   0
       486    696.2025    313.8185 307.6323048  +6.5595547     697.3423     850.0586      931.229     77.36425     154.6667     309.8584      1.169     3.06      827.215     54.66107     146.7234         8     0.984     0.591 -81.04   0
       487    305.6913    312.2304 307.7945478  +6.5471933     1169.537     1594.205     1616.916     77.85703     154.9138     310.0743      1.437     3.94     825.3534     54.66107      197.101        11     1.201     0.657 -60.46   0
       488    140.8034    306.2225 307.8632301  +6.5441618     1183.745      1749.71     2140.327     77.36425     154.7903     309.9201      1.705     5.01     828.2309     54.66107     187.2027        12     1.257     0.704 -39.62   0
       489    417.4714    305.6277 307.7483454  +6.5536506      567.338     897.3491     584.4693     77.48774     155.0372     310.0435      1.734     4.91     824.4875     54.66107     102.1421         7     1.367     0.500 -37.99   0
       490    588.2669    304.0779 307.6774611  +6.5599835     527.4663     807.5786     480.9413     77.85703     155.1604     310.0743      1.320     3.82     825.0895     54.66107     114.4791         6     1.332     0.315 -61.80   0
       491    224.5038    300.4291 307.8286637  +6.5493526     2368.477     3470.803     3801.529     77.85703      154.852     310.1051      1.490     3.73     826.0118     54.66107     397.1392        17     1.353     0.739 -40.38   0
       492    368.6905    299.8390 307.7688001  +6.5544126      7886.23     11427.24     11525.35     77.73412     155.0372      310.136      1.520     3.62     824.2963     54.66107     1315.707        30     1.505     0.881 -39.41   0
       493    722.4011    299.6811 307.6218976  +6.5662628     965.3694     1450.371     1736.105     76.99261     154.6667     309.8584      1.565     3.80     827.2333     54.66107     179.6881        10     1.199     0.680 -49.27   0
       494    736.6112    295.7374 307.6161277  +6.5683636     57482.43     81210.82      83935.3     77.24057     154.9138     309.9201      1.518     3.85     827.5275     54.66107       9167.8        59     1.536     0.974 -40.82   0
       495    408.2546    295.2314 307.7525231  +6.5576351     2394.877     3445.065     3854.809     77.61103     155.1604     310.0743      1.576     3.95     824.1428     54.66107     369.0081        16     1.344     0.742 -46.19   0
       496    971.2273    292.7911 307.5187788  +6.5773722     1827.747     2891.562     3295.377     77.36425     154.9138     309.9818      1.699     4.52     826.2651     54.66107     266.6288        23     1.555     0.984 -29.15   0
       497    912.5098    291.9588 307.5431952  +6.5757674     2395.407     3268.096     3044.924     77.73412     155.0988      310.136      1.447     3.84     827.0659     54.66107     403.8083        17     1.343     0.751 -44.57   0
       498    554.4141    292.5599 307.6919081  +6.5636111      1390.58     2135.236     2192.772     77.24057     154.9138     309.8584      1.568     3.39     824.4007     54.66107     252.6271        15     1.230     0.840 -37.41   0
       499    394.8331    290.8751 307.7582439  +6.5589858     2073.809     3156.055     3052.147     77.61103     155.0988     310.0743      1.571     3.93     824.0176     54.66107     340.5963        16     1.346     0.747 -47.41   0
       500    445.3067    291.5404 307.7372584  +6.5603950     1243.146     1820.212      1523.01     77.61103     155.0372     310.1976      1.537     4.45      824.053     54.66107     188.7906        12     1.298     0.665 -52.38   0
       501    681.5345    290.1592 307.6391905  +6.5688345     2371.835     2522.536     2820.793     77.73412     155.0372     310.1976      0.905     2.10      825.372     54.66107     608.0031         7     0.783     0.484 -78.65   0
       502    274.4919    290.2406 307.8082460  +6.5552295     748.5295     979.7595     927.1149     77.73412     155.0372     310.1668      1.500     4.92     825.3225     54.66107     109.2158         9     1.265     0.543 -29.45   0
       503    445.3333    285.6530 307.7374452  +6.5628265     760.8286     1146.756     1288.366     77.73412     155.0372     310.0435      1.782     3.87     823.8661     54.66107     133.8713         9     1.121     0.540 -44.00   0
       504    948.0332    283.6370 307.5287188  +6.5803821     540.4246     890.3072     849.4385     77.36425      154.852     309.8893      1.747     6.59     826.3188     54.66107     93.02008         8     1.185     1.028  79.47   0
       505    816.3730    284.9735 307.5833596  +6.5754587     1161.504     1938.623     2098.395     77.24057     154.9138      309.951      1.717     5.01     827.2065     54.66107     199.7894        13     1.320     0.804 -30.37   0
       506    171.2306    282.2299 307.8514023  +6.5550847     2554.593     3858.051     3962.257     77.24057      154.852     309.8584      1.588     3.59     826.8477     54.66107     389.8848        21     1.431     0.850 -43.61   0
       507    735.0862    280.3529 307.6172769  +6.5746644     6649.424     9438.269     9657.594     77.73412     155.0372     310.1051      1.485     3.82     826.8276     54.66107     968.4099        29     1.464     0.878 -41.63   0
       508    425.4331    282.3071 307.7458230  +6.5635441     1279.886     2042.864     2208.902     77.85703     154.9755     310.1668      1.809     3.83     823.7724     54.66107     206.9958        12     1.316     0.640 -45.12   0
       509    325.7038    279.9995 307.7873212  +6.5611681     740.9388     976.4464     650.5797     77.24057     154.7285     309.7041      1.396     4.83     824.3206     54.66107     117.1721         9     1.186     0.557 -28.60   0
       510    206.8761    280.2058 307.8366663  +6.5571124      876.121     1267.033     1661.445     77.36425     154.6049      309.951      1.716     3.72      826.043     54.66107     142.2755         9     1.001     0.744 -39.93   0
       511     67.5788    279.2865 307.8945496  +6.5528313     1300.325     2014.113     2193.839     77.73412      154.852     309.9818      1.760     4.39     829.1871     54.66107     213.1361        11     1.215     0.675 -40.27   0
       512    751.4839    278.2485 307.6105367  +6.5760785     2879.809     4155.403      4203.13     77.73412     155.0988      310.136      1.524     3.95     826.8479     54.66107     443.9487        18     1.379     0.746 -46.22   0
       513     54.3486    273.6836 307.9002333  +6.5547014     1372.159     2119.909     1618.822     77.73412     155.0372     310.1976      1.428     5.24     829.2883     54.66107      239.583        12     1.541     0.503 -42.08   0
       514    340.9289    273.1147 307.7812295  +6.5645188     1938.425     3533.675     3582.546     77.85703     155.3452      310.136      1.919     6.13     823.8984     54.66107     245.3812        26     1.888     0.900 -14.20   0
       515    989.6983    269.1576 307.5118971  +6.5877422     6176.202     8832.351     9263.894     77.73412     154.9755     310.3209      1.523     3.82     825.0501     54.66107     973.9102        27     1.485     0.876 -37.90   0
       516    629.2015    270.5876 307.6615834  +6.5751731     483.1841     699.6145     883.1819     77.36425     154.7903     309.8893      1.277     3.40     824.3646     54.66107     89.71234         5     0.791     0.423 -22.14   0
       517    467.6873    269.0429 307.7287192  +6.5704295     2202.221       3095.2     2849.998     77.73412     154.9755      310.136      1.513     4.15     823.2788     54.66107     393.9991        19     1.435     0.789 -38.64   0
       518    230.3234    264.6036 307.8274538  +6.5643375     6223.346     9040.372     9331.591     77.24057     154.6049      309.951      1.562     3.62     825.4719     54.66107     964.0757        33     1.599     0.876 -44.50   0
       519    238.8432    265.3664 307.8238896  +6.5643073     587.1961     815.6948     2017.888     77.48774     155.0988     309.9201      1.445     3.15     825.3807     54.66107     102.2061         6     0.729     0.629  75.73   0
       520    795.0283    262.9811 307.5929620  +6.5838292     538.4503     584.1453     469.4267     77.36425     154.9138     310.0435      1.228     4.21     826.3914     54.66107     88.39856         7     0.962     0.526 -44.02   0
       521    921.5832    260.0004 307.5404959  +6.5892629     511.1701     820.5392     1104.658     77.36425     154.6667     309.7967      1.452     4.16     825.6219     54.66107      127.986         6     1.001     0.493 -89.06   0
       522    750.2819    258.0615 307.6117126  +6.5843729     757.8252     1160.742     856.7183     77.85703     155.0988     310.1051      1.505     3.54     826.1069     54.66107     121.2496         7     0.855     0.589 -61.82   0
       523    207.5663    257.1529 307.8371565  +6.5666527     547.8233     770.1236     549.5163     77.48774     155.0988     310.0435      1.169     3.40     825.6866     54.66107     124.3203         5     0.840     0.398 -66.41   0
       524    770.0837    255.8682 307.6035613  +6.5859367     501.8833     451.8299      416.677     77.97973     155.3452      310.136      1.066     3.64     826.0772     54.66107     95.93213         5     1.012     0.377 -56.56   0
       525    364.4958    255.3020 307.7720408  +6.5726595     1589.676     2709.511      2609.14     77.73412     155.6526      309.951      1.859     4.66     823.2753     54.66107     222.2137        19     1.307     1.023 -39.44   0
       526    951.5078    254.2180 307.5282598  +6.5926433     1108.014     1663.822      2042.89     77.61103      154.852     309.9818      1.477     4.85     824.9963     54.66107     200.9878        13     1.442     0.753 -39.18   0
       527    286.8835    251.2255 307.8044133  +6.5717507     1264.482     1793.948     1567.149     77.73412      154.852     310.0743      1.593     3.73     824.7264     54.66107     181.2959        12     1.106     0.757 -45.30   0
       528    171.8319    252.0475 307.8521701  +6.5675654     510.0234      615.057     922.8177     77.48774     155.0988     310.0126      1.395     3.87     826.0707     54.66107     82.11359         5     0.851     0.506 -32.64   0
       529    134.1218    251.1263 307.8678631  +6.5666841     1989.294      2982.41     3263.364     77.97973     155.3452      310.136      1.508     4.46     827.0162     54.66107     298.3877        16     1.442     0.715 -39.25   0
       530    543.7161    246.9796 307.6978824  +6.5820726     2404.237     3687.808      3357.76     77.48774     154.7903     310.0435      1.609     4.44     822.9863     54.66107     376.1781        19     1.403     0.816 -41.25   0
       531    887.4943    245.9127 307.5551267  +6.5939475     1787.592     2757.747     2973.773     77.73412     155.5297     310.1668      1.685     5.39     825.1243     54.66107     302.0414        19     1.358     1.115  -1.74   0
       532    707.3864    244.4727 307.6299852  +6.5885565      5503.27      7800.06     7507.691     77.24057      154.852     309.8893      1.531     3.88     825.0273     54.66107     944.6732        24     1.435     0.840 -39.27   0
       533    648.2242    244.2031 307.6545678  +6.5866992     2327.022     3323.738     3524.848     77.36425     154.7903     309.9201      1.455     4.12     824.0176     54.66107     393.9911        18     1.529     0.720 -44.24   0
       534    946.1657    243.7065 307.5308303  +6.5968058     746.9272     1005.883     697.9044     77.85703     154.9755     310.1976      1.469     4.68     824.6608     54.66107     142.6382         8     1.178     0.527 -45.48   0
       535    362.8322    239.3117 307.7732699  +6.5792056     663.2319      987.061      542.627     77.85703     154.9138     310.1051      1.410     6.23     822.9598     54.66107     117.6207         9     1.404     0.777 -37.93   0
       536    903.7415    236.4247 307.5486957  +6.5984041     1140.679     1302.095     1401.503     77.36425     155.0988      309.951      1.332     3.52     824.6089     54.66107     164.5992        10     1.084     0.619 -49.12   0
       537    207.1819    229.6627 307.8382427  +6.5779889     2426.961     3469.115     3466.155     77.36425     155.0372     309.9818      1.503     3.46     825.2991     54.66107     427.9601        20     1.352     0.833 -45.61   0
       538    849.6990    228.6145 307.5714049  +6.5998341     1834.577     2477.783     2323.323     77.73412      154.852     309.8275      1.488     3.85     824.5281     54.66107     287.1049        15     1.306     0.717 -34.88   0
       539    740.3072    227.9084 307.6168665  +6.5964901     1634.542      2188.96     2068.509     77.73412     155.5912     310.1051      1.326     3.63     824.9773     54.66107     244.2566        15     1.305     0.684 -49.09   0
       540    228.6574    223.7666 307.8295218  +6.5811410     655.1661     898.2918     825.4669     77.61103     155.0988     310.0743      1.257     3.41     825.0856     54.66107      121.892         5     0.723     0.466  80.48   0
       541    766.9442    218.7731 307.6061086  +6.6011473     14176.59     20287.27     21769.97     77.36425     155.1604     309.9201      1.525     3.63     824.6237     54.66107     2328.352        45     1.684     0.944 -35.32   0
       542    440.9055    219.6406 307.7415039  +6.5899319     24715.01     36056.73     37471.43     77.85703     155.0372     310.1976      1.550     3.85     821.9947     54.66107     3991.192        46     1.545     0.977 -40.88   2
       543    446.7028    213.8543 307.7392905  +6.5925142     1509.849     2201.088     2540.631     77.61103     155.0988     310.3209      1.586     4.65     821.7857     54.66107     232.7087        15     1.409     0.717 -39.03   3
       544    302.2241    221.0723 307.7990571  +6.5847117     774.9866     1154.073     882.3419     77.36425     154.9755     310.0435      1.529     4.73     824.0516     54.66107     107.4185         9     1.388     0.458 -63.80   0
       545    263.9597    221.0960 307.8149492  +6.5834235      519.996     486.3025     652.0265     77.73412     154.9755     310.2593      1.166     3.69     824.6702     54.66107     101.9539         5     1.039     0.377 -33.27   0
       546    705.6536    214.3186 307.6317162  +6.6009481     695.8317     980.5123     896.9565     77.73412     155.0988     310.1668      1.448     3.03     824.0349     54.66107     127.9323         7     0.837     0.801 -48.18   0
       547    129.0694    212.8819 307.8712515  +6.5823038     2519.136      3628.49     3953.758     77.97973     155.3452      310.136      1.585     4.07      826.213     54.66107     415.1432        21     1.494     0.791 -44.22   0
       548    103.7955    211.9730 307.8817793  +6.5818332     1163.092     1728.959     1921.406     77.24057     154.9138      309.951      1.535     5.12      826.899     54.66107     187.2716        10     1.422     0.522 -41.37   0
       549    759.2557    211.0328 307.6095616  +6.6040873     674.7732     1299.083      1522.96     77.61103     155.1604     310.0743      2.196     4.26     824.1903     54.66107     83.14319         7     0.738     0.699 -79.45   0
       550    156.1368    210.9340 307.8600750  +6.5840137     614.5769      708.768     669.2928     77.73412     155.0988     310.1051      1.151     5.09     825.4117     54.66107     117.5335         8     1.230     0.595 -47.81   0
       551    903.2974    209.1379 307.5497935  +6.6096550       1543.4     1964.031      2179.19     77.48774     155.1604     310.1668      1.432     3.84     823.2351     54.66107      220.559        15     1.232     0.808 -44.66   0
       552    601.0369    207.7995 307.6753895  +6.6001576      532.024     494.5862     394.0565     76.86832     154.9138     309.9201      1.227     3.71     822.3514     54.66107     112.8157         5     0.824     0.480 -49.68   0
       553    564.9371    205.3295 307.6904670  +6.5999749     4983.801     7351.401     7235.113     77.73412     155.0988      310.136      1.547     3.83     821.8144     54.66107     751.9578        28     1.499     0.879 -41.95   0
       554    285.6197    206.1595 307.8064559  +6.5903137     1215.315      1589.79     995.2355     77.36425     154.9138     309.8584      1.343     3.84     824.4083     54.66107     198.5148        10     1.245     0.514 -45.17   0
       555    527.5729    205.4116 307.7059841  +6.5986960     2255.546     3191.406     3155.634     77.36426     154.9138     310.0435      1.483     3.81     821.4232     54.66107     379.4301        17     1.363     0.720 -41.56   0
       556      3.3733    205.7356 307.9236985  +6.5810452     544.5834     741.2819     1136.876     77.36425     148.2273     263.6455      1.760     4.15     829.7064     54.66107     100.2505         5     1.046     0.469 -82.84  16
       557    369.5119    204.4747 307.7716678  +6.5938108     1661.695     2306.704     2074.999     77.73412     155.4067     310.1976      1.467     4.12     822.5269     54.66107     250.1426        15     1.408     0.678 -51.07   0
       558    925.9380    202.4544 307.5406128  +6.6131658     2962.607     4217.869     3826.925     77.85703     155.0372     310.0743      1.523     3.59     822.7928     54.66107     417.2567        19     1.406     0.795 -38.29   0
       559    872.0060    201.9074 307.5630334  +6.6116012     11800.66     16785.21        17481     77.36425     154.7903     309.9201      1.460     3.90      822.938     54.66107      1843.94        31     1.462     0.896 -46.40   0
       560    547.1546    201.9859 307.6979656  +6.6007628     942.6523     1556.706     1646.776     77.11668     154.9138     309.8893      1.513     4.79     821.4619     54.66107     155.0155        12     1.357     0.611 -49.02   0
       561    299.6142    202.4362 307.8007686  +6.5923183     873.8557      1417.95     2009.942     77.36426     154.9138     309.8893      1.847     4.67     824.0887     54.66107     162.8984        12     1.266     0.772 -38.18   0
       562    191.0645    202.0192 307.8458686  +6.5888623     721.2054     950.1857     1249.645     77.36425     155.0988      309.951      1.432     4.48     825.0721     54.66107     118.8286         7     1.097     0.521 -39.23   0
       563    958.6282    199.7575 307.5271241  +6.6153641     10227.33      14696.7     15116.96     77.36425     155.0988     309.9818      1.528     3.73     822.4307     54.66107     1613.954        31     1.493     0.903 -37.91   0
       564    670.0481    199.7116 307.6469957  +6.6057940     3066.433     4492.128     4685.759     77.73412     154.9755     310.1976      1.534     3.77     823.2474     54.66107     465.8748        19     1.347     0.807 -40.97   0
       565    244.3614    199.7137 307.8238096  +6.5915960     1142.228     1632.574     1463.853     77.73412     155.0372     310.1051      1.497     4.36     824.7837     54.66107     174.4762        12     1.315     0.622 -41.05   0
       566      1.2265    198.0834 307.9248486  +6.5841323     1109.163     1868.424     2396.256      66.3181     121.5001     231.7217      1.557     3.84      829.618     54.66107     266.1862        11     1.527     0.417  88.39  24
       567    478.9138    194.6061 307.7265584  +6.6015350     2100.976     3019.051     3584.484     77.24057     154.7903     309.8275      1.536     3.28     820.7941     54.66107     366.6213        16     1.233     0.794 -33.90   0
       568    810.5756    191.2340 307.5889080  +6.6139672     2079.339     2844.523     2774.409     77.24057     154.9138     309.8893      1.423     3.85       823.28     54.66107     327.3937        17     1.352     0.727 -47.69   0
       569    396.6100    192.0628 307.7608300  +6.5998395     626.8277     976.8983     1367.988     77.24057     154.9138     309.9201      1.763     3.94     822.1076     54.66107     98.49481         5     0.925     0.480 -83.90   0
       570    862.9769    190.3228 307.5671719  +6.6160841     2221.799     3047.069     3122.404     77.36425     154.9755     310.0435      1.466     3.99      822.374     54.66107     343.6334        18     1.382     0.757 -45.25   0
       571    490.5988    190.5321 307.7218418  +6.6036065     2844.233     3963.892     4515.771     77.24057     154.6667     309.9201      1.509     3.78     820.6946     54.66107     443.5876        16     1.344     0.704 -41.68   0
       572    722.1533    187.8566 307.6257501  +6.6124219     42802.14     60613.94     62396.48     77.73412     155.0988     310.1976      1.472     3.73     822.8608     54.66107      6886.01        52     1.530     0.952 -41.27   0
       573    325.1911    187.4074 307.7906512  +6.5993772     6331.736     12137.29      13364.5     77.11668     154.9138     309.9818      2.020     6.36     823.4163     54.66107     850.3934        44     2.049     1.066 -64.10   0
       574    956.1292    186.5760 307.5286031  +6.6207233     3005.032     4167.909     4414.868     77.36425     154.9755     310.0435      1.484     3.58     821.7937     54.66107     490.8018        17     1.303     0.756 -42.44   0
       575    994.4481    185.4263 307.5127243  +6.6224690     1835.231     2656.141     2417.897     77.36426     155.1604     310.0435      1.584     3.84      821.504     54.66107     261.6408        19     1.277     0.988 -43.18   0
       576    890.0986    184.9060 307.5560873  +6.6192211     7741.367     11223.46     11304.52     77.73412     155.6526      309.951      1.492     3.96     821.9833     54.66107     1198.679        27     1.488     0.862 -46.19   0
       577    433.5722    184.0300 307.7457474  +6.6043891     5396.998     7785.841     7700.634     77.24057      154.852     309.8893      1.477     3.70     821.3765     54.66107     875.4305        25     1.458     0.808 -42.03   0
       578    208.1548    180.7794 307.8394862  +6.5982025     770.6307      1172.18     856.5065     77.36425     154.9755     309.9201      1.638     4.18       824.84     54.66107     126.2328         8     1.055     0.505 -49.85   0
       579     90.9684    175.4272 307.8883401  +6.5964913     4999.715     7403.518     7818.948     77.24057      154.852     309.9201      1.528     3.60      826.103     54.66107     767.1591        26     1.435     0.859 -43.29   0
       580    910.3195    174.5698 307.5480337  +6.6241598     1030.583     1453.059     2020.662     77.61103     155.0372     310.0743      1.585     4.35     821.3533     54.66107     150.7393        12     1.297     0.699 -34.62   0
       581    261.2356    172.0971 307.8177313  +6.6035613     36051.52     52910.05     55439.36     77.73412     154.9755     310.2593      1.547     3.76     824.5303     54.66107     5070.394        55     1.597     0.995 -41.67   0
       582    587.5104    173.8431 307.6821481  +6.6137260     502.9812       909.54     1212.442     77.73412     154.9755      310.136      1.727     3.47     821.2283     54.66107     86.33301         5     1.207     0.288 -36.29   0
       583    236.6350    173.1392 307.8279143  +6.6023088       7082.5     10260.53     10705.43     77.73412     155.0988     310.0743      1.508     3.83     824.6833     54.66107     1096.717        28     1.456     0.877 -41.79   0
       584    690.3706    171.4524 307.6395022  +6.6181372     995.5482     1428.418     1105.053     77.48774     155.2221     310.0126      1.385     3.60     822.1824     54.66107     195.4552        10     1.223     0.581 -33.35   0
       585    385.3105    167.5901 307.7663468  +6.6095658     53751.18     78130.48     80916.48     77.48774     154.7903     309.9201      1.555     3.75     822.0529     54.66107     8387.026        65     1.603     1.020 -40.72   0
       586    141.2382    168.8740 307.8676816  +6.6008792     4265.922     6390.457     6448.455     77.61103     155.1604     310.1668      1.564     4.07      825.053     54.66107     619.7131        28     1.545     0.880 -46.09   0
       587    402.8609    167.7878 307.7590502  +6.6100699     1515.562     1934.714     1731.736     77.11668     154.9138     309.7967      1.410     4.12     821.7196     54.66107     216.6993        10     1.187     0.597 -53.29   0
       588    522.9633    166.2626 307.7092141  +6.6147051     567.3841     908.8572     1116.732     77.73412     155.1604     310.1051      1.820     4.71     819.9425     54.66107     96.45288         6     1.307     0.481 -56.78   0
       589    296.7799    164.7623 307.8032146  +6.6077770     2287.688     4011.712     4884.504     77.36425      154.852     309.8584      2.023     7.01     824.1404     54.66107     342.8956        35     2.413     1.003 -58.25   2
       590    289.3140    165.2744 307.8062984  +6.6073162     19766.64     28624.06     29472.87     77.85703     155.4067      310.136      1.527     3.73     824.3546     54.66107      2901.87        41     1.523     0.958 -42.56   2
       591    724.6041    163.7220 307.6255414  +6.6224675     35768.86     50608.01     52433.87     77.36425     154.6049     309.9201      1.509     3.81     821.6457     54.66107     5555.652        49     1.515     0.952 -42.97   0
       592    672.7833    165.5181 307.6470068  +6.6200020     1095.517      1637.33     1983.068     77.36425     154.7903     309.9818      1.668     5.01     822.0944     54.66107     159.9904        10     1.283     0.554 -49.87   0
       593    772.9799    164.2120 307.6054302  +6.6238738     1249.746      1871.31     1914.796     77.36425     154.7903     310.0126      1.605     4.38     821.9253     54.66107     219.8293        12     1.308     0.605 -46.25   0
       594     12.6449    163.9281 307.9212596  +6.5986154     745.5257     1229.829     1055.817     77.61103     155.0988     310.1051      1.734     5.26      828.558     54.66107     95.03284         9     0.958     0.816  -8.27   0
       595     41.3890    161.0494 307.9094180  +6.6007667     9625.522     14588.13      15133.5     77.11668     154.9755     309.7967      1.583     3.77     827.4792     54.66107     1445.916        36     1.514     0.989 -40.86   0
       596    548.1517    162.3268 307.6988837  +6.6171693     557.0179     749.7263     1219.427     77.73412     155.1604      310.136      1.303     4.15     819.8746     54.66107     87.70215         6     0.766     0.641 -48.60   0
       597     75.4591    159.0855 307.8953333  +6.6027185     1689.953     2555.923     2342.968     77.73412     155.0988     310.1976      1.549     3.93     826.2117     54.66107     231.6921        18     1.339     0.866 -42.50   0
       598    983.1286    158.0627 307.5183415  +6.6333909     1002.324     1263.402     1283.219     77.73412     155.0988     310.1668      1.312     3.25     820.3339     54.66107     173.4355         8     0.915     0.679 -26.13   0
       599    951.2562    156.7787 307.5316242  +6.6328636     403.3931      454.937      710.387     77.36425     155.0988     309.9201      1.213     3.80     820.3251     54.66107     82.39557         5     1.313     0.315 -58.98   0
       600    558.4193    148.0703 307.6950976  +6.6233972     968.8419     1251.028     1303.428     77.36425     154.9755     310.0435      1.474     5.11      819.853     54.66107     137.7474        10     1.349     0.630 -53.40   0
       601    984.1089    144.3827 307.5183918  +6.6390713     2326.801     3617.751     4073.784     77.48774      154.852     310.0126      1.648     3.78      819.687     54.66107     339.7701        20     1.344     0.940 -44.09   0
       602    575.4185    140.0756 307.6883049  +6.6272642     2080.802     3189.816     3098.934     77.24057      154.852     310.0435      1.539     4.17     819.9932     54.66107     348.4707        18     1.440     0.779 -47.32   0
       603    567.0853    141.9435 307.6917037  +6.6262154     1126.653     1484.951     1727.406     77.73412     155.0988     310.2593      1.369     4.98     819.9025     54.66107     176.0496        12     1.361     0.667 -34.09   0
       604    319.4562    140.4558 307.7946140  +6.6185693     1136.687     1459.312     1390.107     77.97973     155.0988      310.136      1.514     4.19     823.7463     54.66107     163.5112        13     1.187     0.719 -51.45   0
       605    260.1282    138.3607 307.8193279  +6.6174521     32274.86      47773.5     49687.97     77.61103     155.0988     310.1668      1.556     3.82     824.4507     54.66107     4818.409        50     1.590     0.982 -41.72   0
       606      5.4212    136.8557 307.9251743  +6.6095497     4693.174     7119.307     7570.246     77.24057     155.0988     288.3453      1.604     3.72     828.8812     54.66107     673.0256        28     1.509     0.911 -43.57  16
       607    691.7842    134.9441 307.6401397  +6.6332568     8537.972     12119.52     12538.79     77.11668     155.0372     309.8275      1.475     3.76      820.319     54.66107     1444.924        26     1.430     0.829 -42.71   0
       608    169.6042    135.9016 307.8570115  +6.6154405     1045.946     1399.497     1324.277     77.48774     154.7903     309.7967      1.495     3.93     824.1304     54.66107     142.8995        10     1.120     0.644 -44.44   0
       609    246.1770    133.0821 307.8253006  +6.6191650     922.6039     1244.342     1038.836     77.48774     154.7903     310.0126      1.468     3.85     824.4836     54.66107      142.363         8     1.161     0.501 -52.17   0
       610    102.5525    132.0922 307.8849909  +6.6147694     5232.449     7285.744     7237.406     77.73412     155.0372     310.2285      1.492     3.50     824.7327     54.66107      864.269        27     1.498     0.862 -39.06   0
       611    441.4838    129.5472 307.7442934  +6.6271461     1555.156     2161.752     1738.389     77.73412     155.0988     310.2285      1.533     4.24     820.5247     54.66107     229.9917        14     1.363     0.763 -55.15   0
       612    565.2202    129.8638 307.6928842  +6.6311404     719.0236     906.9897     919.4346     77.36425     155.0988     309.9818      1.328     3.78     819.6129     54.66107     131.5648         6     1.103     0.463 -46.41   0
       613    373.1768    128.0732 307.7727166  +6.6254752     4075.806     6707.732     6980.494     77.36425     154.9138     310.0435      1.747     4.02     822.6004     54.66107     529.5203        29     1.482     1.101 -56.28   0
       614    630.7514    128.6251 307.6657045  +6.6338342     905.5631     1381.809     1381.478     77.36425     155.0988     310.0126      1.533     4.51     820.1078     54.66107     151.5285         9     1.256     0.523 -51.22   0
       615    549.4763    127.2612 307.6995114  +6.6316903     589.2909     1196.578     975.6119     77.97973     155.0988     310.1051      1.782     6.34     819.3665     54.66107     122.9255         8     1.849     0.610 -56.99   0
       616    337.6465    126.9546 307.7875128  +6.6247507     3438.027     5261.093     5584.421     77.73412     154.9755      310.136      1.637     3.98     823.5643     54.66107     551.4503        22     1.584     0.803 -42.15   0
       617     92.1639    126.8617 307.8894824  +6.6165809     1866.172     2559.659     2511.524     77.73412     155.0988     310.0743      1.451     3.83     824.9327     54.66107     302.0997        12     1.152     0.674 -43.98   0
       618    653.6351    124.3996 307.6563405  +6.6363405     837.3013     1372.513     1531.827     76.86832     154.9138     309.9201      1.728     5.40      819.821     54.66107     131.1172         9     1.453     0.683 -44.77   0
       619    728.9903    124.2587 307.6250428  +6.6389059      571.478     754.2838     864.0715     77.11668     154.9755     309.8275      1.322     3.74     819.5809     54.66107     84.97687         5     0.810     0.497 -55.67   0
       620     30.1263    122.5795 307.9153950  +6.6162711      457.416     642.6367     796.9037     77.36425     155.0372     310.0435      1.665     6.00     827.7618     54.66107     85.91882         7     1.445     0.701 -30.57   0
       621    984.3817    121.1225 307.5190566  +6.6486835     1635.098     2142.199     2243.691     77.24057      154.852     310.0743      1.338     3.66     818.6257     54.66107     288.4286        14     1.311     0.647 -39.91   0
       622    710.7990    120.9430 307.6327107  +6.6396697     631.5157     950.4092     796.9355     77.11668     154.7903     309.7967      1.510     3.09     819.4835     54.66107     105.3375         6     0.887     0.459  53.34   0
       623    189.5820    115.8229 307.8493904  +6.6243979     5799.788     8732.239     8816.351     77.48774     155.0372     310.0435      1.609     4.17     823.9849     54.66107      861.892        28     1.530     0.877 -44.99   0
       624     72.4171    115.6528 307.8980628  +6.6205471      2188.61     3497.854     4052.812     77.24057     155.1604     309.8275      1.800     5.65     825.6866     54.66107     326.6298        20     1.669     0.798 -45.35   0
       625    651.3199    114.6630 307.6576290  +6.6402832     6771.083     9456.114      9666.29     77.85703     155.1604     310.1051      1.494     3.45      819.364     54.66107     1097.871        30     1.492     0.861 -39.82   0
       626    799.5336    114.4206 307.5960687  +6.6453130     1233.986     1754.627     1559.963     77.36426     155.0988     310.0126      1.519     4.76     819.7309     54.66107     183.2976        15     1.354     0.765 -48.29   0
       627    603.5000    111.9344 307.6775850  +6.6398176     10271.84     14720.43     15795.59     77.73412     155.2221     310.0743      1.507     3.81     819.4333     54.66107     1634.617        36     1.553     0.921 -41.10   1
       628    238.2663    112.6798 307.8292740  +6.6273234     742.9682     1020.396      593.225     77.85703     155.2221     310.0743      1.537     4.28     824.4385     54.66107     108.3607         7     1.198     0.435 -61.53   0
       629      2.2605    111.2309 307.9273526  +6.6200225     1004.714     1209.746     1062.664     76.61916     136.2629     247.8697      1.414     5.23     829.1329     54.66107     137.7892        11     1.274     0.607 -55.74  24
       630    541.5364    111.2956 307.7033460  +6.6380171      752.777     1138.416     994.5577     77.61103     155.2221     310.1051      1.518     4.33     819.1342     54.66107     114.2121         7     0.983     0.543 -32.42   0
       631    330.8285    107.5839 307.7909971  +6.6325200     4073.671     6391.146     7235.854     77.36425      154.852     310.0126      1.761     4.54     823.9294     54.66107     610.4412        31     1.752     0.894 -49.00   0
       632    976.7502    106.8387 307.5227046  +6.6543276     760.1899     1136.159     1691.875     77.61103     155.0988     310.0743      1.624     4.69     818.0891     54.66107     114.5008         8     1.210     0.694 -53.37   0
       633    512.4552    106.8821 307.7155746  +6.6388699     1819.154     2486.136         2306     77.73412     155.0988      310.136      1.375     3.90       819.29     54.66107     282.4056        15     1.338     0.743 -40.35   0
       634    607.0536    103.4573 307.6763935  +6.6434357     57898.02     82221.59     85365.96     77.85703     155.0988     310.1051      1.505     3.72     819.1005     54.66107     9135.283        61     1.579     0.971 -41.23   0
       635    286.2418     97.2307 307.8098664  +6.6353048     3801.817     5842.849     6125.413     77.24057     155.0372      309.951      1.594     4.05      824.354     54.66107     537.0042        24     1.466     0.883 -39.90   0
       636    481.7572     94.2969 307.7287495  +6.6430422     544.0119     783.4499     618.7543     77.73412     155.0372     310.2901      1.512     4.35     819.3484     54.66107     103.0707         5     0.781     0.689 -32.02   0
       637    685.9459     91.7504 307.6440141  +6.6508951     1109.891     1734.901     1595.248     77.73412     155.0988      310.136      1.547     3.94     818.0585     54.66107     206.8638        12     1.222     0.802 -50.81   0
       638    657.5960     90.4951 307.6558330  +6.6504699     1447.636     1853.083     1501.829     77.48774     154.7903     309.8893      1.485     4.14     818.1329     54.66107     235.0018        12     1.225     0.652 -47.80   0
       639    671.5964     87.2813 307.6501250  +6.6522626     3568.106     4911.524     4645.673     77.24057     154.6667     309.8275      1.449     3.56     817.9166     54.66107     598.6633        18     1.366     0.713 -49.47   0
       640    413.1860     78.4816 307.7577658  +6.6472841     4520.301     6474.385     6294.854     77.36425      154.852     309.9201      1.499     3.59     820.9769     54.66107     702.0231        23     1.433     0.807 -40.85   0
       641    885.6672     73.7263 307.5616506  +6.6649752     4174.978     5912.382     5505.657     77.85703     155.2221     310.0743      1.521     3.66     817.7624     54.66107     650.0969        23     1.413     0.833 -45.63   0
       642    867.8391     74.7021 307.5690242  +6.6639803     2231.503     2993.347     2772.208     77.73412     154.9755     310.3209      1.438     4.13     817.9225     54.66107     357.2328        16     1.350     0.728 -37.25   0
       643    566.2272     73.9899 307.6943427  +6.6542414     854.7857     1151.114     1048.664     77.36425     154.9138     309.9818      1.441     3.87     817.9304     54.66107     134.4584         6     0.931     0.462 -55.91   0
       644    577.7739     72.4028 307.6895994  +6.6552813     1858.781     2735.235     2850.579     77.24057     154.7903     309.9201      1.484     4.04     817.8372     54.66107     297.5059        18     1.466     0.824 -35.37   0
       645    224.1497     71.3788 307.8365298  +6.6439021     823.1305     1126.075     958.3862     77.24057     155.1604     309.9818      1.415     4.91      823.824     54.66107     123.6857        10     1.382     0.583 -60.36   0
       646     67.4125     71.7534 307.9016235  +6.6385027     641.6051     707.4659     284.1943     77.11668     154.9138     309.8275      1.250     4.14     824.5234     54.66107     113.9221         7     1.120     0.626 -54.30   0
       647    376.6801     70.3247 307.7732048  +6.6494332     2012.478     2566.879     2484.164     77.97973     155.3452     310.1976      1.356     4.03     822.7493     54.66107     327.0996        15     1.297     0.678 -46.61   0
       648    124.4800     67.2314 307.8780713  +6.6422801     3542.494     5084.836     4845.099     77.61103     155.0372     310.0743      1.551     4.19      822.893     54.66107     540.2622        24     1.526     0.839 -39.51   0
       649      6.3038     65.0906 307.9272317  +6.6392062     12887.03     19650.01     20937.88     77.73412     155.5912     297.0023      1.598     3.88     826.5654     54.66107     1891.074        44     1.599     1.031 -40.82  24
       650    272.7657     65.7800 307.8165237  +6.6478386     1423.772     2111.834     1911.818     77.24057     154.9138     309.8893      1.535     4.01     824.0453     54.66107     236.1049        13     1.247     0.672 -49.25   0
       651    533.2261     64.7306 307.7083628  +6.6569644     750.5378     1113.336     850.9982     77.36425     154.9755     310.0435      1.645     5.27      817.717     54.66107     103.1674         9     1.426     0.550 -32.77   0
       652    741.3310     64.0899 307.6219341  +6.6641572     752.9257      1078.84     1676.149     77.85703     155.2836     310.1051      1.538     4.20     817.2322     54.66107     145.1506         7     0.938     0.537 -59.07   0
       653    546.6337     64.4069 307.7028040  +6.6575448     629.4321     945.7406     1122.125     77.11669     154.9755     309.8893      1.424     3.56     817.5133     54.66107     152.9342         5     0.899     0.406 -45.41   0
       654    964.4224     62.4598 307.5293107  +6.6722407     605.2343      1065.47     1035.085     77.36426     155.0372     309.9818      1.966     5.62     816.0444     54.66107     92.57458         7     1.068     0.833  74.20   0
       655    927.3002     63.5970 307.5446943  +6.6705393     612.5915     902.3664     1064.642     77.48774      154.852     309.7658      1.642     3.47     817.0397     54.66107     110.9517         5     0.747     0.466 -15.30   0
       656    875.2106     60.7211 307.5664301  +6.6699972     610.7541     974.6512     967.2116     77.36425      154.852     309.9818      1.531     5.32     817.2638     54.66107     106.6472         9     1.611     0.497 -29.41   0
       657    808.1043     59.5988 307.5943454  +6.6682312     6572.343     9441.169     9738.073     77.24057     154.7903      309.735      1.509     3.58     817.2898     54.66107     1081.995        29     1.445     0.913 -37.15   0
       658    753.2290     59.9465 307.6171303  +6.6662634     3288.117     4758.166     4946.881     77.48774     155.1604     310.0126      1.498     4.23     817.1448     54.66107     555.8156        19     1.388     0.768 -44.04   0
       659    398.3441     60.6053 307.7645326  +6.6541689      1177.21      1599.86     1656.412     77.24057     154.9755     309.8275      1.402     3.65     821.7155     54.66107     218.4227        12     1.147     0.781 -38.37   0
       660     78.0554     59.9248 307.8976019  +6.6437423     599.7485     716.6638    -24.34308     77.61103     155.0372     310.0743      1.379     3.66     823.5699     54.66107     95.46814         5     1.022     0.378 -56.71   0
       661    740.3655     58.6227 307.6225185  +6.6663822     641.3628     966.8558     1935.432     77.24057      154.852     309.8893      1.463     4.38     817.0749     54.66107     115.9753         6     1.054     0.519 -34.32   0
       662    515.7050     58.0387 307.7158662  +6.6591431     1273.452     1914.831     2096.592     77.85703     154.9755     310.2285      1.697     4.23     817.6746     54.66107     207.3163        12     1.311     0.574 -50.29   0
       663     46.6501     56.9455 307.9107478  +6.6439205     3328.439      4840.78     5023.222     77.73412     155.0988      310.136      1.534     4.29     824.5298     54.66107     501.6957        21     1.420     0.835 -41.45   0
       664     31.6612     57.5565 307.9169533  +6.6431661     905.6379     1099.053     916.4457     77.73412     155.0988     310.2285      1.473     3.81     825.1165     54.66107     145.4081         8     1.164     0.513 -48.04   0
       665    635.4863     57.2293 307.6661343  +6.6634676     617.0063     727.0018     871.6068     77.85703     154.7903     309.9818      1.195     3.26     817.1136     54.66107     126.0377         7     0.927     0.520 -34.57   0
       666    408.1069     56.4914 307.7606155  +6.6561931     1020.248      1173.18     1459.074     77.73412     155.5912     310.1051      1.249     3.66     821.2231     54.66107     192.1364         9     1.100     0.603 -55.79   0
       667    570.3765     53.4821 307.6933079  +6.6628462     1414.978     2020.085     1813.872     77.61103      154.852     310.0435      1.567     4.25     817.0323     54.66107     225.7913        12     1.311     0.592 -41.68   0
       668    242.0084     53.5175 307.8297134  +6.6518730     509.8787     777.3097     971.2059     77.36425     154.7285      309.951      1.776     3.79     823.6391     54.66107     77.40619         6     1.209     0.341 -49.47   0
       669     61.6900     48.2064 307.9047955  +6.6480320     823.2695     1120.306       1550.2     77.24057     154.7903     309.8893      1.407     4.84     823.5692     54.66107     116.5281         9     1.155     0.575 -48.07   0
       670    747.8369     47.3237 307.6197936  +6.6712955     2426.132      3449.27     3637.272     77.61103     155.1604      310.136      1.517     3.68      816.709     54.66107      369.017        19     1.343     0.805 -49.24   0
       671    388.5620     47.7389 307.7690292  +6.6591542     1068.847      1137.87     739.0731     77.73412     155.1604     310.1051      1.281     3.59     822.1585     54.66107     197.5358         9     1.136     0.578 -42.69   0
       672     85.8884     45.9326 307.8948205  +6.6497810     932.2159     1421.082     1247.883     77.85703     155.2836     310.1051      1.592     6.01     822.7614     54.66107     133.1875        12     1.242     0.819 -32.79   0
       673     74.4091     41.1952 307.8997488  +6.6513524     9962.502     15016.62     15500.36     77.11668      154.852      309.951      1.610     3.67      822.903     54.66107     1468.424        37     1.512     0.978 -44.41   0
       674    403.4798     40.9451 307.7630608  +6.6624569     2718.882     3913.819     3604.246     77.85703     155.0988      310.136      1.476     4.10     821.4693     54.66107     403.0544        18     1.473     0.722 -41.84   0
       675    241.2653     35.0753 307.8306436  +6.6594618     1535.501     2032.062     2520.713     77.85703     155.0988     310.0743      1.445     3.91     823.2981     54.66107     218.8909        13     1.238     0.686 -42.36   0
       676    646.7926     34.6041 307.6621969  +6.6731848     609.7321     1070.106     932.3026     77.11668     154.7903     309.9818      1.603     3.88     816.3119     54.66107     136.8989         8     1.208     0.553 -51.77   0
       677    617.2171     33.1633 307.6745317  +6.6727949     19635.87     28457.52      30009.3     77.24057     154.9755     309.8893      1.500     3.71     816.1927     54.66107     2898.752        44     1.560     0.946 -41.40   0
       678    517.0116     29.2902 307.7162896  +6.6710553     5579.476     7995.482     8142.369     77.48774     154.7903     309.9201      1.500     3.76     816.5428     54.66107      809.727        27     1.484     0.884 -39.31   0
       679    235.1365     29.5441 307.8333760  +6.6615404     2168.865     2962.208     3914.364     77.85703     155.0988     310.1051      1.560     3.81     823.1232     54.66107     328.8022        18     1.356     0.769 -40.25   0
       680    673.3461     27.8506 307.6513925  +6.6768568     683.0214     1017.736     1608.886     77.85703     155.0988      310.136      1.599     3.00     816.1345     54.66107     111.4932         5     0.839     0.607 -51.73   0
       681    604.7565     27.0562 307.6799133  +6.6749013     934.0046      1535.86     2396.827     77.61103     155.0988     310.1051      1.613     4.46     815.9274     54.66107     144.6393         8     1.124     0.503 -52.13   2
       682    603.4572     22.8684 307.6805937  +6.6765869     3421.949     4808.525     5472.176     77.85703     155.0372     310.0435      1.475     3.55     815.7589     54.66107     551.5042        22     1.423     0.834 -41.59   2
       683    488.6020     26.3151 307.7281916  +6.6713364     654.2799     762.4247     1200.576     77.11668     154.7285     309.7967      1.534     5.43     816.9763     54.66107     115.3165         8     1.528     0.545 -33.06   0
       684    422.5034     24.8956 307.7556980  +6.6697176     24565.46     35360.84     36993.72     77.73412     155.6526      309.951      1.511     3.82     820.4351     54.66107     3805.512        42     1.535     0.923 -42.44   0
       685    243.1148     25.3081 307.8302045  +6.6635559     9725.792     14490.58     15749.04     77.48774     155.5297     310.1976      1.539     3.89     823.1548     54.66107     1459.574        33     1.542     0.896 -41.69   0
       686    900.5967     24.7597 307.5570880  +6.6856869     2147.213     3152.564     3502.355     76.99261      154.852     309.8275      1.554     4.24     815.4713     54.66107     328.7841        17     1.377     0.791 -42.01   0
       687    535.4550     24.9129 307.7087749  +6.6734772     829.6974      1185.51      1225.77     77.73412     154.9755     310.2593      1.686     5.53     816.0329     54.66107     111.6476        10     1.397     0.616 -48.50   0
       688    507.9734     24.9222 307.7201911  +6.6725573     618.8193     920.3988      811.205     77.61103     155.0372     310.0743      1.440     5.62     816.5667     54.66107     126.2322         8     1.407     0.633 -52.80   0
       689    303.0062     25.6453 307.8053138  +6.6654182     1092.025     1511.208     1495.185     77.24057      154.852     309.7658      1.469     5.19     823.8948     54.66107     177.3644        10     1.237     0.616 -50.26   0
       690      8.4905     25.0093 307.9276774  +6.6558262     2442.869     3594.445     3490.482     77.48774     154.7903     309.8893      1.522     4.33     823.5057     54.66107     393.2419        19     1.418     0.813 -49.87  16
       691    230.9936     21.8756 307.8353555  +6.6645677     3172.256     4505.184     4913.685     77.36425     154.6049      309.951      1.505     4.34      822.907     54.66107     488.0458        23     1.526     0.836 -34.23   0
       692    284.2201     20.0312 307.8133068  +6.6671083     1044.485      1767.59     1569.103     77.24057     154.9138      309.951      1.721     4.84      823.761     54.66107     174.4377        13     1.499     0.811 -47.55   0
       693     77.5605     15.1284 307.8993197  +6.6622192     503.5042     918.1881     630.7046     77.61103     155.0988     310.1668      1.754     4.00     821.7325     54.66107     93.64978         6     1.438     0.318 -48.23   0
       694    873.2565   1018.0074 307.5352068  +6.2747061     1100.043     2061.315     1913.155     77.11668     154.9755     302.4254      1.843     4.69     847.6403     54.66107     155.6378        15     1.367     0.911 -40.79  16
       695    195.9579   1016.9908 307.8163826  +6.2525691     2243.345     3342.593     3463.765     77.11668     154.9138     308.5597      1.562     3.61     847.5787     54.66107     301.0088        20     1.375     0.806 -38.75  16
       696    732.2386   1015.2683 307.5938358  +6.2711529     819.4341     1402.193     1602.037     77.61103     155.0988     310.2285      2.193     5.96     849.3622     54.66107     102.2931        10     1.247     0.801  64.56   3
       697    731.7501   1009.3706 307.5942361  +6.2735716     1276.854     1865.612     2199.482     77.36425     155.2221     310.0126      1.510     5.31     849.2004     54.66107     172.3183        17     1.369     0.985 -59.28   2
       698    699.2061   1014.1069 307.6075865  +6.2705342     6806.156     11184.85     11737.75     77.36425     154.7903      309.951      1.729     3.81     849.3353     54.66107     943.8613        36     1.592     1.079 -40.78  16
       699    555.3282   1013.1187 307.6673432  +6.2661548     4113.149     6713.778     7366.494     77.97973     155.4067      310.136      1.795     3.96     850.3703     54.66107     548.2275        34     1.734     1.037 -40.23  16
       700    414.1203   1014.2551 307.7259194  +6.2609805     3931.927     6185.526     6906.149     77.85703     155.0988      310.136      1.658     3.73     849.7387     54.66107     546.5413        29     1.543     0.988 -43.74  16
       701    691.4261   1013.3622 307.6108410  +6.2705829     1112.217     1853.753     2521.606     77.36426     154.9138      309.951      1.970     6.91     849.3083     54.66107     145.4423        16     1.818     0.735 -40.93  16
       702    938.8804   1003.6028 307.5084472  +6.2828308     5743.103     10439.06     11222.44     77.11668     154.6667     309.8584      1.952     4.16     844.6765     54.66107      688.439        42     1.652     1.293 -34.08   0
       703    697.4179   1002.1683 307.6087288  +6.2754037     2149.151     4618.947     6315.502     77.36425     154.9138     309.9818      2.530     8.76     849.0117     54.66107     343.0176        38     2.765     1.054 -29.73   0
