#   1 NUMBER                 Running object number                                     
#   2 X_IMAGE                Object position along x                                    [pixel]
#   3 Y_IMAGE                Object position along y                                    [pixel]
#   4 ALPHA_J2000            Right ascension of barycenter (J2000)                      [deg]
#   5 DELTA_J2000            Declination of barycenter (J2000)                          [deg]
#   6 FLUX_APER              Flux vector within fixed circular aperture(s)              [count]
#   9 FLUXERR_APER           RMS error vector for aperture flux(es)                     [count]
#  12 FLUX_RADIUS            Fraction-of-light radii                                    [pixel]
#  13 FWHM_IMAGE             FWHM assuming a gaussian core                              [pixel]
#  14 BACKGROUND             Background at centroid position                            [count]
#  15 THRESHOLD              Detection threshold above background                       [count]
#  16 FLUX_MAX               Peak flux above background                                 [count]
#  17 ISOAREA_IMAGE          Isophotal area above Analysis threshold                    [pixel**2]
#  18 A_IMAGE                Profile RMS along major axis                               [pixel]
#  19 B_IMAGE                Profile RMS along minor axis                               [pixel]
#  20 THETA_IMAGE            Position angle (CCW/x)                                     [deg]
#  21 FLAGS                  Extraction flags                                          
         1    610.1494     13.1518 307.6837392  +6.7066518        13396     19094.26     19432.71     80.48227     160.4543     321.0364      1.490     3.43     883.8941     56.59351     2000.023        37     1.442     0.986 -29.56   0
         2    908.9141      9.6127 307.5597096  +6.7181062     664.2335     976.5893     1288.197     80.09932     160.4543     320.9406      1.730     5.03     878.5749     56.59351     105.8422         8     0.954     0.798  -1.69   0
         3    749.4924      8.0027 307.6260102  +6.7134420     5593.028     7683.707      8496.09     79.97127     160.2626     319.4362      1.492     3.61     881.7101     56.59351      855.489        25     1.415     0.846 -27.41  16
         4    236.5048      3.0685 307.8393358  +6.6982715     11823.63      16998.4     17269.13     80.35482     150.5005     268.8806      1.534     3.52     903.9832     56.59351     1651.796        32     1.429     0.956 -29.09  24
         5     11.2655      1.5881 307.9329731  +6.6912983     16968.54     20513.49     20745.38     72.86292      131.297     245.7384      1.186     3.44     906.2067     56.59351     3369.128        23     1.252     0.733  -8.03  24
         6    897.7341      1.4406 307.5646292  +6.7211060     627.9283      865.742     827.6263     71.44245     129.4891     243.6021      1.300     2.70      878.351     56.59351     141.2908         5     0.750     0.681 -49.65  24
         7    751.2559      1.1572 307.6255070  +6.7163266     583.1044     795.7574      1442.11     67.45795     124.6497     238.5428      1.249     3.00     881.4446     56.59351     161.4189         5     1.050     0.304 -11.51  24
         8    915.2567   1007.6131 307.5236743  +6.3063613     2158.322     3416.709     3821.004       79.843     160.4543     320.7809      1.697     4.03     915.0652     56.59351     268.5919        21     1.342     1.001 -33.55   0
         9    805.1765   1022.8727 307.5688700  +6.2963863     2339.642      3318.13     3692.524     78.15645     138.9575      254.467      1.551     3.83     915.7509     56.59351     355.1934        18     1.419     0.751 -21.86  24
        10    753.4689   1020.9070 307.5904049  +6.2954697     6828.539     10559.66     11192.75     80.35482     159.1073     282.7774      1.669     3.63     919.0652     56.59351     1070.368        34     1.483     1.075 -36.72  24
        11    774.9342   1004.0865 307.5820558  +6.3031304     1337.616     2186.473     2066.502     80.48227     160.7734     321.1003      1.710     3.69     917.3029     56.59351     220.5707        14     1.101     0.896   7.24   0
        12    636.0245   1003.5570 307.6397496  +6.2987031     4911.933     6982.416     6814.825     80.09932     160.4543     320.9087      1.482     3.29      921.562     56.59351     740.3306        25     1.371     0.888 -30.06   0
        13    248.3377   1003.6329 307.8007114  +6.2856722     4679.274     6846.832     7023.771     80.22717     160.6459     321.0045      1.545     3.64     926.6722     56.59351     741.8768        24     1.402     0.840 -33.97   0
        14    984.7726   1003.2492 307.4949560  +6.3104820     610.9918     954.9498     843.1971     80.09932      160.582     321.0045      1.649     5.53     910.2869     56.59351      82.0033         7     1.298     0.664 -45.79   0
        15    458.0398   1001.9817 307.7137014  +6.2933914     1324.136      1818.31     1518.473     80.09932     160.3905     320.8129      1.434     3.57     924.8409     56.59351     180.8539        13     1.157     0.687 -19.59   0
        16     17.1408   1000.9465 307.8967884  +6.2790053     2223.782     3354.975     3091.297     80.60951     160.5182     321.0683      1.534     3.85      928.035     56.59351     364.0743        20     1.454     0.775 -36.45   0
        17    867.9956   1000.0980 307.5435491  +6.3078857     874.1085     1316.544     1020.294     80.22717     160.2626      320.749      1.583     5.57      915.709     56.59351     110.5173        12     1.360     0.644 -14.87   0
        18    284.3112    997.4311 307.7859846  +6.2894404     918.5814     1139.421     1137.906     80.60951     160.3905     321.0045      1.475     5.15     926.5823     56.59351     154.5676        11     1.292     0.580 -39.47   0
        19    991.4724    995.8366 307.4924218  +6.3137653     765.8659     1357.925     1030.695     80.35482      160.582     321.1003      1.841     6.22     909.8105     56.59351     103.0076         9     1.406     0.772 -82.46   0
        20    939.4751    996.9191 307.5139759  +6.3115839     802.2376     1224.311     719.0866     80.73656     160.8371     321.1322      1.591     5.52     913.7311     56.59351     112.4303         9     1.174     0.733  -1.72   0
        21    560.5310    996.2396 307.6713401  +6.2991961     1928.149     2575.885     2540.787     80.35483      160.582     321.1641      1.398     3.06      922.955     56.59351     310.9221        14     1.140     0.730 -28.64   0
        22    599.9692    992.3867 307.6550946  +6.3021071     1383.717      1884.51     2005.324     79.97127     160.3265     321.0045      1.544     3.90     922.3806     56.59351     208.3813        14     1.213     0.741 -34.26   0
        23     49.7209    992.9471 307.8835321  +6.2834040     734.0355     986.5121      548.108     80.48227      160.582     321.0683      1.512     4.86     927.5641     56.59351     108.1258         9     1.427     0.468 -23.77   0
        24    279.7598    990.1918 307.7881179  +6.2922757     1612.221     2335.771      2561.61       79.843     160.3905     320.7809      1.539     4.27     926.4981     56.59351     249.3796        15     1.435     0.723 -33.06   0
        25    547.5107    988.3542 307.6770109  +6.3020149     483.3816     644.1299     390.4414     80.48227     160.4543      321.196      1.083     3.43     922.9415     56.59351     84.62024         5     1.081     0.314 -20.40   0
        26    746.6653    986.2710 307.5943900  +6.3095394     999.1258     1382.903     1659.534     80.48227     160.6459     321.0683      1.601     4.57     918.5047     56.59351     168.8962        12     1.259     0.702 -32.21   0
        27    884.2042    982.9142 307.5373939  +6.3155201     7094.058     10878.56      11457.5     79.97127     160.1986     320.7809      1.628     3.51     915.0199     56.59351     976.7177        30     1.431     1.022 -30.17   0
        28    420.0322    980.1554 307.7302154  +6.3011263     2391.702     3314.044     3618.561     80.22717     160.6459     320.9406      1.479     3.73     925.1279     56.59351     371.3548        17     1.333     0.766 -21.95   0
        29    321.8673    978.3325 307.7710343  +6.2985848     10340.75     15000.72     15974.23     80.48227      160.582     321.1003      1.499     3.55     926.2739     56.59351     1534.438        35     1.493     0.926 -32.51   0
        30    241.9231    977.2889 307.8042615  +6.2963306     7813.052     11345.82     11711.33     80.48227     160.8371     321.1322      1.523     3.50     926.3323     56.59351     1172.704        32     1.447     0.963 -32.82   0
        31    754.7330    971.3928 307.5915385  +6.3159505     673.3798     1070.224     1214.072     79.97127     160.3266     320.9087      1.960     5.53     917.7349     56.59351     92.52338        10     1.097     0.788 -51.97   0
        32    569.9399    971.7399 307.6682556  +6.3096241     1373.224     2030.857     2295.852     80.48227      160.582     321.1003      1.539     3.69     922.1892     56.59351     241.5133        13     1.294     0.683 -37.36   0
        33    899.9611    968.2128 307.5313429  +6.3221146     1008.484     1656.285     1416.321     79.97127     160.3905     320.8448      1.622     4.64     914.2876     56.59351     174.7745        11     1.199     0.647 -14.12   0
        34    856.3334    966.6020 307.5495122  +6.3213229     803.7907     1337.035     1371.019       79.843     160.1986     320.8448      1.720     5.35     915.1978     56.59351     117.9036         9     1.269     0.673 -34.64   0
        35    203.9722    967.2520 307.8203563  +6.2991983     509.9634     652.8645     654.1612     80.09932     160.7096     320.9726      1.280     3.85     926.2773     56.59351     100.5212         5     1.154     0.369 -12.09   0
        36    399.1983    966.0967 307.7393381  +6.3062305     584.0852     450.2619     320.6343     79.97127     160.3265      320.717      1.356     5.13     925.2098     56.59351     106.3319         6     1.172     0.635 -31.85   0
        37    967.5659    963.2847 307.5034363  +6.3264049     824.0252     1316.724     1551.735     80.48227     160.4543     321.0364      1.655     5.93     911.1343     56.59351     106.0309        13     1.521     0.933 -25.12   0
        38    560.2371    961.5207 307.6726273  +6.3135174     734.2459     1125.493     1149.501     80.35483     160.6459     321.0683      1.500     4.06     922.1552     56.59351     151.0389         7     1.281     0.391 -35.91   0
        39    811.8295    959.0177 307.5682452  +6.3229670     525.6973     894.9219     1129.364     80.09932     160.3905     321.0045      1.690     3.94     915.5881     56.59351     80.12573         5     0.854     0.520 -30.13   0
        40    967.9059    956.9478 307.5035069  +6.3290320     1299.898     2090.057     2550.004     80.35482     160.4543     321.3236      1.763     5.74     911.0618     56.59351     176.2551        16     1.371     1.068 -16.40   0
        41    600.6923    957.5417 307.6559632  +6.3165146     925.0604      1356.24     1439.008     80.35483     160.5182      321.196      1.770     4.63      920.987     56.59351      153.442         9     1.122     0.606 -33.19   0
        42    612.0422    957.1241 307.6512646  +6.3170669     752.0474     1120.192     819.3159     80.35482      160.582     321.1003      1.571     4.17     920.6663     56.59351     127.4875         7     1.146     0.432 -31.78   0
        43    521.5108    956.6166 307.6888716  +6.3142444     1286.372     1867.925     2024.517     80.22717     160.3266     320.9406      1.575     3.87     922.8502     56.59351     224.9355        11     1.193     0.649 -32.18   0
        44    654.9101    954.3134 307.6335593  +6.3196619     2685.159     3776.478     4139.773     80.22717     161.0282      321.196      1.451     3.54     919.6354     56.59351     427.6211        18     1.269     0.775 -31.36   0
        45     51.5290    950.4274 307.8842156  +6.3010153      3153.49       4878.9     5129.741     80.22717     160.5182     321.0045      1.661     3.38     926.1602     56.59351     446.4247        28     1.384     1.055 -45.79   0
        46    815.8242    950.4407 307.5668736  +6.3266409     981.8929     1361.946     1802.762     80.09932     160.3905     320.8448      1.561     4.20     915.4985     56.59351     152.6951        10     1.100     0.653 -39.02   0
        47    736.4828    960.8983 307.5994679  +6.3196724     1743.589     2731.462     3234.412     80.48227     160.9645     321.1641      1.704     4.54       918.21     56.59351     285.1562        16     1.513     0.704 -28.36   0
        48    933.2558    949.6674 307.5181382  +6.3308812     1009.248     1137.679     920.6913     80.60951     160.4543     321.0364      1.439     4.65     912.8204     56.59351     137.4659        11     1.151     0.721 -29.67   0
        49    194.9556    949.3964 307.8247012  +6.3062654     2350.646     3244.034     2950.277       79.843     160.1986      320.717      1.387     3.50     925.9824     56.59351     364.8711        16     1.333     0.687 -34.37   0
        50     69.0196    949.5909 307.8769820  +6.3019493     2058.891      2900.52     2638.641     80.09932     160.3265     320.9087      1.443     3.95     926.1286     56.59351     314.6549        14     1.301     0.681 -37.58   0
        51    951.3691    947.7808 307.5106800  +6.3322643     475.4927     744.8847     802.0585     80.09933     160.3905     320.9406      1.287     3.48     911.8319     56.59351     82.88879         5     0.773     0.453 -74.58   0
        52    333.8213    945.5488 307.7671738  +6.3125182     969.2965      1377.18     1920.543     79.97127     160.6459     320.9406      1.549     4.16     925.6254     56.59351     136.2195        11     1.083     0.695 -48.33   0
        53    229.0324    946.1788 307.8106610  +6.3087388     819.0317     1298.684     1164.161     79.97127     160.3905     320.9087      1.558     4.16     925.9315     56.59351     146.4532         9     1.235     0.533 -23.41   0
        54    649.5790    943.4606 307.6361368  +6.3239634     7767.324     11102.21     11635.94     80.09933     160.5182     321.0045      1.538     3.56     919.4806     56.59351     1218.437        30     1.458     0.893 -31.69   0
        55    786.9334    944.3279 307.5790745  +6.3281988     832.6699     869.6522     875.9752     80.48227     160.6459     321.1322      1.251     4.26     916.1373     56.59351     140.0581         9     1.085     0.605 -14.40   0
        56      9.5631    941.6171 307.9019364  +6.3032390     1402.149     2111.987     2630.312     79.97127     160.4543     320.8129      1.669     4.53     925.9494     56.59351     198.1481        12     1.266     0.643 -30.93   0
        57    887.3879    939.8234 307.5375133  +6.3334136     2910.425     4166.414     4190.962     80.09932     160.3905     320.9726      1.555     3.83     913.9403     56.59351     392.6187        20     1.355     0.842 -22.12   0
        58    761.6794    940.7374 307.5896810  +6.3288368     508.0755     757.1032     798.9183     80.60951     160.6459     321.0683      1.426     3.45     916.8223     56.59351     92.59784         5     1.142     0.302 -35.89   0
        59    437.4421    940.9083 307.7243055  +6.3179104     579.8273     1024.874     807.6556     80.48227      160.582     321.1641      2.110     4.26     924.1068     56.59351     89.10419         5     0.941     0.550  45.51   0
        60     22.4918    940.2231 307.8966156  +6.3042497     1156.163     1625.002     1549.666     80.48227     160.3905     320.9087      1.620     4.54     925.8655     56.59351     185.7984        13     1.266     0.742 -41.85   0
        61    332.5694    936.6198 307.7679939  +6.3161619     17851.33     25375.37     27169.99     79.97127     160.3905     320.9406      1.520     3.51     925.4606     56.59351     2973.387        40     1.471     0.947 -32.93   0
        62     67.2136    937.5150 307.8781390  +6.3068730     1487.582     1978.804     2094.952     80.09932     160.4543     320.9406      1.446     4.05     925.7596     56.59351     217.3765        14     1.289     0.711 -29.58   0
        63    203.5548    936.2381 307.8215741  +6.3119857     1462.361     2006.847     2292.598     80.22717     160.5182     320.9726      1.517     4.23     925.7617     56.59351     222.8298        15     1.346     0.729 -42.19   0
        64    383.5153    935.7225 307.7468709  +6.3182420     789.7708     1212.112     774.0623     80.60951     160.9008     321.1641      1.696     5.38     924.8331     56.59351     126.7188        10     1.372     0.596 -40.26   0
        65    410.2581    927.4750 307.7360441  +6.3225435     1182.819     1784.265     1229.237     80.60951      160.582     321.0364      1.504     4.61     924.2932     56.59351      183.823        13     1.435     0.644 -34.43   0
        66     95.8541    927.3833 307.8665894  +6.3120188     1847.627     2559.157     2772.804     79.97127      160.582     320.7809      1.464     3.54     925.4474     56.59351     285.7942        15     1.277     0.689 -29.17   0
        67     79.1779    920.8218 307.8737345  +6.3141660     2726.255     3987.784     4691.862     80.22717     160.3905     321.0683      1.718     3.74     925.3813     56.59351     410.5058        23     1.825     0.788 -29.71   2
        68    663.3482    923.8915 307.6310756  +6.3325019     812.7527      973.018     1212.542     80.35482     160.3905     321.2598      1.205     2.27     918.9106     56.59351     171.3153         5     0.717     0.436 -70.37   1
        69    490.9172    924.0469 307.7026682  +6.3266631     672.9058     835.2982     1445.143     80.48227      160.582     321.0683      1.400     3.68      922.766     56.59351     121.0632         5     0.980     0.397 -28.07   0
        70    877.8246    921.4195 307.5421001  +6.3406912     2066.535     3164.214     2627.443     80.09932     160.3905     321.0045      1.597     3.80     913.7113     56.59351     321.6116        19     1.316     0.844 -31.21   0
        71    848.4006    921.0867 307.5543293  +6.3398460     2192.163     3328.027     3301.761     79.71453     160.0706      320.749      1.568     3.84     914.4532     56.59351     348.6407        20     1.390     0.845 -24.67   0
        72    811.9086    920.3758 307.5695060  +6.3389204     3301.502     4958.028      5354.83     80.60951     160.3905     320.9087      1.599     3.85     915.1329     56.59351     513.0639        24     1.447     0.907 -32.04   0
        73    547.6943    911.8055 307.6795040  +6.3336186     372226.2       523050     543239.4     80.22717     160.2626     320.8448      1.489     4.77     921.2017     56.59351     62091.05       158     1.611     1.139 -32.37   4
        74    442.2999    918.3539 307.7230464  +6.3273831     667.3676     958.5126     1132.251     80.48227     160.4543     321.2917      1.391     5.38     923.4908     56.59351      100.447         8     1.176     0.694 -45.18   0
        75    391.9516    914.3990 307.7440849  +6.3273268     8394.353     11973.72     12615.87       79.843     160.1986     320.6211      1.478     3.50     924.2245     56.59351     1318.391        27     1.432     0.844 -30.49   0
        76    635.3858    914.9023 307.6429879  +6.3352766     1164.677     1568.626     1150.011     80.35482     160.3265     320.8448      1.466     3.77     919.0444     56.59351     179.1215        12     1.116     0.713 -30.30   0
        77    335.1654    912.7780 307.7677180  +6.3260902     13870.88     19743.44     20677.36     79.97127     160.3905     320.8129      1.502     3.52     925.0739     56.59351     2250.461        37     1.472     0.933 -29.96   0
        78    885.7775    908.0221 307.5392459  +6.3464870     5568.738     8422.973      9498.63     80.22717     160.4543     321.0364      1.616     3.44     913.0609     56.59351     837.1501        35     1.674     1.057 -15.68   0
        79    653.6149    909.0848 307.6356137  +6.3382881     3984.091     5838.451     5613.277     80.09932     160.3265     320.9726      1.581     3.53      918.663     56.59351     600.3138        25     1.414     0.905 -29.90   0
        80    725.0590    905.8328 307.6060564  +6.3420204     708.7968     996.2172     1062.671     80.35482     160.6459     321.0364      1.406     3.33     917.0013     56.59351     121.2062         6     0.748     0.553 -27.98   0
        81   1019.5809    902.2217 307.4838781  +6.3533457     4586.462     7018.121     7432.893     80.22717     160.4543     298.5392      1.658     3.69     908.3209     56.59351     644.8141        29     1.551     0.975 -25.72  16
        82    737.0092    903.4697 307.6011734  +6.3433955     492.8245      755.938     652.6746     79.97127     160.3265     320.9406      1.734     4.66     916.6462     56.59351     89.33466         5     1.072     0.574 -77.38   0
        83    628.2902    903.1817 307.6463274  +6.3398772      3681.35      5231.09     5693.779     80.22717     160.3265     320.9726      1.467     3.32     918.9589     56.59351     605.0477        23     1.403     0.802 -28.92   0
        84    816.7846    902.3605 307.5680844  +6.3465197       1806.4     2427.536     2351.381     80.09933     160.3905     320.8129      1.377     3.47     914.3413     56.59351     297.5764        15     1.258     0.742 -18.02   0
        85    171.5827    902.7316 307.8359777  +6.3247413     612.2026     724.4034     365.9875     79.97127     160.5182     320.9726      1.298     4.32     925.1937     56.59351     97.71484         7     0.866     0.672 -23.06   0
        86    943.9764    901.2618 307.5153051  +6.3512201     845.5302     1105.132     1068.529     80.09932     160.5182     320.9726      1.402     4.90     910.9838     56.59351     156.0862         9     1.275     0.628 -40.50   0
        87    618.7279    902.0231 307.6503368  +6.3400353     1053.425     1529.062     1672.358     80.09932     160.3905     321.0683      1.534     5.03     919.0964     56.59351     157.1562        10     1.323     0.540 -26.29   3
        88    621.2549    897.6699 307.6494335  +6.3419169      2284.74     3267.268     3585.547     80.48227     160.4543     321.0364      1.528     3.50     919.0126     56.59351     425.6749        18     1.348     0.797 -33.07   3
        89    315.1676    896.7574 307.7765604  +6.3320316     1181.133     1759.202     1933.821     80.09932      160.582     320.9087      1.587     4.82     925.1104     56.59351     187.0673        14     1.363     0.820 -49.93   0
        90    904.9315    895.8580 307.5316992  +6.3521476     3312.152     4987.503     5488.222     80.60951     160.5182     321.0045      1.612     3.62     912.0997     56.59351     478.9816        22     1.364     0.882 -31.79   0
        91    363.0169    891.6885 307.7568628  +6.3357302     2966.875     4252.625     4576.323     80.22717     160.3265     320.9406      1.552     3.55     924.3425     56.59351     473.8688        22     1.293     0.929 -31.54   0
        92    499.1436    881.5634 307.7006792  +6.3444751     3509.678     4712.736     5067.205     80.48227      160.582     321.1003      1.377     3.38     921.4581     56.59351      578.207        21     1.261     0.847 -30.60   0
        93    843.7290    880.5755 307.5576250  +6.3564124     992.4753     1394.795     1931.981     80.09933     160.4543     321.0045      1.488     4.43     913.1639     56.59351     175.7339        12     1.233     0.806 -11.03   0
        94    564.1365    879.5383 307.6737597  +6.3474886     897.1701     1444.578     2140.761     80.48227      160.582     321.1003      1.869     4.54      919.777     56.59351     151.9579        10     1.217     0.570 -45.14   0
        95    546.0551    877.6796 307.6813302  +6.3476501     6584.265     9218.355     10069.71     80.60951      160.582     321.1003      1.481     3.55     919.9842     56.59351     1033.745        25     1.383     0.829 -29.92   0
        96    258.1888    877.6459 307.8008624  +6.3380066     814.8782      1028.61     694.0637     79.97127     160.3905      320.749      1.540     6.36     925.2273     56.59351     138.1216        12     1.259     0.903 -39.79   0
        97    552.8806    876.9177 307.6785215  +6.3481933      1292.21     1893.076     2664.132     80.48227     160.8371     321.1641      1.609     3.77     919.8464     56.59351     215.2057        13     1.245     0.681 -29.74   0
        98    463.7620    876.5785 307.7155384  +6.3453467     1666.141     2366.774     2023.707     80.09933     160.3266     320.8767      1.466     3.33     922.0723     56.59351     284.1074        15     1.261     0.688 -31.82   0
        99    881.8367    875.8115 307.5419600  +6.3596515     1440.025     1911.565      1863.25     79.97127     160.3905      320.749      1.397     3.47     912.1936     56.59351     267.2657        16     1.260     0.810 -15.36   0
       100    105.4608    875.9063 307.8643363  +6.3335899     1405.506     1801.121     1873.467     80.35482      160.582     321.1003      1.359     3.56     924.6228     56.59351      226.168        10     1.123     0.589 -28.08   0
       101    681.4661    874.3940 307.6252118  +6.3535397     690.4562     906.7673     720.0067     79.97127     160.3266     320.8767      1.499     3.30     917.2271     56.59351     146.0641         5     1.112     0.383 -16.91   0
       102    516.7780    871.4979 307.6936947  +6.3492208     21902.67     30488.45     31681.59     80.35483     160.3266     320.8767      1.462     3.46     920.5984     56.59351     3579.759        42     1.467     0.932 -32.47   0
       103    357.9487    873.1042 307.7595923  +6.3432312     979.6456      1278.76      1222.89     80.35482     160.5182     321.3236      1.385     3.95     924.1583     56.59351     160.8491        10     1.056     0.700 -50.16   0
       104    930.4584    869.8239 307.5219697  +6.3637462      3990.97     5830.564     5937.889     80.09932      160.582     320.9406      1.593     3.58       910.52     56.59351     634.9458        27     1.521     0.914 -35.80   0
       105    163.2444    871.0084 307.8405088  +6.3375552     735.3701     858.1019     692.1752     79.97127     160.4543     320.7809      1.425     4.15     924.6917     56.59351     112.7271         7     1.141     0.432 -33.38   0
       106    402.7069    866.9261 307.7412150  +6.3472832     713.5229     1306.751     1589.489     80.35482     160.7096     321.0364      1.540     4.70     922.7773     56.59351     112.9635         8     1.272     0.493 -49.08   0
       107     50.5544    867.3806 307.8874216  +6.3352611     541.9488     887.6158     457.1901     80.09933     160.4543     320.8767      1.501     3.86      925.118     56.59351     88.32214         5     1.063     0.402 -16.09   0
       108    684.4963    863.6104 307.6243150  +6.3580924     501.2451     623.9377     238.1217     80.22717     160.1986     320.8448      1.458     4.78     916.8832     56.59351     89.97644         6     1.311     0.494 -42.70   0
       109     26.9889    862.1691 307.8973820  +6.3366188     1557.066     2274.336     1825.625     79.97127     160.3265     320.9406      1.464     3.83     925.3981     56.59351     248.0325        14     1.137     0.892 -37.38   0
       110    156.2272    862.9709 307.8436933  +6.3406368     504.9481     720.5135     1011.165     79.97127     160.3905     320.8767      0.992     3.76     924.5364     56.59351      95.4184         5     0.805     0.503  36.45   0
       111    572.0902    861.1888 307.6710728  +6.3553292     591.1132     1108.348     1327.603     80.22717     160.2626     320.8767      1.507     3.72     919.1015     56.59351     106.4829         5     1.160     0.343  -9.79   0
       112    309.3531    860.2946 307.7802016  +6.3468872     3589.091     4982.367     5138.751     80.35483     160.5182      321.196      1.405     3.28     924.6494     56.59351     566.5483        20     1.362     0.766 -27.28   0
       113    774.9513    856.1173 307.5870042  +6.3642102     60379.82     85229.44     88473.37     80.48227      160.582     321.1003      1.467     3.38     913.9612     56.59351     9519.648        66     1.513     1.026 -29.09   0
       114      9.1406    858.3239 307.9049226  +6.3376049     2421.154     3355.429     3078.714     80.60951     160.6459     321.0364      1.546     3.70     925.5726     56.59351     356.4639        19     1.346     0.843 -28.87   0
       115    713.7899    858.0851 307.6123360  +6.3613530     736.5443      926.843     1742.487     80.09932     160.2626     320.9087      1.534     4.78     916.0825     56.59351     138.4786         9     1.259     0.675 -12.50   0
       116    232.3041    853.8002 307.8124133  +6.3469797     5646.175     8662.454     10146.39     79.97127     160.1986     320.6531      1.694     3.77     924.7767     56.59351      848.702        32     1.608     0.940 -35.14   0
       117    418.1155    854.8829 307.7352216  +6.3527712     1008.821     1385.041     906.1235     80.22717     160.8371     321.1322      1.330     4.25     922.1793     56.59351     167.9358        10     1.199     0.632 -29.09   0
       118    900.2214    851.3631 307.5351435  +6.3703573     9028.819     13011.59     13587.36     80.09933     160.3265     320.8129      1.509     3.43     910.9466     56.59351     1232.943        29     1.421     0.902 -25.51   0
       119    703.2281    850.7275 307.6169684  +6.3640368     23571.55     33542.98     36015.74     80.35483      160.582     321.0045      1.505     3.42     915.9911     56.59351     3913.259        49     1.531     0.997 -29.01   3
       120    696.9254    847.1749 307.6197047  +6.3652924     96457.48     135953.6     141638.8     80.09932     160.3905     321.0045      1.463     3.43     915.9283     56.59351     15485.85        80     1.547     1.027 -32.92   3
       121    341.7534    847.9698 307.7671625  +6.3530623     22761.55     32392.77        33782     79.97127      160.582     320.9726      1.499     3.55     923.8294     56.59351     3539.891        44     1.513     0.936 -34.36   0
       122    390.8897    848.2422 307.7467501  +6.3545990     1481.829     2154.776     2412.464     80.48227      160.582     321.1003      1.604     4.69     922.7498     56.59351      252.731        13     1.236     0.688 -36.20   0
       123    231.8810    832.2516 307.8133146  +6.3558600     747923.4      1567838      1710884     80.48227      160.582     321.0683      2.171    12.60     924.1378     56.59351      62914.7       576     2.525     1.980 -47.32   4
       124    630.4687    847.8217 307.6472796  +6.3628016     839.4589     1070.084     1351.273     80.09932     160.5182     321.0364      1.507     3.58     917.5646     56.59351     163.6979         9     1.113     0.526 -26.28   0
       125    403.6750    845.8510 307.7415215  +6.3560150     24697.71      34783.9     35862.81     80.48227     160.6459     321.0683      1.493     3.64      922.399     56.59351     4191.548        41     1.467     0.931 -33.12   0
       126    940.9984    844.8419 307.5184282  +6.3744101     2111.652     3194.434     3092.623       79.843     160.2626     320.7809      1.588     4.05     909.6744     56.59351     308.9772        19     1.393     0.889 -27.92   0
       127    869.6316    843.7218 307.5481021  +6.3724901     837.6212     1036.053     1054.783     80.35483      160.582     321.0364      1.386     3.10     911.6808     56.59351     128.7683         7     0.926     0.715  -7.55   0
       128    637.6860    841.8079 307.6444843  +6.3655255     7237.941     10063.76     10268.56     80.09932     160.2626     320.9087      1.461     3.42     917.0716     56.59351     1218.911        27     1.415     0.839 -27.29   0
       129    378.0638    841.2393 307.7523114  +6.3570592     602.5721     671.3322     822.2712     80.48227     160.5182     321.1003      1.303     3.36     922.9122     56.59351     123.8662         5     1.014     0.323 -42.96   0
       130    426.4960    839.7978 307.7322487  +6.3592791     1845.117      2242.46     1982.109     79.97127     160.2626      320.749      1.403     4.09     921.8146     56.59351     310.2415        13     1.243     0.672 -27.83   0
       131    151.5885    839.0245 307.8464264  +6.3503651     816.0399     1164.061     1256.702     80.09932     160.3905     321.0045      1.440     3.45     924.0406     56.59351     144.3954         8     0.920     0.684  -6.90   0
       132    725.8114    836.7437 307.6080592  +6.3705644     569.2587     851.9309     726.3069       79.843     160.5182      320.749      1.735     4.31     915.0352     56.59351     112.5692         5     1.184     0.476 -27.86   0
       133    865.7867    833.4921 307.5500410  +6.3765844     824.9153     1358.856     1560.217     80.22717     160.3266     320.8448      1.586     3.91     911.5145     56.59351     140.2023         7     1.021     0.484 -44.32   0
       134    590.6435    834.0312 307.6642799  +6.3671607     878.0441     1287.772     1230.409     80.09932      160.582     320.9406      1.594     2.71     917.7325     56.59351     232.5353         7     0.949     0.624  -6.98   0
       135    672.7847    831.9584 307.6302395  +6.3707659      2569.87     3589.921     3477.788     79.97127     160.3265     320.8129      1.420     3.28      915.681     56.59351     463.6722        16     1.322     0.728 -33.89   0
       136    141.7505    832.6892 307.8507249  +6.3526491     1069.109     1476.838     1813.086     80.48227     160.3905     321.1641      1.504     3.63     923.9061     56.59351     166.4923        12     1.084     0.788 -14.13   0
       137    117.1441    832.3567 307.8609534  +6.3519586     1135.222     1488.397     1292.828     80.35482      160.582     321.0683      1.368     4.59     923.8547     56.59351     172.8124        13     1.391     0.637 -36.87   0
       138    406.6004    828.5280 307.7408891  +6.3632636     59492.27     84052.16     87111.98       79.843     160.0706     320.9087      1.499     3.47     922.0759     56.59351     10041.48        63     1.536     0.985 -33.17   0
       139    897.0993    842.8075 307.5367262  +6.3737847     7327.156     10478.03     10813.24     80.22717     160.1986     320.8767      1.508     3.50     910.8392     56.59351     1098.498        28     1.447     0.885 -27.57   0
       140    524.3030    827.5745 307.6920449  +6.3676036     7975.033     10962.53      10971.2     80.60951     160.3266     320.9726      1.444     3.50      918.798     56.59351     1325.497        28     1.416     0.851 -30.13   0
       141    769.5681    824.2277 307.5903079  +6.3771937     12754.19     18062.33     19013.32     79.97127     160.3266     320.8767      1.498     3.47     913.1196     56.59351     1859.315        37     1.455     0.975 -28.56   0
       142    441.2357    826.1303 307.7265874  +6.3654150     4884.251     6934.148     7685.593     80.35482     160.6459     321.1322      1.521     3.66      921.173     56.59351     772.9201        26     1.412     0.847 -33.08   0
       143    791.1642    818.5701 307.5815291  +6.3802509     1416.969     2193.072     2332.792     80.09932     160.3265     320.9087      1.637     3.66     912.1874     56.59351     213.1432        15     1.234     0.861 -52.20   0
       144    437.7687    819.5844 307.7282471  +6.3680008     2780.473     3620.059     4432.229     80.09933     160.3266     321.0045      1.374     3.31     921.1316     56.59351     534.3065        16     1.255     0.692 -26.61   0
       145    135.2864    816.4319 307.8539570  +6.3591421      3319.78     4675.767      5440.76     80.48227     160.3905     321.0364      1.547     3.81     923.5648     56.59351     495.7094        23     1.381     0.906 -26.85   0
       146    127.3141    816.1293 307.8572776  +6.3589989     12764.37     18050.61     19033.37     80.60951     160.8371     321.1003      1.510     3.73     923.5599     56.59351      1845.27        35     1.475     0.913 -29.24   2
       147    119.5549    813.5335 307.8605870  +6.3598093     3346.073     4978.691     5820.506     80.48227     160.5182     321.1003      1.648     3.82     923.5177     56.59351     482.1996        24     1.339     1.010 -10.42   3
       148    915.0643    812.7999 307.5302696  +6.3867711     6861.798     10085.33     10407.36     79.71453     160.1986     320.7809      1.514     3.62     909.5708     56.59351     1077.794        31     1.472     0.956 -30.15   0
       149    964.4286    812.7291 307.5097720  +6.3884477         1631     2545.995     2745.989     80.22717      160.582     321.0364      1.694     4.34     908.7416     56.59351     257.5742        15     1.314     0.753 -26.26   0
       150    670.6090    810.4384 307.6318646  +6.3795761     1930.717     2658.324     3548.208     79.71454     160.3905     320.7809      1.497     3.47     914.7654     56.59351     302.6158        14     1.281     0.654 -31.64   0
       151    557.4475    809.6088 307.6788846  +6.3761299      2597.63     3814.579     3632.331     79.97127     160.4543      320.717      1.523     3.77     917.2745     56.59351      439.047        21     1.476     0.814 -14.71   0
       152    405.2962    809.3614 307.7420750  +6.3711313     1413.628      1930.38     2272.885     80.48227     160.4543      321.196      1.497     3.90     921.8091     56.59351     227.0064        13     1.207     0.699 -31.70   0
       153    689.0425    807.7063 307.6243014  +6.3813206     592.6002     843.4345     1080.446     80.60951     160.5182      321.196      1.885     5.57     914.4034     56.59351     125.0159         7     1.540     0.567 -43.13   0
       154    119.4376    807.0333 307.8608548  +6.3624884      2260.68     3095.826     3418.533     80.22717     160.3265     320.8448      1.512     3.78     923.3849     56.59351     332.4036        16     1.317     0.754 -28.99   0
       155    909.2153    804.8898 307.5329632  +6.3898410     3207.179     4709.893      5066.23     80.22717     160.3905     320.9087      1.514     3.64     909.5497     56.59351     501.7791        23     1.410     0.830 -32.39   0
       156    661.7634    804.1101 307.6357502  +6.3818923     1610.384     2286.222     2768.394     80.60951     160.5182     321.1003      1.422     4.74     914.7299     56.59351      235.479        15     1.417     0.739 -40.09   0
       157    969.7574    803.9918 307.5078512  +6.3922321     2084.088     3010.856     3266.895     79.97127     160.3905     320.8129      1.545     3.99     908.5529     56.59351      322.033        16     1.385     0.699 -30.74   0
       158    938.7474    804.3193 307.5207181  +6.3910622     3355.357     4804.052     4594.237     80.48227      160.582     321.1003      1.516     3.63      908.855     56.59351     482.7179        21     1.350     0.865 -25.75   0
       159    808.9667    802.3490 307.5746795  +6.3875417     1138.696     1692.634     2051.848     80.35482     160.6459     320.9726      1.512     4.95     911.2737     56.59351     162.5325        11     1.378     0.537 -26.49   0
       160    234.1086    799.0500 307.8135077  +6.3696394     2028.073     3221.317     4788.719     80.48227     160.3905     321.2598      1.729     3.92     923.1765     56.59351     314.6997        18     1.527     0.730 -31.93   0
       161    671.7192    795.9218 307.6318904  +6.3856054     655.0054     972.9805     1654.453     80.73656     160.8371     321.2279      1.797     5.39     914.2467     56.59351     119.2454         8     1.467     0.559 -41.18   2
       162    673.0245    791.1851 307.6315072  +6.3876043     1114.297     1506.156     1776.049     80.22717     160.3905     321.0045      1.431     2.88     914.1275     56.59351     195.3461        10     0.964     0.666 -58.54   2
       163    927.1965    794.3992 307.5258468  +6.3947716     1020.621     1385.182      914.683       79.843     160.1347     320.8129      1.373     4.22      908.642     56.59351     157.5228         8     0.955     0.561 -17.57   0
       164    900.7297    793.2138 307.5368777  +6.3943774     1196.346     1800.231     1456.894     79.97127     160.3905     320.9406      1.457     4.29     909.4174     56.59351     205.1329        12     1.416     0.622 -25.31   0
       165    254.3892    794.1420 307.8052515  +6.3723468      767.541     1249.336     2331.574       79.843     160.4543     320.7809      1.870     5.12     922.9382     56.59351     126.0649         7     1.299     0.569 -25.60   0
       166    149.4890    793.9325 307.8488179  +6.3689068     946.8608     1116.928     1308.503     80.60951     160.7734     321.0045      1.416     4.27     923.1603     56.59351     138.4407         9     1.093     0.564 -28.92   0
       167    953.7091    792.2073 307.5149098  +6.3965612      2634.72     3837.082     3840.014     80.09932     160.2626     320.8767      1.502     3.59     908.2391     56.59351     363.5398        19     1.280     0.852 -37.86   0
       168    995.3926    785.4183 307.4978261  +6.4007541     1748.321     2540.943     2437.159     80.09933     160.2626     320.9087      1.593     3.92     907.4575     56.59351     269.7534        17     1.245     0.874 -26.61   0
       169    464.3495    786.5208 307.7183203  +6.3825400     571.0245     829.5553      754.188     80.48227     160.6459     321.0683      1.226     3.72     919.2196     56.59351     106.6536         6     0.997     0.399 -19.20   0
       170    796.8611    783.9830 307.5803217  +6.3947184     1302.433      1787.52     2072.573     79.97127     160.5182     320.8767      1.421     3.88     911.1529     56.59351     210.6961        14     1.313     0.694 -33.93   0
       171    621.7772    785.3203 307.6529856  +6.3883100     604.0699     720.8835     1328.675     80.09933     160.2626     321.0364      1.330     3.49     915.0537     56.59351     111.5059         5     0.800     0.439 -13.55   0
       172    882.9660    781.5044 307.5446466  +6.3986178     1627.279     2619.091     2867.759     80.60951     160.4543     321.1641      1.709     3.87     909.6944     56.59351     266.1973        16     1.311     0.726 -26.96   0
       173    857.2507    776.8865 307.5554804  +6.3996652     957.1622     1322.141     920.3456     80.48227     160.4543     321.1322      1.311     4.16     910.3201     56.59351     192.5854        10     1.344     0.493 -26.46   0
       174    839.8532    772.5926 307.5628491  +6.4008566     1691.446     2347.741     1938.705     79.97127     160.3905      320.749      1.427     3.28     910.4275     56.59351      253.756        15     1.198     0.772 -28.31   0
       175    103.2351    772.1684 307.8687584  +6.3763342     814.4401     1339.504     1750.903     80.09932     160.3265     320.8129      1.744     5.00     922.9739     56.59351     135.2015         8     1.296     0.546 -36.25   2
       176    102.1330    769.1876 307.8693165  +6.3775275     823.7252       1286.3     1878.018     79.97127     160.3905     320.9726      1.612     4.98      922.947     56.59351     110.1641        10     1.116     0.708 -24.04   3
       177     38.9941    771.4656 307.8954578  +6.3744619     2801.711      4148.23     3977.288     79.97127     160.3265     320.8767      1.513     3.79     923.7505     56.59351     402.3159        18     1.353     0.759 -31.81   0
       178    556.3939    766.9667 307.6807536  +6.3936963     614.1458     858.6428     935.6836       79.843     160.3905     320.8767      1.309     2.82     915.6741     56.59351     124.5707         5     0.765     0.547  -4.04   0
       179    694.7465    763.3724 307.6234190  +6.3998116     552.1671     759.1693     549.0602     80.22717     160.7096     320.9726      1.667     4.62     913.1119     56.59351     97.08539         5     1.042     0.582 -58.65   0
       180    651.6174    760.1431 307.6414381  +6.3997015     6986.758     9820.262     10017.83     79.97127     160.5182     320.8129      1.463     3.40     913.8041     56.59351      1089.99        24     1.379     0.798 -30.29   0
       181    598.2214    759.4683 307.6636352  +6.3981924     1493.163     1952.348     1550.108     80.09932     160.5182     321.0045      1.319     2.89     914.5349     56.59351     244.6626         9     0.988     0.577 -26.49   0
       182    519.6938    759.7469 307.6962368  +6.3954468     794.1202     1111.103     1046.837     80.35483     160.5182     321.3236      1.468     3.58     916.4976     56.59351     153.0597         6     0.883     0.489 -43.84   0
       183    509.0477    759.7693 307.7006571  +6.3950807     984.2379     1477.598     1440.211     80.09932      160.582     320.9726      1.536     4.54     916.8785     56.59351     150.6487        11     1.265     0.608 -17.99   0
       184    988.6254    755.5893 307.5016336  +6.4128415     2578.589     3906.389     3381.891     80.09933     160.3905     320.9406      1.559     3.86     906.0385     56.59351     386.4086        18     1.417     0.828 -34.45   0
       185    625.5555    755.8422 307.6524055  +6.4006044      2473.49     3302.765     3440.394     80.35482      160.582     320.9406      1.419     4.00     914.0026     56.59351     402.1044        18     1.399     0.706 -28.42   0
       186    114.7163    755.8625 307.8645407  +6.3834510     4013.604     5827.201     5873.783     80.60951     160.6459     321.0364      1.529     4.10     922.7435     56.59351     634.5127        23     1.420     0.863 -26.81   0
       187    768.5463    752.2503 307.5931435  +6.4068707      22484.1     30799.77     32200.56     80.60951     160.5182     321.1003      1.463     3.55     911.1613     56.59351     3282.857        42     1.457     0.932 -33.59   0
       188    301.2284    756.0058 307.7870850  +6.3896617     743.9553     1067.959     1138.868     79.97127     160.3905     320.8767      1.754     4.22     921.4079     56.59351     101.3912         7     1.136     0.446 -33.10   0
       189    237.0985    755.4952 307.8137330  +6.3877179      701.137     924.2782     1071.564     80.48227     161.1554     320.9087      1.349     4.17     922.0226     56.59351     116.9882         7     1.030     0.482  -8.46   0
       190    898.5378    752.0204 307.5391663  +6.4113083     4083.535     5557.147     5818.842     80.09932      160.582     320.9406      1.483     3.37     908.1625     56.59351     668.8529        22     1.372     0.834 -25.70   0
       191    467.4452    752.4896 307.7181782  +6.3966910     1556.591     2098.847     1954.639     80.48227     160.5182      321.196      1.344     3.60     917.8726     56.59351     247.0267        14     1.284     0.669 -32.69   0
       192    496.2599    752.0538 307.7062268  +6.3978369     1027.641     1424.559     1509.542     80.60951     160.5182     321.0683      1.372     3.11     917.0745     56.59351     172.7876         9     0.960     0.606 -33.59   0
       193    313.7679    751.8103 307.7820190  +6.3918146     843.9241     1106.234     897.5278     79.97127     160.3265     320.9087      1.403     5.10     921.0832     56.59351     120.9908        10     1.147     0.640 -19.41   0
       194    269.8474    751.9612 307.8002526  +6.3902771     691.2406     939.0264     767.2163     80.35482      160.582     320.8767      1.459     3.92     921.6392     56.59351     108.4485         6     0.980     0.449 -50.02   0
       195    649.1407    745.0232 307.6429738  +6.4058598     7670.014     10854.29     11096.53     80.09932      160.582     320.9406      1.464     3.36     913.4462     56.59351     1358.001        28     1.365     0.876 -30.73   0
       196    631.2609    746.4121 307.6503525  +6.4046880     837.9614     1344.663     1694.753       79.843     160.3905      320.749      1.705     5.01     913.6257     56.59351      150.061         7     1.014     0.792 -32.32   0
       197    242.0697    745.7339 307.8119974  +6.3919142     6696.438     9519.216     10252.54     80.48227     160.6459     321.0683      1.471     3.40     921.7407     56.59351     1083.983        26     1.343     0.898 -31.36   0
       198    343.8507    744.8512 307.7697607  +6.3956972     707.0107     829.2941     569.6267     80.48227     160.4543     321.0045      1.217     4.66      920.373     56.59351     110.3775         8     0.982     0.639 -31.52   0
       199    908.8964    737.7219 307.5353427  +6.4175564     1352.084     2024.748     2044.248     80.22717     160.8371     321.1322      1.515     4.40     907.1967     56.59351     229.4561        12     1.298     0.677 -21.02   0
       200    720.8422    733.4497 307.6135847  +6.4130361     3928.688     5627.037     5614.148     80.60951      160.582     321.0683      1.470     3.35     911.6785     56.59351     660.6677        22     1.292     0.898 -37.11   0
       201    676.2244    733.9136 307.6320988  +6.4113520     1041.719     1324.882      1509.79     80.48227     160.3905     320.9087      1.317     3.44      912.904     56.59351     172.9481         9     0.977     0.613 -34.99   0
       202    987.1201    730.0347 307.5031130  +6.4233399     9727.099     13982.51     14069.47     80.35482     160.6459     321.1003      1.507     3.61     904.8517     56.59351     1453.547        29     1.421     0.905 -30.08   0
       203    925.6453    730.4599 307.5286298  +6.4211131     2776.872     3773.616     3606.879     80.35483     160.5182     321.1641      1.484     3.78     906.1353     56.59351     450.8623        17     1.338     0.735 -33.31   0
       204      6.2160    729.7234 307.9104775  +6.3905875     2114.193     3271.155     3894.987     79.97127     160.3265     306.7348      1.730     4.04     923.9141     56.59351      300.286        19     1.375     0.833 -28.61  16
       205    422.4714    728.3222 307.7376672  +6.4051583     484.2847     761.6753      861.416     80.73656     160.8371     321.0683      2.186     3.78     917.5927     56.59351     84.34204         5     1.433     0.286 -44.55   0
       206    525.8596    725.8230 307.6948156  +6.4096565     2273.322     3232.739       3184.4     80.09932     160.5182     320.9406      1.460     3.93       915.18     56.59351     405.7572        19     1.328     0.836 -36.22   0
       207     64.4514    724.7474 307.8864629  +6.3946025     28628.29     40371.92      41904.9     80.60951     160.4543     321.1003      1.517     3.45     923.0262     56.59351     4555.144        51     1.512     1.003 -31.68   0
       208    494.5506    723.0840 307.7079098  +6.4097377     1381.181     2031.711     1442.902     80.48227      160.582     321.1641      1.470     4.73     916.1568     56.59351     236.9634        14     1.562     0.648 -34.60   0
       209    915.5033    722.1595 307.5331195  +6.4242008     1273.385     1585.176     1322.611     80.48227     160.4543     321.2279      1.391     4.40     906.4144     56.59351     186.4749        10     1.187     0.573 -18.67   0
       210    534.6110    719.7926 307.6913837  +6.4124389     1084.335     1399.946      1491.19     80.09932     160.3905     320.9726      1.376     4.71     914.7126     56.59351     158.5869         9     0.963     0.654 -22.69   0
       211    710.5203    717.0203 307.6184222  +6.4194726     3930.969     5237.386     5094.257     80.09932     160.2626     321.0683      1.443     3.51     911.5388     56.59351     651.7411        22     1.420     0.747 -31.29   0
       212    732.4915    715.2888 307.6093555  +6.4209222     4709.449     6271.553      6076.72     80.48227     161.0918     321.1641      1.449     3.60     911.0555     56.59351     709.4568        23     1.378     0.806 -33.07   0
       213    563.9248    713.2872 307.6794283  +6.4161063     3688.413     5200.539     5328.756     80.48227     160.9008     321.1322      1.440     3.51     913.8929     56.59351     600.9861        21     1.330     0.859 -35.83   0
       214    400.0683    713.6742 307.7474634  +6.4104530     1475.996     2123.604     2276.625     80.60951     160.7096     321.0364      1.489     3.60     917.6755     56.59351     251.6573        12     1.211     0.628 -36.37   0
       215    224.7537    712.6614 307.8203021  +6.4049835     1839.928     2914.468     3109.018     80.35483     160.4543     321.1003      1.670     4.35      921.025     56.59351     273.5356        16     1.412     0.745 -39.51   0
       216   1005.4073    711.5196 307.4961370  +6.4315926     5491.834     7797.021     7618.996     80.09933     160.1347     320.9087      1.523     3.58     903.7654     56.59351     833.7668        28     1.488     0.878 -27.64   0
       217    307.8780    712.1411 307.7858000  +6.4079911     1498.135     2010.591     1934.759     80.60951      160.582     321.0045      1.398     4.18     920.1353     56.59351     231.1697        13     1.328     0.663 -27.97   0
       218    970.8240    710.3619 307.5105388  +6.4309169     8626.264     12518.91      12508.3     80.09932     160.3265     320.8767      1.529     3.59     904.5477     56.59351     1414.022        33     1.493     0.898 -29.39   0
       219    524.3428    711.1740 307.6959375  +6.4156524     747.8332     1170.536     1315.642     80.09932      160.582     320.9087      1.588     4.29     914.8295     56.59351     109.5648         7     1.056     0.496 -21.96   0
       220   1020.3781    709.4495 307.4899886  +6.4329464     774.6784     1212.062     1195.634     79.97127     160.6459     289.4049      1.573     5.07     903.2578     56.59351     130.5388         9     1.329     0.547 -24.86  16
       221    690.5263    708.9756 307.6269954  +6.4221244     853.2515     1080.851     1378.871     80.09932     160.3905     321.0045      1.434     4.59     911.7104     56.59351       183.41         9     1.515     0.431 -28.07   0
       222     82.1106    706.8869 307.8797322  +6.4025690     840.4768      1397.71     1500.509     80.22717     161.0282      321.196      1.571     5.55     922.6098     56.59351      144.248        11     1.443     0.602 -40.30   0
       223    416.1109    704.5906 307.7411065  +6.4147407     3171.064     4656.573     5163.176     80.09932     160.2626     320.8448      1.510     3.66     916.8469     56.59351       493.27        22     1.401     0.814 -32.73   0
       224    129.2385    703.6292 307.8602714  +6.4054997     26434.37     37809.98     39383.67     79.97127     160.2626     320.9406      1.538     3.44     921.9655     56.59351     4175.368        50     1.504     1.017 -30.98   0
       225    797.5271    704.4162 307.5827101  +6.4275845     1328.836     1743.968     1863.478     79.97127     160.4543     320.9726      1.448     3.60     909.6197     56.59351     240.0538        11     1.099     0.652 -28.39   0
       226    348.4288    698.7333 307.7694111  +6.4148871     739.2496     1085.008     974.3276     80.22717      160.582     321.0364      1.500     5.34     918.7624     56.59351     109.5724         9     1.103     0.729 -40.58   0
       227    965.7186    693.3306 307.5132286  +6.4377769     7431.459     11744.15     13005.07     80.73656     160.8371     321.1003      1.761     3.57      904.174     56.59351     1062.734        43     1.619     1.160 -14.41   0
       228   1020.9775    688.5311 307.4904388  +6.4416012     98148.05       142437     146465.6     80.09932     158.6558     282.0515      1.523     3.43     902.3252     56.59351     14119.69        76     1.520     1.110 -34.02  24
       229    559.2371    688.5582 307.6822054  +6.4261569     53732.26     74958.16     76969.57     80.22717      160.582     320.9406      1.470     3.42     913.4636     56.59351     8622.244        56     1.490     0.960 -32.35   0
       230    428.2120    690.8312 307.7365436  +6.4208262     485.4468     675.7064     879.3041     79.97127     160.3265     320.9726      1.403     3.95     916.1553     56.59351      78.5661         5     0.989     0.452 -44.01   0
       231    923.6395    690.4146 307.5308024  +6.4375763     677.2523      1019.32     1150.528     80.09933     160.3905     320.8448      1.709     3.76     905.3774     56.59351     110.2399         6     0.981     0.415 -17.43   0
       232    202.6303    689.7897 307.8302600  +6.4136805      708.868     1002.651     1449.172     79.97127     160.3905     320.9087      1.580     3.16     920.6913     56.59351     112.7147         6     0.740     0.626 -24.30   0
       233    518.4376    688.6830 307.6991453  +6.4247382     908.4688     1013.481     1513.854     80.48227     160.5182     321.0364      1.193     3.49     914.3749     56.59351     154.5493        10     1.021     0.711 -33.39   0
       234    784.0586    688.1061 307.5888501  +6.4338669     534.7695      790.509     342.3401     80.35482      160.582     321.2279      1.218     3.67     909.5688     56.59351     101.4247         5     1.210     0.320 -27.40   0
       235     10.3830    692.3815 307.9100077  +6.4061411     1305.756     1893.912     1704.102     80.22717     160.3266     321.0045      1.495     3.60     923.2505     56.59351     207.7173        11     1.191     0.581 -38.35   0
       236    489.1748    685.6740 307.7113992  +6.4249994     944.5567      1134.26     1171.129     80.09932     160.4543     321.0045      1.254     3.44       915.05     56.59351     173.6378         7     1.006     0.449 -27.83   0
       237    166.6892    685.2726 307.8453378  +6.4143364      2918.01     3816.147     3831.536     80.48227     160.8371     321.0683      1.379     3.15     921.0792     56.59351      426.004        19     1.210     0.896 -13.70   0
       238     59.5381    679.3397 307.8900353  +6.4131796     1494.803     2189.958     2135.441     80.48227      160.582     321.1003      1.651     4.32     922.5626     56.59351     220.0992        14     1.279     0.740 -33.69   0
       239    121.9337    678.3368 307.8641577  +6.4156937     598.0834     765.5482     1412.264     80.48227      160.582     321.0683      1.550     4.49     921.7426     56.59351     90.30115         6     0.863     0.663 -31.75   0
       240    456.5029    672.3592 307.7254154  +6.4293999     69026.89     95917.84     98740.53     80.48227     160.4543     321.2917      1.490     3.59     915.0787     56.59351     10481.12        63     1.507     0.989 -30.58   0
       241      1.3203    673.4699 307.9144096  +6.4136417     978.6603     1094.758     1251.964     70.13944      127.736     241.3194      1.102     2.70     923.0289     56.59351      219.771         7     1.022     0.455 -83.53  24
       242    642.3719    669.6542 307.6483132  +6.4367440     943.5377     1244.379     707.8586     80.22717     160.6459     320.9726      1.470     4.12     911.5267     56.59351     142.1793         7     0.998     0.485 -26.58   0
       243    130.9633    667.3875 307.8607771  +6.4205169     1723.762     2367.251     2491.036     79.97127     160.3905     320.7809      1.446     3.76     921.3453     56.59351     258.9573        13     1.163     0.701 -37.58   0
       244    410.1539    665.0348 307.7449105  +6.4308685     1008.339     1591.156     1945.796     80.09932     160.5182     320.9087      1.551     3.89     915.6611     56.59351     181.4687        10     1.218     0.554 -27.84   0
       245    602.6008    664.1085 307.6650168  +6.4377016     855.9764     1288.899     1243.822     79.71454     160.0706     320.8448      1.413     3.74      912.381     56.59351     150.7581         9     1.085     0.531 -29.51   0
       246    484.3830    663.3170 307.7141405  +6.4340672     599.2956     815.2109     671.1501     80.09933     160.2626     321.0045      1.346     3.70      914.466     56.59351     137.1051         6     1.059     0.456 -33.69   0
       247    301.9257    661.4987 307.7899765  +6.4286949     2387.254     3502.747     3532.554     79.97127     160.7096     321.0364      1.501     3.37     918.6733     56.59351      360.759        20     1.252     0.933 -33.58   0
       248      2.7898    663.0903 307.9141498  +6.4179755     751.6381     931.1415     1406.128     80.22717     147.3346     264.4607      1.436     4.54     923.1774     56.59351     106.5956         8     0.987     0.593 -24.94  24
       249    453.7763    660.2006 307.7269564  +6.4343272     863.9529      1279.29     1258.469     80.09932     160.2626     320.8448      1.533     3.55     914.8389     56.59351     131.6912         7     0.964     0.541 -19.66   0
       250    728.5500    655.9821 307.6129803  +6.4452711      5918.27     8094.187     8437.218     79.97127     160.6459     320.8448      1.429     3.58     909.9144     56.59351     1016.419        24     1.395     0.776 -28.32   0
       251    782.1077    651.2294 307.5908958  +6.4490237     15400.54     21071.44     21380.56     80.60951     160.3265     320.9726      1.439     3.38     908.4944     56.59351     2472.362        36     1.427     0.904 -32.43   0
       252    999.3244    651.8087 307.5006595  +6.4560377     1076.727     1492.308     1562.098     80.09932     160.0706     320.8767      1.534     3.38     901.4107     56.59351      191.504        10     1.102     0.621 -38.48   0
       253    524.3176    651.3868 307.6979560  +6.4403303     1276.018     1904.381     2512.126     80.09933     160.3266     320.9087      1.587     3.29     913.0764     56.59351     251.9734        11     1.135     0.623 -34.40   0
       254   1021.6768    650.2352 307.4914283  +6.4574327     2088.192     2898.923     2988.784     80.35483     153.0664     272.3648      1.461     3.48     900.4034     56.59351     288.3648        17     1.275     0.778 -30.20  24
       255    606.0015    649.1964 307.6641049  +6.4439709     3190.296     4376.828     4248.059       79.843     160.1347     320.8129      1.428     3.51     911.9042     56.59351     505.6682        18     1.338     0.752 -33.38   0
       256     26.8069    650.3292 307.9046068  +6.4240517     727.8609     946.1282     301.5901     79.97127     160.1986     320.9726      1.329     5.65     922.8702     56.59351     141.0681        10     1.184     0.760 -22.00   0
       257    923.4467    645.3569 307.5323899  +6.4561691     1303.472      1840.28     2323.863     80.48227      160.582     321.0045      1.580     4.58     904.0724     56.59351     204.2117        12     1.293     0.631 -24.19   0
       258    364.4077    642.8425 307.7646555  +6.4384936     920.6254     1252.107     1330.629     79.97127     160.3905     320.7809      1.284     4.61      915.956     56.59351     159.7626         8     0.985     0.612 -26.38   0
       259    218.3167    642.5316 307.8253379  +6.4337144     1335.977     2288.444     2483.835     80.73656     160.8371     321.1003      1.853     4.21     919.1624     56.59351     233.2437        13     1.321     0.792 -30.43   0
       260    182.1844    643.5668 307.8403085  +6.4320722     635.4611      995.382      1237.77     80.09932     160.3265     320.9406      1.715     3.00     919.9258     56.59351     97.90613         5     0.724     0.463 -18.49   0
       261    152.9509    634.7852 307.8527451  +6.4347137     661.7983     569.3553    -82.17125       79.843     160.5182     320.7809      1.392     5.87     920.2535     56.59351      153.502         9     1.353     0.717 -36.19   0
       262    858.1208    634.5024 307.5598853  +6.4584683     3187.323     4240.628     4650.342     80.22717     160.8371     321.1003      1.407     3.49     905.5646     56.59351     492.5358        17     1.304     0.733 -24.24   0
       263    816.9064    631.9843 307.5770875  +6.4581308     2737.699     3846.719     3977.376     80.22717     160.3905     320.9087      1.388     3.51     906.6703     56.59351     457.9984        18     1.230     0.929 -27.84   0
       264    797.4910    623.1089 307.5854487  +6.4611456     177138.8     242017.2     251410.5     80.48227     161.0918     321.1641      1.477     3.59      906.885     56.59351     28090.55       111     1.554     1.083 -31.33   0
       265    787.6963    627.8584 307.5893576  +6.4588577     2721.606      3842.76     4605.116     80.35482      160.582     321.2279      1.531     3.57     907.4205     56.59351     459.8241        18     1.364     0.767 -36.31   1
       266    244.8724    626.8074 307.8148390  +6.4410974     8358.214     11998.41     12286.14     80.09932     160.1347     320.9726      1.493     3.57     917.9466     56.59351     1285.315        34     1.532     0.904 -31.77   0
       267    730.0781    627.8807 307.6132877  +6.4569219     814.5449     1470.209     2043.832     80.73656     160.8371     321.2279      2.293     4.47     909.2745     56.59351     138.2325        10     1.108     0.838 -20.61   0
       268    848.8790    625.0091 307.5640416  +6.4620783     569.1384     725.5832     1238.847     80.09932     160.1986     320.9087      1.355     3.38     905.5718     56.59351     93.59979         5     0.801     0.499  31.06   0
       269    179.1340    621.2736 307.8423268  +6.4411715      62393.7     91077.65        95464     80.60951     160.6459     321.0683      1.549     3.51     919.4603     56.59351     8609.688        76     1.582     1.118 -32.03   0
       270    727.0986    623.5866 307.6146691  +6.4585948     687.8041     1105.565     1274.474     80.35482     160.3265     320.8448      1.466     3.28     909.1921     56.59351     169.2839         5     1.077     0.291 -22.55   0
       271    103.1590    617.5256 307.8740055  +6.4401625     6835.685     9847.497      9818.14     80.35482      160.582     321.1003      1.516     3.52     920.1714     56.59351     1010.499        30     1.445     0.953 -28.62   0
       272    968.6249    614.8994 307.5146444  +6.4702492     1277.557     1520.641     1085.661     80.60951     160.3265     320.9406      1.482     4.59     901.0359     56.59351     192.3803        12     1.247     0.649 -25.86   0
       273    989.2875    613.8835 307.5060962  +6.4713579     812.7604     1067.455     1090.449     80.22717     160.7734     321.1003      1.494     4.03     900.0858     56.59351     161.6146         8     1.077     0.560 -32.68   0
       274    217.3510    613.2061 307.8267269  +6.4457865     756.6514     1211.655     1039.398     79.97127     160.3905     320.6851      1.570     4.65     918.3134     56.59351     150.7078         7     1.125     0.547 -27.68   0
       275    834.0005    610.4777 307.5707079  +6.4675796     4938.514     6892.938     6712.327     79.71454     159.9425     320.8129      1.416     3.45     905.4887     56.59351     783.6204        23     1.326     0.853 -28.85   0
       276    352.4832    608.4344 307.7707656  +6.4522959      19041.1     26836.79     27894.76     80.48227      160.582     321.0364      1.513     3.51     914.3787     56.59351     2875.326        39     1.495     0.936 -28.57   0
       277    442.7581    608.6445 307.7332655  +6.4552387     903.4926     1241.852     1414.985     80.35483      160.582     320.9406      1.460     3.84     913.8004     56.59351     158.0576         9     1.122     0.528 -17.58   0
       278    154.7698    607.3014 307.8529163  +6.4461192     1947.419     2967.921     2990.334     80.48227     160.3265     321.1003      1.754     6.65      919.645     56.59351     305.6962        21     1.969     0.720 -28.26   0
       279    899.3932    605.9857 307.5436977  +6.4716179     542.7386     795.3564     750.6952     80.09932     160.3265     320.9087      1.627     4.65      903.554     56.59351     84.82861         5     1.086     0.566 -12.53   0
       280    787.9532    603.6766 307.5900611  +6.4688481     6287.497      8633.28     8930.588     80.35482     160.6459     321.0364      1.414     3.40     906.4769     56.59351     1067.715        23     1.311     0.812 -32.80   0
       281    518.8352    603.3644 307.7018461  +6.4599690     7028.009     10041.76         9849     80.22717     160.3265     320.8129      1.496     3.54     911.6582     56.59351     1116.751        29     1.444     0.873 -29.18   0
       282    229.5115    605.2497 307.8219447  +6.4494794     1009.086     1538.996     1698.923     80.48227     160.3905      321.196      1.509     4.65     917.6001     56.59351     159.0959         9     1.185     0.558 -23.41   0
       283     91.9189    604.5782 307.8791102  +6.4451284     1015.486     1566.634      1460.81     80.22717     160.2626     321.0045      1.643     3.59     920.0851     56.59351     145.6781         9     1.077     0.620 -42.54   0
       284    377.1626    599.9865 307.7607999  +6.4566115     1501.761     2181.308     2650.645     79.97127     160.3905     320.7809      1.581     4.85     914.0502     56.59351     220.9788        15     1.409     0.680 -24.75   0
       285    563.6146    596.4546 307.6834799  +6.4643218     2666.851     4240.025     3801.342       79.843     160.5182     320.7809      1.727     4.61     910.5135     56.59351      410.033        24     1.705     0.792 -27.07   0
       286    165.9451    596.4759 307.8486401  +6.4509635     7278.835     10717.77      11577.5     80.48227      160.582     321.0683      1.582     3.52     919.2784     56.59351     1014.654        32     1.432     0.996 -27.22   0
       287    804.7183    596.0068 307.5833548  +6.4725744     1478.411     2122.364     2716.105     80.09932     160.1347     320.9087      1.571     4.72     905.5971     56.59351     269.1319        11     1.279     0.648 -34.92   0
       288    261.1115    592.9144 307.8092363  +6.4556331     93729.74     134622.8     140226.5     80.22717     160.8371      321.196      1.510     3.50     915.8892     56.59351     14388.02        83     1.559     1.096 -31.81   0
       289    847.0237    596.4493 307.5657685  +6.4738053     580.9686     798.1596     700.4828     80.09932     160.6459     320.9726      1.427     4.14     904.7744     56.59351     100.7569         5     1.179     0.416 -14.32   0
       290     37.3657    595.0778 307.9020868  +6.4472130     5261.714     7784.954     7880.787     80.35482     160.6459     321.0364      1.557     3.54      922.096     56.59351     776.6697        27     1.422     0.902 -29.52   0
       291    550.5177    590.5321 307.6891184  +6.4663277     1037.182     1369.545     1921.596     80.60952     160.8371     321.1003      1.381     4.69     910.4111     56.59351     138.0817        13     1.276     0.754 -41.45   0
       292    244.8483    587.9631 307.8161574  +6.4571303     1564.971     2179.764     3194.886     80.22717      160.582     320.9726      1.613     4.39     916.2716     56.59351     236.7596        11     1.210     0.569 -26.18   0
       293    960.6076    586.8430 307.5189127  +6.4815630     1643.002      2247.32     2218.721     79.97127     160.3905     320.7809      1.405     4.08      900.339     56.59351     265.8826        12     1.244     0.616 -33.30   0
       294    784.2385    585.4480 307.5922148  +6.4762484     17785.22     24550.08     25498.97     80.35483     160.6459     320.9087      1.445     3.56     905.8666     56.59351     2808.401        36     1.449     0.872 -31.59   0
       295    487.8729    583.7702 307.7153641  +6.4670191     43675.62     67659.01     71745.92     80.35482      160.582     321.0364      1.651     3.51     911.4517     56.59351     6550.236        70     1.679     1.186 -23.66   0
       296    638.1252    582.3587 307.6530059  +6.4726356     1018.552     1538.063     1264.622     80.35482      160.582     321.1003      1.581     4.72      908.985     56.59351     136.7977        11     1.143     0.693 -48.62   0
       297    247.8950    580.2934 307.8151504  +6.4603985     660.4546     1125.692     1949.365     80.48227     161.1554     321.0045      1.871     5.55     915.8254     56.59351     119.6878         8     1.293     0.673 -23.33   0
       298    200.1701    580.0885 307.8349783  +6.4588787     2098.933     3094.737     4407.569     80.60951     160.3265     321.0045      1.592     3.79     917.6166     56.59351     341.4937        16     1.399     0.713 -41.75   0
       299     36.0451    580.3308 307.9031330  +6.4532554      1321.51     2092.101     1814.667     80.48227     160.5182     321.0683      1.647     4.16     921.6281     56.59351     215.4681        11     1.207     0.620 -29.16   0
       300    657.8340    578.9967 307.6449328  +6.4746831     1495.625     1988.001     2114.505     79.71454     160.3905     320.8129      1.372     3.61     908.2525     56.59351     271.1136        12     1.305     0.594 -33.27   0
       301    647.8524    578.7977 307.6490853  +6.4744312     3173.851     4525.126     4894.638       79.843     160.3265     320.6531      1.492     3.70     908.5683     56.59351     511.1989        19     1.385     0.747 -26.95   0
       302     86.5010    579.9417 307.8821915  +6.4551150     622.4504     843.2112     667.8471     80.22717      160.582      321.196      1.504     5.02     920.0839     56.59351     113.8242         8     1.278     0.559 -40.25   0
       303    709.9097    577.8870 307.6233406  +6.4768838     1360.232     1936.481     2169.805     80.22717     161.0282      321.196      1.496     3.16     907.3311     56.59351     235.3101        12     1.164     0.612 -19.75   0
       304     66.9176    576.3991 307.8904441  +6.4559179      848.018     1405.934     1593.978     79.71453     160.1347     320.7809      1.931     5.51     920.6157     56.59351     121.6006        10     1.243     0.690 -43.98   0
       305    385.6480    574.5254 307.7581322  +6.4674059     1882.334     2694.291     2852.897     80.35483     160.6459     321.1003      1.536     3.49     913.2592     56.59351     278.8198        15     1.247     0.696 -34.01   0
       306    317.0012    572.6968 307.7867048  +6.4658559     4134.396     5938.323     5992.841     79.97127     160.2626      320.717      1.486     3.18     913.9015     56.59351     706.6862        25     1.366     0.901 -34.81   0
       307    132.2227    571.2728 307.8634951  +6.4602320      27506.8     39540.59      40481.7     80.09932     160.3905     321.0364      1.514     3.41     919.3548     56.59351     3842.839        45     1.504     0.978 -31.03   0
       308    496.9776    572.1886 307.7119718  +6.4721049     2329.857     3285.059     3650.674     80.09932     160.3905     320.9726      1.432     3.70     910.5577     56.59351     338.8047        16     1.197     0.768 -22.98   0
       309    860.3351    571.4141 307.5610779  +6.4845842      1864.04     2465.005     2444.977     79.97127     160.3905     321.0045      1.440     3.85     903.7239     56.59351     311.1312        15     1.300     0.651 -25.40   0
       310     97.4402    569.5197 307.8779999  +6.4597850     2914.195     4212.382     4220.049     80.48227      160.582     321.0045      1.540     3.62     919.7446     56.59351     450.8455        19     1.305     0.796 -26.15   0
       311    334.4125    567.5569 307.7796464  +6.4685622     1076.426     1599.312     1755.137     79.97127     160.3905     320.8129      1.722     5.64      913.598     56.59351     153.6353        12     1.419     0.632 -38.34   0
       312    957.7128    566.0259 307.5208114  +6.4900594     5492.305     7769.466     7996.648     80.60951     160.3905     321.0045      1.495     3.52      899.686     56.59351     862.9995        26     1.414     0.847 -28.85   0
       313    531.0988    558.4482 307.6982615  +6.4789204     1598.089     2294.691     2287.083     80.48227     160.5182     321.2598      1.517     3.64     909.4727     56.59351     247.4222        16     1.272     0.796 -24.39   0
       314    429.2154    552.4518 307.7407795  +6.4779792     45744.91     65611.88     67975.77       79.843     160.6459     320.7809      1.515     3.46     911.6349     56.59351     6679.107        55     1.502     1.006 -32.67   0
       315    637.2276    552.1987 307.6543908  +6.4850550     13091.68      18388.7     18723.94     79.97127     160.3265     320.8448      1.456     3.48     908.0112     56.59351     2071.917        32     1.452     0.859 -32.20   0
       316    277.1502    552.6779 307.8039301  +6.4727804     1037.288     1628.306     1957.616     80.48227     160.6459     321.0364      1.570     5.63     913.8635     56.59351     149.7924        14     1.509     0.658 -28.94   0
       317    971.2971    550.7021 307.5156815  +6.4968381     1351.329     1943.523     1796.222     80.48227     161.0918     320.9087      1.607     5.18     898.6112     56.59351     203.3186        14     1.394     0.745 -30.89   0
       318    194.3992    549.9611 307.8383905  +6.4711201     20108.88      31329.4     32835.56     79.58586     160.3905     320.7809      1.652     3.51     916.8854     56.59351     2671.284        51     1.545     1.160 -22.21   0
       319    159.9980    551.0659 307.8526409  +6.4695071     1596.172     2219.438     1352.737       79.843     160.1986     320.8448      1.431     3.80     918.7151     56.59351     249.6434        14     1.183     0.716 -24.07   0
       320    899.5038    549.9368 307.5455276  +6.4947577     828.8152     987.5502     858.0849     80.35482     160.7096     321.1322      1.362     4.61     901.4722     56.59351     142.7379         7     1.012     0.595 -23.24   0
       321    811.1647    550.0353 307.5822172  +6.4917661     1111.739     1556.772     1670.771     80.22717     160.3265     320.8129      1.396     3.48     903.9202     56.59351     192.2869        10     1.150     0.647 -31.67   0
       322    559.1609    548.9433 307.6869251  +6.4837841     2959.212     4284.835     4224.982     80.48227     160.6459     321.0364      1.526     3.64     909.0317     56.59351     501.4332        22     1.479     0.784 -33.38   0
       323    932.9493    546.1742 307.5317614  +6.4974274     5115.288     7033.387     7446.961     80.09932     160.6459     320.9726      1.442     3.51     899.9147     56.59351     834.3159        24     1.383     0.817 -30.33   0
       324    606.0546    544.5337 307.6675959  +6.4871751     6948.171     9630.519     10166.94     80.48227     160.5182     321.0364      1.467     3.56     908.7911     56.59351     1083.419        24     1.361     0.848 -27.71   0
       325     93.5257    545.0454 307.8804513  +6.4697553     1314.397     1870.045     1772.987     80.35482     160.6459     321.1003      1.557     4.33     919.6926     56.59351     198.4225        13     1.269     0.710 -35.31   0
       326    205.8769    543.8505 307.8338294  +6.4740284     651.5424     1205.996     2026.695     80.35482     160.6459     321.0683      2.184     5.30     916.0071     56.59351     104.8817         6     1.144     0.693 -60.80   0
       327    955.5030    538.4738 307.5226509  +6.5013587     3759.125     4942.736     5038.926     80.22717     160.7734     321.0683      1.394     3.48      898.744     56.59351     610.5002        18     1.323     0.728 -31.37   0
       328    144.0467    539.3889 307.8596596  +6.4737903     447.3888     352.3429     46.79125     79.97127     160.3905      320.749      1.190     4.84     918.6323     56.59351     73.78418         5     1.201     0.552 -49.68   0
       329    518.2132    535.8559 307.7043724  +6.4878140     8006.817     11412.49     12421.22       79.843     160.5182     320.7809      1.501     3.45     908.6197     56.59351     1312.709        32     1.411     0.953 -31.33   0
       330    364.3143    536.0234 307.7682882  +6.4825823     2866.601     4091.076     4199.507     80.48227     160.3905     320.9406      1.490     3.55     912.4176     56.59351      442.681        20     1.366     0.825 -28.45   0
       331    734.0391    536.0029 307.6147226  +6.4949799     453.7486     508.4178      259.928     79.58586     160.3265     320.7809      1.411     3.60     904.9129     56.59351     86.71545         5     0.989     0.378 -31.65   0
       332    874.7375    531.5802 307.5564293  +6.5015080     3471.204     4772.611     5022.612     80.09933      160.582     320.9406      1.433     3.31     901.8593     56.59351     638.4501        21     1.288     0.848 -35.41   0
       333    393.8945    537.3322 307.7559583  +6.4830350     860.6749     1339.957     1345.667     80.35482     160.7734     321.1003      1.524     3.40     911.9182     56.59351     138.6146         9     0.844     0.794 -73.88   0
       334    222.5858    531.2565 307.8273141  +6.4797885     821.0472     1049.023     685.9756       79.843     160.4543      320.749      1.488     5.64      914.691     56.59351     117.6958         8     1.101     0.815 -41.00   0
       335    882.1000    526.1757 307.5535520  +6.5039847     2449.228     3364.658     3291.239     80.73656     160.3265     320.9087      1.403     3.58     901.3362     56.59351     430.0172        16     1.286     0.713 -31.37   0
       336    921.6916    525.1219 307.5371420  +6.5057417     1388.845      1840.51      1565.97     80.22717     160.8371     321.1003      1.375     4.06      899.674     56.59351     234.6151        11     1.301     0.513 -22.24   0
       337    101.1383    525.1951 307.8779593  +6.4782050     862.8022     1175.987     1016.117       79.843     160.3265     320.8129      1.431     5.19     919.2164     56.59351     117.7984         8     1.055     0.721 -16.67   0
       338    706.0417    521.9738 307.6268221  +6.4998342     3184.112     4492.996     4936.758     80.09932     160.5182     320.9087      1.462     3.83     904.8842     56.59351     550.5116        19     1.445     0.670 -32.44   0
       339     67.7320    520.8908 307.8919791  +6.4788570     2130.208     3147.477     3174.358     80.60951     160.7096     321.0683      1.601     3.81     919.7169     56.59351     299.6273        19     1.346     0.884 -23.38   0
       340    417.2100    520.3913 307.7468441  +6.4908101     1179.451     1564.323     1914.575     79.97127     160.3905     320.9726      1.383     3.71     910.7146     56.59351     190.0706        11     1.174     0.630 -33.60   0
       341    376.9629    520.0813 307.7635711  +6.4895873     3942.605     5666.798     5743.417     80.48227     160.6459     321.0364      1.507     3.61      911.611     56.59351     545.6181        23     1.387     0.866 -36.69   0
       342    604.7324    516.7506 307.6690777  +6.4985991     10827.95     15490.38     16073.05     80.35483     160.5182     321.1003      1.508     3.63     907.3488     56.59351     1790.787        35     1.460     0.930 -29.23   0
       343    767.4112    513.3500 307.6016202  +6.5054465      17771.2     24555.83     25710.66       79.843     160.4543      320.749      1.458     3.46       903.71     56.59351     2752.415        37     1.454     0.896 -32.12   2
       344    771.1677    508.6488 307.6002174  +6.5075127     1516.143     2269.199     2903.901     80.22717      160.582     321.0045      1.625     3.38     903.5394     56.59351     291.4392        13     1.238     0.655 -28.82   3
       345    287.1735    513.5676 307.8010841  +6.4892606         2951     4031.227     4067.735     79.97127     160.3265     320.8767      1.446     3.19     912.2738     56.59351     489.2304        20     1.353     0.802 -37.58   0
       346    410.7703    513.3724 307.7497549  +6.4934912      588.737     716.7288     323.9402     79.97127     160.3266     320.8448      1.339     3.37      910.533     56.59351     108.1778         5     0.761     0.433 -20.17   0
       347    796.4977    510.4906 307.5896343  +6.5075992     1509.278     2365.393      1754.35     80.48227     161.0282     321.0683      1.534     3.93     903.1591     56.59351     241.3288        14     1.322     0.686 -30.93   0
       348    370.0971    510.3727 307.7667495  +6.4933643     1834.821       2537.6     2338.959     80.60951     160.3265     321.0045      1.453     3.67     911.4293     56.59351     305.9012        18     1.330     0.782 -34.67   0
       349    897.7408    510.3839 307.5475838  +6.5110256     705.6736     959.8977     1274.551     79.97127     160.5182     320.8129      1.600     4.85     900.1019     56.59351     96.24817         8     1.042     0.639 -18.32   0
       350    952.5792    508.4025 307.5248714  +6.5136741      2397.12     3142.603     3394.808     80.09933     160.2626     320.8129      1.405     3.57     897.8572     56.59351     384.1045        14     1.214     0.679 -31.18   0
       351    700.3177    507.6708 307.6296794  +6.5055467     678.4449     800.5533     789.5309     80.73656     160.9008     321.1003      1.356     4.10     904.3954     56.59351     107.4517         7     1.112     0.432 -59.22   0
       352    358.9302    506.1502 307.7715298  +6.4947323     767.4756     1059.983     920.8539     80.48227     160.5182     321.1003      1.432     4.35     911.5828     56.59351     126.5696         7     1.046     0.516 -33.43   0
       353    104.8454    505.1138 307.8770971  +6.4866185     4609.701     6601.362     6885.558     80.48227     160.4543     321.0683      1.471     3.37     918.6943     56.59351     663.2351        26     1.402     0.893 -24.77   0
       354    742.8566    504.2035 307.6121261  +6.5084009     2476.111     3598.461      3475.04       79.843     160.3905      320.749      1.449     3.35     903.8528     56.59351     395.7938        18     1.251     0.809 -34.37   0
       355   1006.5837    503.0290 307.5026185  +6.5176940      4341.18     6902.502     7244.821     80.09932     160.3265     321.0045      1.735     4.28     895.4494     56.59351     507.6498        30     1.532     1.031  -6.22   0
       356    262.8161    502.2251 307.8115829  +6.4931240     1730.729     2590.823     2600.268     80.22717     160.4543     321.0045      1.617     3.75     912.6248     56.59351     262.0533        14     1.163     0.783 -20.38   0
       357    340.8322    499.9696 307.7792548  +6.4966758     3361.907     4793.965     4636.138     79.97127     160.3265     320.7809      1.471     3.50     911.5984     56.59351       537.23        21     1.425     0.779 -32.35   0
       358    696.6868    497.8900 307.6315156  +6.5094625     1735.442      2255.15     2368.999     80.22717     161.0282      321.196      1.335     3.00     904.0045     56.59351     332.3181        15     1.191     0.758 -44.91   0
       359    970.2183    496.6735 307.5179367  +6.5191043     705.6631     1201.995     2040.554     79.97127     160.5182     320.9726      1.888     3.71     896.7772     56.59351     122.7391         5     0.953     0.414 -14.81   0
       360    228.9136    495.7325 307.8258829  +6.4946643     1026.679     1534.621     1686.163     80.60951     160.8371     321.1003      1.536     4.27     913.5293     56.59351     156.6579        13     1.279     0.706 -27.42   0
       361    651.5698    493.6022 307.6503998  +6.5097224     429.4422     537.2222     190.5611     79.97127     160.3905     320.8767      1.542     3.46     904.6679     56.59351     74.83307         5     1.131     0.306 -20.53   0
       362    685.9751    490.0057 307.6362294  +6.5123585      691.587     1147.146     1240.963     79.97127     160.3265     320.9087      1.824     5.20     903.7032     56.59351     114.8844         8     1.214     0.631 -46.49   0
       363    538.2358    490.4460 307.6975814  +6.5072292      1109.82     1506.753     967.0392     80.22717     160.5182     320.9726      1.481     3.77     906.2617     56.59351     165.6908        11     1.143     0.712 -19.83   0
       364    439.2716    491.3560 307.7386571  +6.5035352     618.3255     901.2188     545.1971     80.35483      160.582     321.1003      1.636     4.03     908.8774     56.59351     109.2957         6     0.963     0.483 -40.29   0
       365    460.5021    488.7438 307.7299266  +6.5053256     1441.022     1998.831     1514.217     80.35483      160.582     321.2917      1.532     3.43     908.3422     56.59351     257.6411        13     1.217     0.714 -22.12   0
       366    823.0515    487.8133 307.5793642  +6.5178474     1586.358     2131.602     2267.947       79.843     160.5182     320.8129      1.384     3.21      901.831     56.59351     259.2285        14     1.172     0.706 -25.87   0
       367    808.6830    486.8265 307.5853656  +6.5177746     2314.898     3281.709     3740.128     80.35482     160.3265     321.0045      1.486     3.85     902.2592     56.59351     400.5198        17     1.397     0.706 -33.85   0
       368    705.8495    485.0534 307.6281401  +6.5150678     16112.33     22472.41     23305.17     80.60951      160.582     321.1003      1.444     3.44     903.4492     56.59351     2522.365        39     1.427     0.950 -26.45   0
       369    607.9097    486.9902 307.6687570  +6.5109899     888.9604     1220.064     931.8818     80.22717     160.2626     320.8767      1.354     4.64      905.796     56.59351     143.8988         9     1.219     0.570 -26.38   0
       370    627.0392    481.0458 307.6610106  +6.5140842     2764.986     3932.277     4324.317     80.22717      160.582     320.9406      1.506     3.57     904.8689     56.59351     445.4457        20     1.478     0.771 -24.21   0
       371    699.6597    479.7596 307.6308888  +6.5170458     672.7008     1035.341     1645.192     80.48227      160.582     321.1322      1.604     3.73     903.2571     56.59351     134.0023         7     1.023     0.507 -25.75   0
       372    602.0950    478.0257 307.6714732  +6.5144955     5723.965     8063.125     8804.179     80.60951     160.3265     320.9406      1.488     3.42     905.3137     56.59351     921.7488        24     1.408     0.798 -31.82   3
       373    598.3845    475.5059 307.6730990  +6.5154113     15725.67     22393.43     23486.26     80.22717     160.3905     320.9087      1.530     3.41     905.2098     56.59351     2442.913        37     1.503     0.927 -29.17   3
       374    931.2063    474.9480 307.5348687  +6.5267703     4101.013     5597.494      5553.33     79.97127     160.3905      320.717      1.432     3.37     897.6388     56.59351     713.1327        22     1.361     0.781 -28.22   0
       375    370.3259    470.8513 307.7679843  +6.5096852     30995.61     44461.18     45982.56     80.48227     160.6459     321.1003      1.524     3.53     909.7887     56.59351     4770.156        50     1.519     1.003 -31.28   0
       376    887.0572    470.6010 307.5533534  +6.5270906     1549.812     2530.701     2913.823       79.843     160.2626      320.749      1.647     4.03     899.0513     56.59351     248.9629        16     1.362     0.851 -38.83   2
       377    883.4209    467.1148 307.5549806  +6.5284082     685.1959     1236.372     1567.515     80.22717     160.3265     321.0045      1.482     4.67     899.0471     56.59351     118.0776         7     1.245     0.497 -49.57   2
       378    407.8633    472.5114 307.7523367  +6.5102599     496.0723     762.7963     625.1531     80.35482     160.7734     321.1003      1.585     4.79     908.8138     56.59351     96.78772         6     1.308     0.497  -2.35   0
       379    116.4410    470.2924 307.8734557  +6.5013817     2565.396     3519.861     3216.745     80.60951     160.5182     321.1641      1.523     3.53     917.3714     56.59351     362.2106        20     1.290     0.929 -39.88   0
       380    899.9332    465.3590 307.5481803  +6.5296844      5483.81     7444.038     7433.766     80.48227     160.5182     321.1322      1.388     3.50     898.3535     56.59351     927.3656        22     1.305     0.792 -33.73   0
       381    581.5063    466.5222 307.6804115  +6.5185542     616.8045     831.5411     999.6167     80.22717     160.7734     321.1322      1.543     3.61     904.8358     56.59351      112.624         6     0.944     0.397 -20.74   0
       382     49.5925    465.7928 307.9013727  +6.5009883     1441.286     2183.886     2079.619       79.843     160.3905     320.9406      1.553     3.75      919.178     56.59351      234.572        13     1.181     0.752 -25.04   0
       383    955.4614    463.6297 307.5251720  +6.5322518      691.687     843.7368     672.9446     80.22717      160.582     321.0364      1.121     3.21     896.1577     56.59351     131.1165         7     0.868     0.606 -20.60   0
       384    227.8397    461.3757 307.8274866  +6.5088095     14774.49     21630.21     22404.88     80.09932     160.3905     320.8448      1.523     3.47     912.4883     56.59351     2182.684        37     1.454     0.979 -30.44   0
       385    951.1149    453.7238 307.5273090  +6.5361958     1057.831     1346.613     1589.483     80.60951     160.9008     321.1322      1.553     4.80     895.9071     56.59351     212.4119        12     1.350     0.657 -35.94   0
       386    722.5110    455.0174 307.6222265  +6.5280234     915.7609      1050.85     1254.991     80.22717     160.3265     320.9726      1.252     4.62     902.2216     56.59351     117.5551         8     1.016     0.597 -47.65   0
       387     63.0434    455.3713 307.8961377  +6.5057429     837.1553     1453.301     1609.712     80.09932     160.6459     320.9726      1.806     4.68     918.5831     56.59351     124.0704         8     1.043     0.596 -18.30   0
       388   1000.1523    454.3752 307.5069170  +6.5375631      631.447     842.2756     980.9688     80.09932      160.582     320.9406      1.454     3.85     893.8641     56.59351     98.18079         6     1.021     0.417 -15.36   0
       389    690.6450    454.5833 307.6354778  +6.5271364     863.7371     892.9981     1219.119     79.97127     160.4543     320.8448      1.274     4.02     902.3774     56.59351     121.3594         7     1.005     0.461 -11.33   0
       390    367.8103    450.9946 307.7696974  +6.5177970     518.3184     742.2613     736.8364     79.97127     160.3265     320.9726      1.466     3.82     908.5076     56.59351     85.23163         5     0.825     0.506 -25.92   0
       391    340.9871    451.0789 307.7808361  +6.5168615     1386.942     1805.621     1279.242     80.09932     160.2626     320.8448      1.384     3.81     909.0533     56.59351     243.6008        13     1.246     0.663 -27.75   0
       392    173.2411    451.3586 307.8505022  +6.5111081     867.2086     1158.577     1053.365     80.22717      160.582     320.9406      1.429     4.57     914.6297     56.59351     139.5438         8     0.998     0.595 -19.59   0
       393    128.0354    449.9860 307.8693250  +6.5101537     5445.757     8017.296     8316.264     80.09932     160.3905     320.9087      1.521     3.43     916.4231     56.59351     854.0814        27     1.378     0.957 -24.53   0
       394    232.9366    448.8213 307.8257926  +6.5141629      1363.39     1983.073     2002.502     80.09932      160.582     320.9406      1.608     3.81     911.9313     56.59351     218.7469        15     1.246     0.816 -35.76   0
       395    425.2576    449.1694 307.7458968  +6.5204785     660.0228     932.5428     764.8685     80.35482      160.582     320.9726      1.322     2.92     907.3223     56.59351     129.3192         5     0.898     0.350 -44.53   0
       396    623.6307    447.0767 307.6635666  +6.5279917     298.3447     742.9386     761.0685     80.35482     160.6459     321.0683      2.389     4.22     903.0334     56.59351     114.9473         5     1.480     0.342 -46.80   2
       397    814.2428    446.6145 307.5844034  +6.5345592     816.3823      1018.41     330.1786     79.71454     160.3266     320.8129      1.250     4.45     900.6995     56.59351     160.5139         7     1.089     0.517 -37.98   0
       398    150.1596    445.6360 307.8602822  +6.5126936     2505.219     4210.245     4208.427     80.22717      160.582     320.9087      1.755     3.72      915.546     56.59351     392.7198        23     1.462     0.969 -57.68   0
       399    545.8413    444.8560 307.6959538  +6.5263025     984.6293     1311.044     1209.075     80.35482     160.5182     321.1003      1.355     4.75     904.5424     56.59351     169.4698        11     1.340     0.552 -33.64   0
       400    961.9978    439.9164 307.5232501  +6.5422585     1065.956     1849.518     2432.708       79.843     160.1986      320.749      2.108     4.69     894.8683     56.59351     166.1916        11     1.353     0.630 -38.20   2
       401    373.6545    440.6069 307.7676194  +6.5222809     2289.267     3183.314     2957.024     79.97127     160.3266     320.7809      1.529     4.17     907.7612     56.59351     345.0767        17     1.367     0.740 -36.22   0
       402    261.2748    441.3705 307.8142729  +6.5181909     709.7222     1059.344     782.7526     80.35483      160.582     321.0683      1.571     5.20     910.8148     56.59351     105.9089         9     1.251     0.611 -39.92   0
       403    598.8646    435.2222 307.6742522  +6.5320555     632.1802     1164.468     1731.677     80.09932      160.582     320.9406      1.808     4.74      902.786     56.59351      96.1709         7     1.181     0.539 -50.88   0
       404    427.4320    434.2275 307.7454961  +6.5267190     7777.814     11350.38     11811.62     79.97127     160.3266     320.8767      1.568     3.66     906.5897     56.59351     1078.514        29     1.433     0.918 -31.09   0
       405    332.1091    436.2858 307.7850218  +6.5226695     7297.407      7925.85     7802.934     80.22717     161.0282      321.196      0.952     3.63     908.3697     56.59351      2518.46        11     1.052     0.475 -12.17   0
       406     23.9139    434.8412 307.9130832  +6.5128988     3298.746     5433.409     6244.334     80.48227     160.5182     321.1003      1.811     4.33     919.0958     56.59351     461.7744        29     1.718     0.936 -38.37   0
       407    768.0465    431.6505 307.6040947  +6.5391917     14038.93     19442.92     20213.21     80.60951     160.4543     321.1322      1.427     3.45      900.871     56.59351     2265.724        35     1.426     0.889 -32.17   0
       408    760.1133    433.2237 307.6073374  +6.5382771     2130.273      3002.49     2994.901     80.48227     160.3905     320.9087      1.447     3.70     900.9828     56.59351      330.633        15     1.279     0.685 -32.48   0
       409    331.3914    430.1600 307.7855261  +6.5251739     1039.715     1384.233     1282.204       79.843     160.3905     320.8129      1.432     5.31     908.0516     56.59351     154.2708        11     1.135     0.702 -36.77   0
       410   1011.9655    426.8695 307.5029295  +6.5493110     3870.715     5412.554     5754.988     80.35482      160.582     321.1322      1.452     3.41     892.3021     56.59351     657.1382        20     1.318     0.795 -31.94   0
       411    942.7161    423.3536 307.5318140  +6.5484518     545.0288      855.362     1190.398     80.48227      160.582     321.1003      1.467     3.45     894.9311     56.59351     110.4911         5     0.741     0.465 -11.28   0
       412    347.7918    422.0473 307.7789868  +6.5290734     5237.198      5180.45     5167.448     79.97127     160.4543      320.717      0.507     0.87     906.8381     56.59351     3528.662         7     0.435     0.355   1.05   0
       413    177.0867    422.2663 307.8498858  +6.5232457     703.9816     1033.327     1042.795     80.48227     160.7734     321.1003      1.653     3.82     914.0614     56.59351     146.4233         5     1.301     0.322 -40.38   0
       414    382.9668    421.1160 307.7644072  +6.5306387     567.8884     576.3631     747.4856     80.48227     160.3905     321.0364      1.396     3.61     906.4587     56.59351     97.68695         5     0.995     0.377 -57.55   0
       415    447.8128    418.5398 307.7375578  +6.5338782     2296.142     3389.692     3316.576       79.843     160.4543      320.749      1.528     3.58     905.1447     56.59351     349.1362        18     1.312     0.822 -28.11   0
       416    475.6660    417.9174 307.7260089  +6.5350694     3227.293     4619.166     4263.773     80.73656     160.8371     321.1322      1.543     3.52     904.0617     56.59351     493.5149        23     1.327     0.887 -28.88   0
       417    904.5433    417.7618 307.5478585  +6.5494856      909.749     1311.186     1195.237     80.48227     160.6459     321.0683      1.585     4.76     896.3071     56.59351     163.8204         9     1.175     0.611  -8.86   0
       418    833.4296    414.5521 307.5775073  +6.5484351     35836.64     51896.51     53361.24     80.09933     160.6459     320.9726      1.594     3.74     898.8871     56.59351     5420.207        54     1.538     1.045 -40.95   0
       419     51.1465    410.6918 307.9025874  +6.5237840     771.4322     1140.174     775.1337     80.35482     160.3905     321.2279      1.577     4.48     917.7409     56.59351     117.5397         6     0.956     0.596 -59.22   0
       420    325.4360    410.1688 307.7886729  +6.5332256     791.7969     1486.127     1198.917     80.09932     160.3265     320.8129      1.626     4.79     907.2352     56.59351     133.5639         9     1.197     0.544 -26.76   0
       421    945.3197    408.4395 307.5312315  +6.5546950     583.5285     922.6602     912.1716     80.48227     160.6459     321.0045      1.751     4.87     894.1791     56.59351     97.38885         5     1.132     0.593  29.98   0
       422    605.2253    406.9064 307.6725607  +6.5439566     2974.762      4103.44      4761.57     80.60951     160.3265     320.9087      1.480     3.41     901.0313     56.59351     490.0088        19     1.313     0.770 -31.63   0
       423     13.4922    407.1667 307.9183465  +6.5239705     1273.494     1859.271     1775.252     80.60951     160.4543     321.1003      1.506     4.64     918.7019     56.59351     183.0877        13     1.328     0.644 -20.81   0
       424    136.5544    405.3387 307.8672925  +6.5288690     543.5724     768.9371     713.0932     80.35483     160.4543     321.1322      1.571     3.39     915.3156     56.59351     108.3577         5     1.077     0.308 -20.36   0
       425    689.8961    400.5148 307.6376027  +6.5494296     85101.68     119798.4     124218.9     80.48227     160.9645     321.1641      1.476     3.46     900.2444     56.59351     14134.13        76     1.518     1.035 -29.24   0
       426    848.1146    402.1875 307.5718212  +6.5540296     1388.151     2099.169     2638.265     80.09932     160.4543     320.9087      1.657     3.76     897.6016     56.59351     233.5154        12     1.192     0.636 -26.85   0
       427     69.0508    399.9572 307.8955129  +6.5288178     1563.635      2151.12     2698.839     80.60951      160.582     321.1003      1.480     4.36     916.9629     56.59351     216.1473        15     1.303     0.797 -22.35   0
       428    931.1819    397.7120 307.5374636  +6.5586512     988.8549      1229.82     1088.847     80.22717     160.3265     320.9406      1.486     3.94     894.3423     56.59351      148.571        11     1.050     0.836 -10.51   0
       429    552.4327    397.1402 307.6948187  +6.5462192     2978.975      4071.66     3944.358     80.22717     160.6459     321.0045      1.455     3.52     901.9482     56.59351     428.9337        19     1.240     0.849 -34.36   0
       430     89.6304    396.0076 307.8870981  +6.5311410     6473.089     9590.634      9842.87     79.97127     160.3905     320.8448      1.551     3.60     916.3182     56.59351     961.5825        28     1.509     0.870 -30.24   0
       431    749.9816    395.5528 307.6128091  +6.5534880     506.6567      913.404     1092.028     79.97127     160.5182     320.8767      1.904     3.80     899.1595     56.59351     94.79468         6     0.833     0.497  -1.72   0
       432    535.6212    393.4502 307.7019262  +6.5471789     7630.686     10785.47     10795.08     79.97127     160.6459     320.9406      1.504     3.43     901.8124     56.59351     1183.781        27     1.376     0.885 -31.55   0
       433    398.5776    388.5436 307.7590186  +6.5446076     27586.69     39946.55     41242.73     80.09933     160.5182     320.8767      1.571     3.50      904.629     56.59351     4314.635        47     1.504     1.019 -32.99   0
       434    264.6156    391.0413 307.8145808  +6.5390773     2754.324      3570.93     3551.906     79.97127     160.3265     320.8448      1.418     3.25     908.9014     56.59351     435.0325        17     1.232     0.784 -25.53   0
       435    577.2769    387.7594 307.6848135  +6.5509238     653.8475     838.2932     841.1287     80.35483      160.582     321.1322      1.343     4.25     900.7286     56.59351     149.2545         6     1.107     0.465 -27.54   0
       436    506.0895    387.4791 307.7143943  +6.5486536     1474.425     2087.416     1765.544     80.22717     160.8371     321.1641      1.386     3.51     901.3571     56.59351     222.6426        13     1.196     0.662 -32.61   0
       437    378.5424    386.6911 307.7674034  +6.5446997     1254.397     1901.426     2486.793     80.35483     160.5182     321.1641      1.540     4.28     904.6367     56.59351      191.079        12     1.219     0.658 -24.46   0
       438    477.7755    383.9060 307.7262760  +6.5491791     1327.286     2003.604     2058.266     80.60951     160.3265     320.9087      1.600     4.10     901.2889     56.59351      179.617        13     1.163     0.792 -19.57   0
       439    793.3244    381.2983 307.5952817  +6.5608212     922.1392     1391.862     902.5548     80.09933     160.7096     321.0364      1.674     5.03     898.1089     56.59351     153.3666        10     1.264     0.566 -32.28   0
       440    375.5583    381.0822 307.7688317  +6.5469147     774.8416     1194.836     1690.753     80.48227      160.582     321.0045      1.765     4.60     904.3402     56.59351     118.9669         9     1.105     0.578 -27.42   0
       441    629.6087    380.7259 307.6633106  +6.5555799     588.7481     763.2002     568.6169     80.09933     160.1347     320.9087      1.488     3.93      899.694     56.59351     117.3214         6     1.159     0.381 -12.24   0
       442    487.5814    378.9539 307.7223691  +6.5515520     9280.036     13419.16     13722.45     80.09932     160.4543     320.8448      1.535     3.56     900.7302     56.59351     1377.674        30     1.476     0.886 -27.59   0
       443    756.7086    377.7549 307.6106113  +6.5610595     3305.362     4697.172     5190.141     80.48227     160.5182      321.196      1.462     3.26      898.076     56.59351     554.2808        18     1.275     0.775 -25.06   0
       444    912.2469    377.7223 307.5459987  +6.5662704     949.0677     1370.714     897.2703     80.35483     160.6459     321.0683      1.520     3.82     894.0851     56.59351     163.7939         9     1.121     0.532 -42.60   0
       445    704.4832    377.0934 307.6323288  +6.5595856     884.7873     1175.482     982.2098     80.22717     160.9645      321.196      1.321     5.18     898.7545     56.59351     132.5233        10     1.214     0.625 -29.74   0
       446    314.3399    375.6003 307.7944460  +6.5471216     1192.639     1775.472      1986.07     79.71454     160.3266      320.749      1.634     4.28      906.114     56.59351     163.1369        11     1.101     0.698 -28.48   0
       447    149.7720    369.3494 307.8630161  +6.5441687      1230.15     1807.617      2261.76     80.09932     160.7096     320.9726      1.681     3.55     914.2894     56.59351      198.499        12     1.166     0.680 -26.49   0
       448    426.7075    369.6866 307.7479679  +6.5533353     604.5643     824.3463     629.5818     80.48227     161.0282     321.1641      1.562     3.85     902.8672     56.59351     110.8932         6     1.107     0.383 -14.56   0
       449    249.4179    369.6126 307.8216157  +6.5474114     593.9448     914.3503     781.6974     80.22717     160.2626     320.9726      1.590     3.45     908.7319     56.59351     66.80603         5     1.083     0.317  20.93   0
       450    596.6709    367.3941 307.6774410  +6.5599798      462.451     697.1422     625.0272     79.97127     160.1986     320.9726      1.753     4.90      899.238     56.59351       76.995         5     1.117     0.608 -33.59   0
       451    377.5387    363.1616 307.7686122  +6.5543783     7910.219     11438.91     11628.29     80.48227     160.6459     321.0683      1.546     3.61     903.3763     56.59351     1075.073        33     1.449     0.971 -33.21   0
       452    233.5880    363.6827 307.8283911  +6.5493269     2220.659     3208.594     3462.276     80.09933     160.3266     320.9087      1.595     4.01     909.1892     56.59351     345.6769        21     1.455     0.860 -31.64   0
       453    730.9025    363.0089 307.6218261  +6.5662832     999.8022      1347.98     1182.247     80.22717     160.1986     320.8448      1.381     3.99     897.3886     56.59351     147.9557         8     1.100     0.605 -38.69   0
       454    665.8027    363.5678 307.6488510  +6.5638741     432.4502     577.7688     210.1127     79.71454     160.3905     320.8448      1.201     4.17     898.7961     56.59351     84.53101         5     1.165     0.427 -13.41   0
       455    745.3977    359.0938 307.6159358  +6.5683841     58559.12     81323.85     84121.27     80.09932     160.2626      320.749      1.466     3.73      896.995     56.59351     9362.689        60     1.479     0.994 -28.71   0
       456    417.0202    358.4911 307.7523686  +6.5576314     2373.206     3611.115     3437.612     80.35482     160.3905     320.9406      1.584     3.58     902.6821     56.59351     330.9932        20     1.325     0.870 -16.84   0
       457    980.0303    356.3683 307.5185541  +6.5773474     1950.213     2805.929     2648.643     79.97127     160.3265     320.8129      1.496     4.03     889.8257     56.59351     318.0042        18     1.331     0.877 -14.27   0
       458    921.2213    355.3105 307.5430207  +6.5758212     2607.554     3302.398     3399.705     80.48227     160.3905     320.9726      1.316     3.39     892.7791     56.59351     408.1128        16     1.204     0.711 -25.08   0
       459    563.1289    355.9383 307.6917595  +6.5635847     1332.961     1892.655     1902.217     80.60951      160.582     321.1322      1.467     3.56     898.7348     56.59351     233.8439        13     1.105     0.825 -24.64   0
       460    403.6545    354.2983 307.7580618  +6.5589134     1983.105     3137.085     3222.629     80.35483      160.582     321.2917      1.686     4.29     902.5965     56.59351     299.8712        20     1.551     0.816 -27.50   0
       461    454.0723    354.8777 307.7370985  +6.5603660     1045.077     1568.164     2253.746     80.73656     160.8371     321.0683      1.547     4.05     900.3605     56.59351     173.2562        10     1.038     0.668 -37.19   0
       462    283.6386    353.8291 307.8079324  +6.5550765     683.9467     1026.074     1198.398     79.97127     160.2626     320.9087      1.422     4.29     906.4807     56.59351     185.1001         7     1.337     0.393 -18.64   0
       463    824.6196    348.7982 307.5833700  +6.5752826     1255.193     1708.741     1630.397     80.09932     160.1347     320.7809      1.377     3.33     895.3933     56.59351     190.3888         9     0.879     0.752  -5.86   0
       464    454.0838    348.9552 307.7372929  +6.5628110     674.5237     1139.206     1945.943     80.48227      160.582     321.0683      1.675     4.56     900.0215     56.59351     97.16736         7     1.108     0.534 -31.06   0
       465    434.2271    345.6523 307.7456526  +6.5635082     1276.938     1867.161     2157.432     80.09932     160.7096     321.0045      1.711     3.94     901.0098     56.59351     209.3467        14     1.276     0.737 -35.15   0
       466    957.2766    346.4514 307.5283386  +6.5806816     506.0904     744.5273     867.0674     80.48227     160.6459     321.0683      1.416     3.49     890.6921     56.59351     83.92395         5     1.081     0.325 -21.44   0
       467    179.9100    345.3450 307.8513067  +6.5550908     2410.608     3518.502      3957.08     80.35482     160.3905      321.196      1.553     3.39     912.0896     56.59351     329.5563        19     1.238     0.907 -33.13   0
       468    743.9160    343.6649 307.6170687  +6.5747032     6647.363     9461.463     9824.644     80.60951     160.8371     321.1322      1.470     3.48     896.2505     56.59351     1122.596        31     1.438     0.903 -26.97   0
       469    215.3664    343.6277 307.8366362  +6.5569922     746.4343     995.6978     716.7217     79.97127     160.3266     320.8448      1.535     4.78     909.7352     56.59351     138.1368         7     1.064     0.608 -23.23   0
       470    334.3352    343.2933 307.7872278  +6.5611285     649.8929     953.3503     869.7385     80.35483     160.7734     321.1003      1.348     4.61     903.9212     56.59351     92.43225         8     0.970     0.623  -5.31   0
       471     76.2623    342.7911 307.8944470  +6.5526564     1075.526     1687.077     1702.474       79.843     160.3905     320.8767      1.575     4.26     915.6307     56.59351     146.9938        12     1.239     0.675 -25.02   0
       472    760.3609    341.4146 307.6103125  +6.5761822     2950.738     4441.821      4655.63     80.22717     160.3905     320.8129      1.580     3.89     896.0984     56.59351      482.767        21     1.607     0.746 -36.81   0
       473    349.5543    336.3640 307.7811390  +6.5644998     1747.237     3089.928     3603.355     80.22717     160.5182     320.9726      1.944     5.53     903.0838     56.59351     216.3469        21     1.587     0.913  -7.30   0
       474     63.6817    336.6082 307.8998815  +6.5547847     1364.131     2210.897     2424.989     80.09933     160.1986     320.9406      1.802     5.11     915.8419     56.59351     189.4888        14     1.419     0.697 -27.27   0
       475    998.4850    332.4939 307.5116859  +6.5878180     6622.054     8865.011     9078.654     80.35483     161.0282     321.1641      1.434     3.39     888.4699     56.59351     1150.425        24     1.334     0.802 -25.25   0
       476    476.6270    332.3278 307.7284872  +6.5704305     2217.897     3135.594     3342.236     80.09933     160.5182     320.9726      1.502     3.83     897.9719     56.59351     329.8921        18     1.423     0.718 -28.46   0
       477    238.9837    328.0102 307.8273520  +6.5642326     6099.809      8983.86     9687.333     80.22717     160.3265     320.9406      1.524     3.52     908.0719     56.59351     956.8599        27     1.454     0.898 -33.10   0
       478    907.1648    326.7895 307.5498150  +6.5871248     575.5336     810.5292     1166.263     79.97127     160.3905     320.8448      1.323     4.21     891.7322     56.59351     98.33325         7     1.108     0.457 -29.44   0
       479    803.4949    326.5732 307.5928907  +6.5837505     632.3214     821.4062     1520.379     80.60951     160.3266     320.9406      1.582     4.85     895.3646     56.59351      85.1817         7     1.135     0.587 -42.47   0
       480    930.1972    323.1316 307.5403688  +6.5894037     513.0441     722.4708      694.529       79.843     160.1986     320.8448      1.620     4.02     890.8022     56.59351     97.08704         6     1.143     0.405 -27.89   0
       481    758.0593    321.5646 307.6119342  +6.5842988     899.9217     1099.847     1009.547     80.48227      160.582     321.0364      1.327     4.08     895.2782     56.59351     132.5684         8     1.022     0.568 -20.32   0
       482    110.7205    321.5931 307.8808488  +6.5625662     440.8087     551.0827     557.2428     80.09933     160.1347     320.8448      1.210     3.51     914.3521     56.59351     89.95789         5     0.808     0.679 -50.01   0
       483    216.1575    320.4751 307.8370880  +6.5665753     629.4662      865.487      894.872     80.35482     160.6459     321.1003      1.679     4.20     909.0513     56.59351     93.80798         5     0.898     0.561 -46.91   0
       484    373.2058    318.6176 307.7719112  +6.5726191      1765.72     2731.941     2916.844     80.09932     160.1986     320.9087      1.609     3.54     902.0074     56.59351     257.7129        15     1.144     0.852 -25.95   0
       485    960.0693    317.6581 307.5281418  +6.5926602         1109      1392.64     1248.837     80.60951     160.5182     321.0364      1.370     4.40     889.5653     56.59351     215.8531        10     1.211     0.715 -27.00   0
       486    295.2553    314.7880 307.8044218  +6.5715816     1352.288     1917.698     1901.686       79.843     160.5182      320.749      1.594     5.99     905.3347     56.59351      194.877        13     1.323     0.805 -34.08   0
       487    178.9764    315.8550 307.8526889  +6.5672317     528.9388     781.6212     776.7811     80.09932      160.582     320.8767      1.661     4.59     911.0781     56.59351     87.19934         5     1.206     0.496 -67.67   0
       488    143.0418    314.4320 307.8676642  +6.5666099     1860.098     2619.651     2670.186     79.97127     160.5182     320.9087      1.519     3.75     912.8077     56.59351      274.097        16     1.356     0.702 -31.36   0
       489    552.7258    310.1981 307.6976178  +6.5821164     2339.744         3598     3138.511     79.97127     160.0066     320.9406      1.593     3.65     896.1465     56.59351     344.3035        19     1.299     0.853 -29.95   0
       490    896.5045    309.5959 307.5548194  +6.5938660     1979.411     2616.805     2624.348     80.22717     160.2626     320.8448      1.411     3.53     891.2798     56.59351     301.7798        14     1.202     0.710 -28.83   0
       491    820.4132    309.4240 307.5864368  +6.5913948     354.8589      662.723     711.4905     80.22717     160.3905     321.0045      2.155     5.08     893.9988     56.59351     70.29114         5     1.358     0.537 -43.57   0
       492    716.2771    307.7623 307.6297549  +6.5885984     5622.493     7819.582      8410.62     80.35483     160.6459     321.0683      1.483     3.50     894.7067     56.59351     954.4011        27     1.349     0.909 -29.02   0
       493    656.9866    307.6575 307.6543899  +6.5866574     2403.774     3518.929     3871.205       79.843     160.4543     320.7809      1.513     3.59     894.7492     56.59351     402.0547        17     1.303     0.792 -29.77   0
       494    954.2301    307.4093 307.5309107  +6.5966958     767.1366     1033.604     795.1775     79.97127     160.3905     320.8767      1.222     3.83     889.3297     56.59351     138.0013         6     0.894     0.470 -40.33   0
       495    371.8783    302.2609 307.7730132  +6.5793260     666.8699     731.0657     428.8301     80.60951     160.6459     321.0364      1.246     4.44     901.6062     56.59351     123.6209         6     1.133     0.496 -45.34   0
       496    912.2552    299.9416 307.5485991  +6.5983770     1243.962     1631.939     2040.382     80.60951      160.582     321.1003      1.453     3.37     890.2314     56.59351      251.864        12     1.188     0.689 -31.97   0
       497    215.7732    292.9737 307.8381747  +6.5779139     2458.889     3731.333     3956.402     79.97127     160.3905     320.9087      1.599     3.71     908.3564     56.59351     348.4066        19     1.438     0.814 -34.55   0
       498    858.3526    291.9995 307.5712589  +6.5998551     2001.776     2557.378     2156.892     79.71453     160.1986     320.6211      1.372     3.57     892.0845     56.59351     306.7809        14     1.202     0.717 -31.51   0
       499    237.4222    286.9463 307.8293846  +6.5811297     734.1674     957.2958      904.881     79.97127      160.582     320.8767      1.458     5.15     907.2871     56.59351     108.6365         8     1.268     0.592 -40.37   0
       500    748.8693    291.5311 307.6167591  +6.5963886     1761.267     2333.662     2143.939     80.48227     160.7096     321.0364      1.420     3.66     893.9879     56.59351     296.1385        13     1.301     0.591 -32.79   0
       501    449.7146    282.9279 307.7413285  +6.5899185     24138.62     35332.26     36761.11     80.60951     160.8371     321.1003      1.545     3.53     896.9626     56.59351     3414.492        51     1.531     1.048 -31.40   2
       502    455.3362    277.6261 307.7391714  +6.5922955       1377.3     2038.464     2798.972     80.09933      160.582     321.0045      1.635     3.96     896.4935     56.59351     203.5602        12     1.112     0.753 -17.10   3
       503    310.6741    285.1835 307.7990137  +6.5843193     654.1632     831.8868     269.7583     79.97127     160.3265     320.9406      1.233     3.90     904.1776     56.59351     90.78406         6     1.230     0.354 -29.14   0
       504    775.7472    282.0899 307.6059093  +6.6011845     14262.92     20743.17     22295.31     80.48227     160.3905      321.196      1.541     3.87     893.5325     56.59351     2182.312        40     1.573     0.923 -25.66   0
       505    714.1195    278.0557 307.6316478  +6.6007884     657.6625     1145.348     993.3066     80.60951      160.582     321.1003      1.537     5.38     893.3954     56.59351     112.7317         9     1.357     0.602 -50.81   0
       506    137.9187    276.1702 307.8710832  +6.5822304     2356.349     3349.517     3853.554     80.35482     160.3905     321.0683      1.517     3.78     911.7665     56.59351     347.6868        19     1.383     0.797 -33.11   0
       507    164.3486    274.7683 307.8601511  +6.5836985     784.9654     1227.428     1177.536     80.35483     160.6459     321.0045      1.603     5.02     910.4604     56.59351     140.9653         9     1.441     0.494 -46.67   0
       508    112.4162    275.3784 307.8817039  +6.5816988     1389.584     1973.701     2779.453     80.09933     160.2626     321.0045      1.671     4.95     913.0045     56.59351     190.8796        13     1.176     0.767 -36.91   0
       509    768.6379    274.2522 307.6091257  +6.6041820     722.6916     1251.484     1755.513     80.22717     160.6459     321.0683      1.805     3.58     893.2429     56.59351      111.903         9     0.870     0.761  -8.29   0
       510    911.8414    272.5695 307.5496874  +6.6096619     1457.336     1920.875     2206.537     79.97127     160.4543     320.9087      1.408     3.28     889.1213     56.59351     262.7734        12     1.130     0.663 -17.00   0
       511    610.4745    270.2716 307.6749680  +6.6005317     615.8685     833.0172     1321.632     80.73656     160.7096     321.1003      1.528     3.31     892.6937     56.59351     106.6262         5     0.727     0.465  71.07   0
       512    573.6865    268.7650 307.6903019  +6.5999212     5018.715     7007.433     7298.777     80.48227     160.4543     321.0683      1.499     3.62     893.4111     56.59351     793.2032        23     1.389     0.816 -35.95   0
       513    536.3825    268.7012 307.7058018  +6.5986973     2265.322     3074.795     3150.283     80.48227     160.3905     320.8448      1.467     3.56     894.1449     56.59351     394.9921        18     1.375     0.745 -32.84   0
       514    293.8173    269.5806 307.8065420  +6.5901932     1077.114     1412.913     1037.605     80.22717     160.3905     321.0045      1.459     3.72     904.9431     56.59351     160.2262        10     1.147     0.577 -14.23   0
       515    378.2791    267.6607 307.7715188  +6.5938227     1671.328     2176.273     1905.141     80.60951      160.582     321.0364      1.454     4.15      899.989     56.59351     248.8804        15     1.269     0.791 -43.71   0
       516    880.8271    265.3063 307.5628158  +6.6116242      12403.4     17234.52      17449.3     80.60951     160.3265     320.9087      1.431     3.52     890.0781     56.59351     1974.843        30     1.403     0.844 -29.01   0
       517    934.7035    265.7021 307.5404190  +6.6132599     3079.502      4070.51     3871.095     80.48227     161.1554     320.9087      1.437     3.82     888.0933     56.59351      567.991        17     1.320     0.735 -30.65   0
       518    555.5079    265.2277 307.6979730  +6.6007721     966.0308     1306.834     1647.595     80.60951     160.3266     320.9406      1.488     4.05     893.5777     56.59351      128.136        11     1.004     0.805 -27.92   0
       519    308.4173    265.6482 307.8006092  +6.5923070     1053.949     1466.969     1277.244     79.97127     160.6459     320.8448      1.357     3.96     904.0777     56.59351     175.5162         9     1.166     0.493 -35.16   0
       520    967.4695    263.0811 307.5268936  +6.6154354     10902.76     14938.01     15456.16     80.73656     160.8371     321.1003      1.469     3.59     887.4332     56.59351     1714.003        33     1.418     0.891 -28.80   0
       521    200.1009    265.2219 307.8456209  +6.5888416     741.0895     1165.255     1168.942     80.35482     160.3265     320.8448      1.635     4.50     908.4803     56.59351     144.7104         8     1.227     0.469 -21.77   0
       522    678.9556    263.0367 307.6467605  +6.6058111     3001.439     4391.281     4513.571     80.22717     160.5182     320.9406      1.481     3.67     892.8527     56.59351     480.7863        20     1.337     0.822 -28.82   0
       523      6.9741    261.7850 307.9259645  +6.5837578     27159.03     39866.16     41243.22     80.22717     160.4543     313.1172      1.546     3.40     918.2607     56.59351     4016.704        49     1.535     1.033 -31.00  16
       524    253.3168    262.7634 307.8235967  +6.5916459     1201.789      1612.65     1297.909     80.48227     160.5182     321.0045      1.491     4.31     906.3642     56.59351     180.6134        11     1.196     0.652 -16.12   0
       525    487.5011    257.9018 307.7264722  +6.6015160     2197.736      3118.11     3485.489     80.48227     160.9645     320.9087      1.587     4.47     894.1124     56.59351     346.0907        15     1.251     0.758 -31.55   0
       526    871.6382    253.8640 307.5670166  +6.6160404     2253.917      3017.97     3549.044     80.48227     160.5182     321.1322      1.476     3.56     889.9735     56.59351     374.6628        16     1.331     0.690 -31.41   0
       527    819.3480    254.6070 307.5887164  +6.6139864     2277.839     3286.654     2734.485     79.97127     160.3905     320.6851      1.512     3.85     891.5142     56.59351     381.5635        17     1.224     0.875 -30.95   0
       528    499.4053    253.8815 307.7216618  +6.6035746      2821.28     3974.124     3569.995     80.09932     160.1347     320.8448      1.504     3.41     893.7379     56.59351     440.5966        17     1.242     0.783 -36.84   0
       529    730.9995    251.2309 307.6255348  +6.6124257     42860.79     60995.16     62666.04       79.843     160.3905     320.8767      1.484     3.44     892.8538     56.59351     6573.836        50     1.484     0.952 -28.88   0
       530    333.3264    252.3576 307.7907088  +6.5986297     3907.019     5407.792     5510.404     80.35483     160.6459     321.1003      1.438     3.44     902.1119     56.59351     596.8411        16     1.241     0.768  -8.50   3
       531    334.1875    249.5969 307.7904440  +6.5997981     5535.205     8577.205     9150.456     80.09932     160.2626     320.9406      1.684     3.77     901.9764     56.59351     758.5154        28     1.470     1.027 -24.65   3
       532    964.7119    250.0570 307.5284752  +6.6207195     3088.855     4347.343     4539.048     80.48227     160.4543      321.196      1.466     3.62     886.9536     56.59351      513.241        21     1.342     0.840 -25.68   0
       533    898.8579    248.3139 307.5558937  +6.6192405     8068.956     11102.94     11354.28     80.48227      160.582     321.2279      1.436     3.48     888.7247     56.59351     1290.874        29     1.417     0.854 -27.56   0
       534   1003.1739    248.7724 307.5125384  +6.6225331     1947.398     2680.517     2705.893     79.97127     160.3905     320.9087      1.414     3.43     886.1369     56.59351     299.0123        13     1.188     0.698 -16.05   0
       535    442.3948    247.4194 307.7455638  +6.6043296     5500.083     8139.907     8435.906     80.09933     160.1986     320.8767      1.595     3.53     895.5928     56.59351     833.5244        29     1.420     0.967 -34.41   0
       536    216.4497    244.3342 307.8395334  +6.5980130     743.0964     854.3409     715.3196     80.35483     160.4543     321.0364      1.390     4.81     907.2383     56.59351      93.4079         7     1.082     0.606 -15.72   0
       537     99.8118    238.5828 307.8881818  +6.5964620     5073.871     7378.966     7586.963     80.09932     160.2626     320.9726      1.541     3.58     911.7845     56.59351     742.9226        27     1.441     0.901 -30.27   0
       538    245.3665    236.4445 307.8277865  +6.6022420     7088.068     10518.29      11144.5     80.09933     160.4543     320.9406      1.613     3.47     906.2145     56.59351     1086.665        33     1.458     0.989 -34.52   0
       539    919.1876    237.9802 307.5477934  +6.6241849     1020.189     1569.552     1912.494     80.22717     160.2626     320.9726      1.575     4.10      887.649     56.59351     169.9442        11     1.186     0.607 -19.57   0
       540    596.3450    237.2346 307.6819476  +6.6136951       659.87     1020.576     1403.742     80.35483      160.582     321.0683      1.676     5.46     891.8088     56.59351     98.58154         7     1.140     0.737 -51.05   0
       541    270.0826    235.3544 307.8175552  +6.6035228      36065.6     53246.64     55558.38     80.48227      160.582     321.0683      1.541     3.46     905.6786     56.59351     4940.837        54     1.513     1.066 -30.77   0
       542    699.0796    234.8095 307.6393471  +6.6181360     914.5638     1224.911     1070.319     80.09932     160.1986     320.9087      1.333     4.99     892.4017     56.59351     166.7339         9     1.128     0.625 -42.79   0
       543    394.1739    230.8795 307.7661534  +6.6095384     52617.84      77778.7     80550.11     80.35482     160.4543     321.0683      1.561     3.56     897.4748     56.59351     7897.751        58     1.551     1.059 -30.43   0
       544    150.0531    232.1911 307.8675260  +6.6007914     4238.462     6275.412     6505.968     79.97127     160.4543     320.7809      1.513     3.37     909.8631     56.59351     623.1514        26     1.439     0.896 -34.33   0
       545    411.3978    231.6032 307.7589734  +6.6098178     1695.529     2171.104     1906.329       79.843     160.1347     320.8129      1.416     3.29     896.5881     56.59351     274.9469        14     1.100     0.842 -35.52   0
       546    298.1685    228.5734 307.8061158  +6.6072657     19585.28     28548.24     29290.09     79.97127     160.3265     320.9087      1.557     3.42     904.4938     56.59351      2975.92        41     1.493     0.989 -32.00   3
       547    305.5492    228.5812 307.8030493  +6.6075105     2198.593      3486.67     4244.888     79.97127     160.6459     320.8129      1.845     6.88     903.7853     56.59351     315.1366        23     1.887     1.009 -66.30   2
       548    733.4390    227.1179 307.6253301  +6.6224606     36400.55     50354.44     51735.77     80.48227     160.6459     321.0045      1.495     3.70       892.25     56.59351     5363.244        50     1.475     0.976 -30.29   0
       549    681.3282    229.1148 307.6469132  +6.6198925     1054.957     1509.672     1500.057     80.60951     160.8371     321.1003      1.537     3.57      892.269     56.59351      196.098        11     1.198     0.628 -44.42   0
       550    781.6738    227.7181 307.6052699  +6.6238261     1269.656     1922.639      2088.46     80.73656     160.9008     321.1322      1.708     4.61      891.069     56.59351     192.3825        13     1.282     0.680 -38.53   0
       551     20.9900    227.1393 307.9213124  +6.5985302     715.9976     885.5894     314.9096       79.843     160.4543     320.7809      1.514     4.94     918.1484     56.59351     93.84851         8     1.193     0.578 -67.22   0
       552     50.3217    224.2251 307.9092258  +6.6007213     9659.508     14286.48     14336.05     80.22717     160.5182     321.0364      1.581     3.48     915.5063     56.59351     1313.921        36     1.510     0.994 -30.92   0
       553     84.2873    222.1426 307.8951860  +6.6027250      1568.26      2313.97     2239.763     80.48227      160.582      321.196      1.490     4.16     912.3431     56.59351     235.2172        16     1.438     0.768 -25.91   0
       554    991.8642    221.5804 307.5181469  +6.6333801     1193.269     1497.716     1913.059     80.09932      160.582     320.9087      1.379     4.23     885.1556     56.59351      173.347        12     1.268     0.615 -33.73   0
       555    959.2944    220.5339 307.5317140  +6.6327252     667.9929     944.1661     867.4844     80.48227     160.7096     321.1003      1.686     4.51     885.9582     56.59351     115.8663         7     1.320     0.438 -11.03   0
       556    567.0362    211.9640 307.6949731  +6.6231441     929.5817      1340.11     1118.284     80.22717     160.4543     320.8129      1.423     3.41     890.9019     56.59351     150.6733         9     0.919     0.692 -21.21   0
       557    992.8164    207.7090 307.5182154  +6.6391377     2348.076     3268.196     4201.158     80.22717     160.3905     320.9726      1.472     3.17     884.5695     56.59351     397.4821        15     1.256     0.687 -26.32   0
       558    576.2396    205.4626 307.6913679  +6.6261361     1090.443     1721.172     2376.194     80.48227     160.5182     321.1322      1.911     5.75     890.5931     56.59351     157.2798        13     1.330     0.705 -28.93   0
       559    584.2328    203.4542 307.6881145  +6.6272329     2121.464     3055.358     3540.421     80.35483     160.5182     321.0045      1.578     3.59     890.4662     56.59351     310.5201        19     1.351     0.791 -29.70   0
       560    328.7113    203.2147 307.7942810  +6.6187590     1021.003     1695.698     1571.837     80.22717     160.3905     320.9406      1.729     4.62     901.6526     56.59351     140.7778        12     1.194     0.846 -28.56   0
       561    269.0175    201.6093 307.8191348  +6.6174157      32344.9     48143.72     50100.17     80.22717     160.3265     320.9406      1.570     3.54     905.6596     56.59351     4636.134        50     1.508     1.062 -32.00   0
       562    700.6435    198.3179 307.6399218  +6.6332511     8881.736     12263.55     12804.84     80.48227      160.582     321.0364      1.460     3.44      890.624     56.59351     1305.481        30     1.423     0.872 -31.60   0
       563    177.8057    199.6175 307.8570954  +6.6151703     1096.057     1580.824     1335.062     80.09932     160.2626     320.9087      1.431     3.68     908.1067     56.59351     164.4478        11     1.034     0.781 -15.97   0
       564     14.2081    200.1276 307.9250423  +6.6094508     4762.176     7148.503     7345.823     79.97127     160.1347     320.9726      1.555     3.36     918.9124     56.59351     738.2092        27     1.406     0.934 -33.84   0
       565    111.4375    195.3488 307.8848113  +6.6146985     5246.861     7857.264     8057.635     80.22717      160.582     321.0364      1.602     3.66     910.3654     56.59351       796.14        27     1.416     0.939 -31.93   0
       566    573.0846    193.3878 307.6930844  +6.6310144     797.6902     1218.011     1342.099     80.09932     160.3905     320.9087      1.544     3.44     890.1441     56.59351     130.6943         7     0.837     0.743 -41.98   0
       567    638.6849    192.4927 307.6658594  +6.6335815     805.3969     1215.942      1280.49     80.22717     161.0282     321.1641      1.741     4.61     890.0134     56.59351     130.6421         8     1.374     0.439 -30.91   0
       568    450.3504    192.6489 307.7441010  +6.6272040      1549.12     2197.138     1774.442     80.48227     160.4543     321.0045      1.539     3.58     892.6722     56.59351     269.6365        15     1.287     0.701 -23.59   0
       569    382.1545    191.4109 307.7724753  +6.6254261     4049.892     6794.386     7246.214     79.97127     160.4543     320.7809      1.766     3.60     896.9889     56.59351     579.0635        32     1.408     1.252 -42.13   0
       570    346.5354    190.2557 307.7873124  +6.6247067     3542.027     5028.408     5117.025     80.60951      160.582     321.0683      1.531     3.65     899.9945     56.59351     481.1516        22     1.419     0.839 -34.39   0
       571    100.9484    190.1509 307.8893444  +6.6164908     1775.354     2471.579     2640.956     80.60951     160.4543     321.0364      1.516     4.07     910.6573     56.59351     260.3771        18     1.400     0.824 -45.01   0
       572    558.8031    189.9798 307.6991324  +6.6319425     689.0833     1427.479     1365.861     80.09932     160.1986     320.8448      2.122     5.18     890.1605     56.59351     91.62946         9     1.245     0.608 -53.60   0
       573    929.4793    189.4488 307.5451422  +6.6445612     491.3636     802.8558     792.9881     80.48227     160.6459     321.0683      1.251     4.26     885.4641     56.59351     87.30707         5     1.247     0.415 -33.77   0
       574    662.4546    188.0765 307.6561320  +6.6362002     894.8878     1382.701     1412.125     80.60951      160.582     321.0683      1.728     4.99     889.9631     56.59351     116.6323        10     1.031     0.688 -27.19   0
       575    993.5273    184.4671 307.5186976  +6.6487551      1552.87     2133.143      2172.38     80.60952     160.7096     321.0364      1.518     3.99     883.5824     56.59351     226.0585        13     1.334     0.620 -29.10   0
       576    718.5666    184.7844 307.6329292  +6.6394371     542.5853     805.0106     499.3021     80.09932     160.3265     320.9406      1.323     3.66     889.8657     56.59351     118.6159         5     0.972     0.397  -6.87   0
       577    378.1520    180.9954 307.7744888  +6.6295908     419.7192     532.2229     650.9682       79.843     160.3905      320.749      1.331     3.85     897.1044     56.59351      78.5932         5     0.832     0.512 -34.12   0
       578    198.4356    179.1756 307.8492142  +6.6243019     5930.374     8575.303     8798.771     80.09932     160.3905     320.8448      1.533     3.53     907.1233     56.59351      821.947        26     1.429     0.880 -33.09   0
       579     80.9300    179.1970 307.8980306  +6.6203379     2250.699     3250.926      2910.04     79.97127     160.1986     320.8767      1.555     3.64     912.2842     56.59351     294.4883        20     1.287     0.938 -25.08   0
       580    660.1948    178.0006 307.6574091  +6.6402836     6742.047     9296.104     9793.242       79.843     160.2626     320.8448      1.460     3.48     889.3856     56.59351      1087.63        26     1.383     0.867 -27.81   0
       581    808.2477    177.7298 307.5959049  +6.6453484     1153.939     1475.481     1242.371     80.48227     160.5182     321.1003      1.402     4.09     888.7409     56.59351     196.1236        10     1.235     0.603 -50.41   0
       582    612.3795    175.2981 307.6773661  +6.6397978      10304.1     14587.69     15837.76     80.35483     160.3905     320.8129      1.548     3.60     888.9738     56.59351     1449.693        31     1.436     0.910 -28.34   0
       583    247.0484    176.0153 307.8291245  +6.6272412     631.8063     828.6025     847.6631       79.843     160.5182     320.8129      1.444     4.39     905.9919     56.59351     97.83771         6     1.052     0.522 -11.33   0
       584     10.7030    174.4347 307.9273664  +6.6199374     956.1286     1677.194     1144.162     80.48227     160.4543     321.2279      1.907     6.31     919.2954     56.59351     135.0275        13     1.448     0.772 -36.57   0
       585    550.1929    174.4097 307.7032329  +6.6380808     592.1088     937.6563     1170.993     79.97127     160.3905     320.9087      1.600     2.98     889.7252     56.59351      88.2821         5     0.733     0.444  21.18   0
       586    339.4398    171.1250 307.7909045  +6.6323648     3835.045     6001.166     6125.772     80.35482      160.582     321.1003      1.684     3.89     900.7448     56.59351     516.6123        27     1.518     0.958 -35.69   0
       587    521.0913    170.3812 307.7154592  +6.6387680     1896.383     2610.298     2094.767     80.35482     160.3265     320.9406      1.433     3.67     889.9966     56.59351     272.6866        14     1.236     0.689 -28.93   0
       588    985.6699    170.0815 307.5224437  +6.6544310     773.8301      1142.05     1299.027     80.73656     160.8371     321.1003      1.628     3.09     883.2301     56.59351     133.9948         8     0.904     0.696 -11.49   0
       589    615.9161    166.8199 307.6761814  +6.6434158     56867.58     82120.56     85862.93     80.09932     160.2626     321.0364      1.511     3.58     888.5972     56.59351     8707.299        64     1.523     1.042 -30.07   0
       590    295.0897    160.4012 307.8096915  +6.6353010      3912.91     5505.477     5367.441     79.71453     160.1347     320.8448      1.463     3.67     904.8663     56.59351      569.589        23     1.344     0.889 -26.20   0
       591    694.3058    155.2899 307.6439988  +6.6507998     1129.149     1488.945     1816.102     80.48227     161.0918     321.1003      1.412     3.68     888.2328     56.59351      202.601        13     1.230     0.697 -35.89   0
       592    666.3719    154.0500 307.6556467  +6.6503765     1503.099     2177.518     1692.257     80.09932     160.7096     320.9726      1.534     3.55     888.2627     56.59351     268.7571        12     1.155     0.749 -25.87   0
       593    680.4533    150.7339 307.6499073  +6.6522167     3560.809     5087.191     5086.644     80.48227     160.5182     321.0364      1.554     3.55     888.1571     56.59351     571.7137        23     1.466     0.846 -20.50   0
       594      1.2545    143.7009 307.9323301  +6.6323043     1189.604     2689.003     5274.367     68.66265     126.2835     240.5111      5.394    10.02     918.5537     56.59351     182.2638        22     2.507     1.140 -79.05  27
       595      1.1920    139.2592 307.9325062  +6.6341355     1033.442     2529.235     5673.913     67.60971     125.2239     238.9721      8.530    13.29     918.0193     56.59351     187.9075        32     5.250     0.937 -81.38  27
       596    422.0004    141.8260 307.7575895  +6.6472305     4302.331     6282.433     6276.186     80.09932     160.2626     320.8767      1.498     3.49     891.8965     56.59351     681.6063        24     1.384     0.880 -33.63   0
       597    876.5833    138.1988 307.5688365  +6.6639494      2369.69     3022.226     2987.971     80.09932     160.1347      320.749      1.413     3.89     884.0867     56.59351     366.9955        16     1.254     0.724 -26.25   0
       598    894.6736    137.1623 307.5613547  +6.6649815     4389.633     6172.414     6328.109     80.35482     160.6459     321.1322      1.505     3.80     883.5981     56.59351     659.1947        22     1.358     0.820 -29.28   0
       599    586.6575    135.6868 307.6893837  +6.6552864     1965.438      2819.93      3067.12     80.48227      160.582      321.196      1.583     4.07     888.1674     56.59351     306.5618        14     1.240     0.710 -28.60   0
       600    385.5165    133.6442 307.7730230  +6.6493829     2079.437     3120.829     2497.739     80.48227      160.582     321.0683      1.544     4.01     895.5295     56.59351     313.4061        20     1.469     0.867 -32.52   0
       601    232.6330    135.1014 307.8364927  +6.6436441     976.0826      1319.11     1390.483     80.48227     160.4543      321.196      1.434     3.61     906.0446     56.59351     167.2407         9     0.956     0.738 -40.45   0
       602    950.5394    130.9223 307.5383511  +6.6694226     3153.252     3674.116     3316.182     80.60951     160.6459     321.0364      1.204     3.72     881.8895     56.59351     961.4333         7     1.375     0.289 -72.40   0
       603    133.3526    130.5415 307.8778939  +6.6421857     3455.528     4983.868     5389.847     80.48227      160.582      321.196      1.583     3.59     907.9727     56.59351     508.1387        20     1.400     0.793 -27.06   0
       604    281.5802    129.0018 307.8163623  +6.6478074     1508.871     2301.231     2904.316     80.09932     160.1347     320.7809      1.659     3.25     905.4156     56.59351     242.7927        14     1.113     0.840 -25.09   0
       605     15.2059    128.2967 307.9270545  +6.6391326     13428.22     19580.25     20736.12     80.22717     160.2626     320.8767      1.537     3.27     915.6968     56.59351     1872.133        39     1.457     1.031 -34.26   0
       606    554.4307    128.3398 307.7030204  +6.6572390     618.7108     765.5775     493.6779     80.22717      160.582     321.0364      1.159     3.24     888.5734     56.59351     123.5845         5     0.961     0.339 -66.33   0
       607    542.4114    127.9218 307.7080284  +6.6570087     838.7255     1216.308     1358.271     80.09932     160.1986     320.9406      1.618     3.24     888.7548     56.59351     168.4217         9     1.105     0.603 -43.68   0
       608    935.8637    127.0824 307.5445775  +6.6705177     645.1113     857.3314     382.5598     80.60951     160.7096     321.0683      1.373     3.69     881.9939     56.59351     115.0598         5     0.637     0.617  31.83   0
       609    750.3732    127.5660 307.6216334  +6.6641194     775.3145     982.5195     1416.111     79.97127     160.3266     320.8448      1.234     3.65     886.3239     56.59351     190.6221         6     0.981     0.390 -19.88   0
       610    761.9894    123.3413 307.6169485  +6.6662517     3515.262     5077.102      4796.28       79.843     160.4543     320.7809      1.446     3.30     885.9409     56.59351     523.5745        23     1.330     0.886 -32.83   0
       611    884.2919    123.8886 307.5661129  +6.6701138     700.7221     867.6423      1352.49     80.48227     161.0282     321.1641      1.487     3.55     882.9504     56.59351     150.3367         6     1.025     0.440 -25.93   0
       612    816.9413    122.9682 307.5941283  +6.6682432     6767.436     9358.331     9726.597     80.35482     160.6459     321.0045      1.455     3.57     885.1367     56.59351     1071.911        27     1.347     0.875 -30.23   0
       613    407.0402    123.8866 307.7644089  +6.6541331     1079.735     1304.317     530.7588     80.48227      160.582     321.1003      1.375     4.22      893.009     56.59351     180.9352        11     1.272     0.597 -36.14   0
       614    748.9287    122.5137 307.6224030  +6.6661565     635.9423     960.7918     1335.182     80.60951     160.8371     321.1003      1.566     3.99     886.0042     56.59351     126.4846         7     1.068     0.525 -27.71   0
       615    524.7040    121.2773 307.7156089  +6.6591576      1153.87     1755.553     1702.224     80.22717     160.7734     321.1322      1.618     4.73      888.753     56.59351     191.5386        12     1.393     0.581 -29.13   0
       616     55.4959    120.1984 307.9105894  +6.6438329      3416.42     5172.675     5538.023     79.97127     160.3265     320.6851      1.590     3.54     911.8389     56.59351     465.8926        26     1.484     0.937 -34.09   0
       617    643.6669    120.7404 307.6661987  +6.6633655     709.7427     985.4306     1034.789     80.60951     160.5182     321.0683      1.508     4.33     887.4386     56.59351     100.2928         5     0.967     0.552 -37.64   0
       618     39.8354    121.0648 307.9170664  +6.6429476     940.5071     1414.071     1066.125     80.35482      160.582     321.1003      1.524     3.95     913.0738     56.59351      151.038        10     1.198     0.563 -25.71   0
       619    416.5589    119.9250 307.7605873  +6.6560878     964.1514     1391.674     1428.086     80.35482      160.582     321.1003      1.707     4.73        891.8     56.59351     121.1069         9     1.120     0.567 -27.22   0
       620    579.3381    116.8484 307.6930578  +6.6628170     1494.974     2224.885     2212.479     80.48227     160.5182     321.1322      1.535     4.21     887.9285     56.59351     216.6506        14     1.285     0.718 -21.87   0
       621    705.8019    113.2503 307.6406331  +6.6685372     511.0918     510.4683     204.9834       79.843     160.1986     320.6531      1.368     5.05     886.2757     56.59351     99.28589         7     1.483     0.487 -52.56   0
       622     70.1294    111.2130 307.9048132  +6.6480346     930.1323     1204.591     931.3885     79.97127     160.3265     320.9406      1.348     5.03     910.1182     56.59351      163.895         9     1.329     0.587 -47.62   0
       623    756.8320    110.7308 307.6195144  +6.6712845      2150.68     3096.252     2990.928     80.35482      160.582     321.0683      1.542     3.80     885.1756     56.59351     335.2697        17     1.325     0.751 -27.52   0
       624    397.2395    110.8660 307.7689191  +6.6591785     1140.184     1731.575     1242.043     80.48227     160.5182      321.196      1.619     5.15      894.033     56.59351     165.6171        12     1.298     0.657 -31.70   0
       625     93.9919    109.9204 307.8949428  +6.6493718     949.3989     1194.207     1095.071     80.09932     160.1346     320.9087      1.359     3.31     908.3629     56.59351     157.7693         8     0.866     0.710  88.21   0
       626     83.3494    104.4288 307.8995499  +6.6512801      10147.7     14784.41     15233.29     80.09933     160.7096     320.9726      1.575     3.42     908.8092     56.59351     1522.666        35     1.461     0.999 -37.07   0
       627    412.5294    104.2549 307.7627889  +6.6624206     2768.196     3938.614     3592.723     80.35483     160.5182     321.0364      1.538     3.51     892.0685     56.59351     375.4691        20     1.292     0.901 -18.74   0
       628    233.4551    104.4593 307.8371843  +6.6563194     710.2675     914.8088     704.4656     80.60952      160.582     321.0683      1.550     4.29     905.8973     56.59351     123.6818         8     1.060     0.644 -79.16   0
       629    250.0247     98.5780 307.8304982  +6.6593042     1512.849      2453.95     3124.982     80.09932     160.3905     321.0364      1.811     3.79     905.6796     56.59351     222.2134        17     1.272     0.888 -24.87   0
       630    626.1168     96.4945 307.6743050  +6.6727856     19755.02     28579.84      29292.1     80.22717     160.9645      321.196      1.516     3.52     886.9131     56.59351     2915.211        46     1.509     1.011 -28.78   0
       631    681.9975     96.6504 307.6510810  +6.6745924     558.8296     817.0687     1040.371       79.843     160.1986     320.6531      1.251     3.40     886.4183     56.59351     104.8149         5     0.870     0.477   0.75   0
       632    525.8014     92.5992 307.7161171  +6.6710317     5460.008     7987.297     7578.577       79.843     160.1347      320.749      1.581     3.60     888.0073     56.59351     846.9099        30     1.420     1.004 -35.66   0
       633    243.9872     92.9878 307.8331951  +6.6614085     1849.318     2715.629     4061.488     80.35482     160.2626     321.0045      1.613     3.49     905.6627     56.59351     285.3274        16     1.258     0.764 -32.40   0
       634    762.3197     91.3974 307.6178826  +6.6794483     440.7467     654.9619       1046.6       79.843     160.1347     320.8129      1.756     4.18     884.0196     56.59351     84.96179         7     1.074     0.464  -9.32   0
       635    613.4185     90.4729 307.6797835  +6.6748458     948.5942     1310.887     1653.932     79.97127     160.5182     321.0045      1.610     4.98     886.7462     56.59351     142.9563        11     1.264     0.653 -38.32   0
       636    431.4217     88.1956 307.7554797  +6.6696833     24812.32     35962.95     37190.19     80.09932     160.3265     320.8448      1.559     3.54     890.7342     56.59351     3362.201        44     1.508     1.003 -29.17   0
       637    252.0018     88.5681 307.8300142  +6.6635023     9671.604     14480.11     15291.89       79.843     160.3905     320.8767      1.569     3.37     905.4991     56.59351     1385.041        40     1.496     1.053 -35.40   0
       638    311.8573     89.1261 307.8051264  +6.6652840      1083.42     1680.079     1974.585     80.48227      160.582     321.0364      1.687     4.61     902.9267     56.59351     163.1052        12     1.336     0.654 -28.23   0
       639    909.5359     88.3101 307.5568153  +6.6856429     2012.088      3167.41     3118.382     80.35483     160.7734     321.1003      1.679     6.24     880.3723     56.59351     308.4946        16     1.442     0.759 -25.31   0
       640     17.4420     88.1414 307.9274822  +6.6557820     2529.536     3741.323     4073.935     80.48227      160.582     321.1322      1.572     3.88     911.9197     56.59351     366.4936        21     1.411     0.889 -23.17   0
       641    544.1373     87.8191 307.7086592  +6.6736195     665.6964     937.9026     609.4529     80.09932      160.582     320.9406      1.421     4.35     887.6732     56.59351     117.1384         6     0.938     0.575 -63.98   0
       642    516.4775     88.2188 307.7201385  +6.6725272     767.1304      1030.17     850.3477     79.97127     160.3266     321.0364      1.403     4.17      887.809     56.59351     139.9346         7     0.875     0.621 -16.93   0
       643    612.2626     86.3014 307.6804039  +6.6765289      3491.87     5266.776     5994.983     80.22717     160.6459     321.1322      1.528     3.40     886.6016     56.59351     495.4215        22     1.385     0.835 -26.36   0
       644    240.0150     85.1000 307.8351115  +6.6645307     3225.342     5001.654     6022.669     80.48227     160.3265      320.717      1.601     3.53     905.5523     56.59351     477.4749        21     1.263     0.935 -33.46   0
       645    293.2501     83.2708 307.8130547  +6.6670755     1089.784       1471.5     1593.073     80.48227     160.5182     321.1003      1.407     5.26     904.6226     56.59351     163.2314        10     1.345     0.581 -45.55   0
       646    930.2485     78.4649 307.5485385  +6.6903983     1176.174     1756.344     2160.254     80.35483     160.4543     321.0683      1.675     5.02     879.8225     56.59351     201.3627        13     1.418     0.754 -28.17   0
       647    681.0836     78.0412 307.6520855  +6.6822431     1992.484     2739.548     3002.331     80.48227     160.5182     321.0045      1.419     3.28     885.6506     56.59351     314.3926        13     1.107     0.711 -25.27   0
       648     86.1505     78.6297 307.8992572  +6.6620230     512.8161     748.4965     652.8518     80.09932     160.6459     320.9726      1.380     3.39     907.4765     56.59351     82.68964         5     0.762     0.437 -19.22   0
       649    246.8989     72.9151 307.8326621  +6.6697916     753.6989     1208.508     1624.368     80.48227     161.0282     321.1322      1.669     4.49     905.2504     56.59351     115.3668         8     0.930     0.710  88.08   0
       650    191.8066     73.8465 307.8555207  +6.6675541     802.8278     1083.768     450.0436     79.97127     160.3905      320.717      1.437     4.28     905.5897     56.59351     136.7003         7     0.897     0.583 -50.08   0
       651    169.5085     70.6003 307.8648947  +6.6681436     11576.11     16809.84     17523.47     79.71454     160.0706     320.7809      1.566     3.44     905.5834     56.59351     1774.841        34     1.453     0.978 -33.07   0
       652    513.7307     68.7385 307.7219347  +6.6804758     3125.357      4586.99     4482.048     80.60951      160.582     321.1003      1.565     3.64      886.871     56.59351     508.3937        23     1.371     0.874 -24.82   0
       653    915.2175     68.3048 307.5551246  +6.6940902     4405.133     5995.056     6157.098     80.35483     160.3905     320.9087      1.444     3.57      879.847     56.59351     668.1392        23     1.406     0.770 -30.30   0
       654    715.9955     66.8702 307.6379539  +6.6880226     2100.106     3099.091      3210.84     79.97127     160.1986     320.9087      1.505     3.60     884.2075     56.59351     353.9474        17     1.312     0.762 -34.06   0
       655    451.8654     67.1157 307.7476947  +6.6790704     2098.216     2911.062     2979.029     80.60951     160.8371     321.1322      1.491     3.48     888.9882     56.59351     320.6169        17     1.220     0.821 -27.00   0
       656     70.8256     66.9846 307.9060175  +6.6663133     459.1727      828.162     685.2806     80.22717     160.4543     321.0045      1.586     3.91     907.7333     56.59351     84.07538         6     0.931     0.469 -51.12   0
       657    979.8696     64.7749 307.5283779  +6.6977055     2209.346     3376.785      3253.49     80.09932     160.4543     321.0045      1.518     3.46     877.3962     56.59351     368.9312        20     1.336     0.899 -35.27   0
       658    774.4010     64.1175 307.6137776  +6.6911127     752.8298     921.6208     1140.997     79.71454     160.1347     320.7809      1.428     5.01     882.9587     56.59351     121.9803        10     1.109     0.640 -27.17   0
       659    699.2690     61.1312 307.6450967  +6.6898317     8209.626     11598.23      11700.4     80.48227     160.7096     321.0364      1.506     3.38     884.4588     56.59351     1264.355        31     1.418     0.924 -28.70   0
       660    619.5101     60.3772 307.6782632  +6.6874724     3966.878     5701.842     5802.961     80.48227     160.3905     320.9406      1.536     3.71     885.5576     56.59351     584.9885        20     1.397     0.795 -23.04   0
       661    321.5902     59.8570 307.8020684  +6.6776921     1135.669     1588.929     2327.454       79.843     160.5182     320.7809      1.513     4.62     901.6161     56.59351      142.854        12     1.188     0.711 -20.85   0
       662    419.6629     56.6114 307.7614284  +6.6823254     6726.769       9784.8      9933.62     79.97127     160.3905     320.9087      1.543     3.69      891.266     56.59351     1047.227        29     1.433     0.924 -28.66   0
       663     20.6414     56.0877 307.9272360  +6.6691199     9082.104     13173.73     13652.33     80.48227     160.5182     321.1003      1.533     3.34     909.5474     56.59351     1281.014        32     1.419     0.992 -32.39   0
       664    666.4941     55.2011 307.6589144  +6.6911823     1040.488     1497.343      1843.61     79.97127     160.1986      320.749      1.726     3.93     884.9387     56.59351     156.9961        13     1.095     0.902 -41.30   0
       665    495.2154     53.9468 307.7301254  +6.6859603     941.1426     1752.619     1994.825       79.843      160.582     320.7809      2.040     5.61      886.188     56.59351     160.3313        12     1.242     0.715 -46.81   0
       666    316.2673     51.5157 307.8045611  +6.6809561     14376.31     20996.87     22577.23     80.73656     160.8371     321.1003      1.589     3.43     902.0549     56.59351     2153.584        41     1.490     1.024 -26.06   0
       667     89.8886     51.8527 307.8986082  +6.6732011     2591.337     3817.034     4060.517     80.48227     160.4543      321.196      1.540     3.41     906.1525     56.59351     398.9366        22     1.337     0.913 -40.16   0
       668    410.9874     52.4001 307.7651749  +6.6837724     766.6216     1047.141     782.7549     80.09932     160.2626     320.8767      1.320     3.80     892.1826     56.59351     135.6671         6     0.967     0.452 -12.80   0
       669    784.6623     50.2587 307.6099786  +6.6971764     924.5844     1371.504     1633.209     80.60951     160.5182     321.1003      1.706     5.69     882.2599     56.59351     135.6395        12     1.466     0.623 -26.38   0
       670    450.6156     50.0754 307.7487873  +6.6860620     675.1212     1060.686     1248.569     79.97127     160.3265     320.9406      1.681     5.55     888.5973     56.59351     124.4973         8     1.612     0.538 -40.28   0
       671     81.1241     50.7045 307.9022885  +6.6733798     1773.086     2509.888     2434.743     80.09932     160.7096     321.1322      1.469     3.38     906.5163     56.59351     269.8398        14     1.094     0.830 -15.95   0
       672    382.4849     49.4912 307.7771157  +6.6840161     2526.688     3508.024     3416.229     80.22717     161.0282     321.1641      1.550     3.96     895.4387     56.59351     362.3031        18     1.369     0.754 -30.16   0
       673    977.6741     46.2221 307.5299111  +6.7052904     859.3989     1238.481     1331.863     80.09933     160.4543     321.0045      1.440     4.43     876.4912     56.59351     143.2774         8     1.106     0.504 -36.38   0
       674    643.2220     44.9930 307.6689272  +6.6946166     11888.57     16635.24     17208.78     79.97127     160.3905     320.9087      1.478     3.47     884.7413     56.59351     1931.379        30     1.389     0.906 -29.46   0
       675    807.5729     44.4619 307.6006529  +6.7003352     1729.534     2521.012     3089.088     80.09933     160.6459     321.0045      1.581     3.04     881.4908     56.59351     256.4191        14     1.068     0.780 -36.16   0
       676    520.8471     44.6561 307.7197875  +6.6906548     1495.719     2105.297     2208.617     80.48227      160.582     321.1641      1.542     4.27     885.6527     56.59351     194.7971        14     1.185     0.809 -15.97   0
       677     61.3365     45.5768 307.9106831  +6.6748297     645.4644     979.0593     960.2582     80.09933      160.582     320.9726      1.925     3.33     907.1567     56.59351     109.1874         6     1.021     0.474  -8.80   0
       678    243.5314     41.8420 307.8351089  +6.6825039     6876.015     10567.22     11773.72     80.35482     160.5182     321.1641      1.721     4.13     904.6876     56.59351     994.3239        36     1.800     0.934 -28.12   0
       679    878.2473     42.3856 307.5713550  +6.7035541     1640.158     2193.399     2395.223       79.843     160.3905     320.8129      1.461     3.87     879.5475     56.59351     238.2393        14     1.285     0.670 -27.41   0
       680    419.5241     42.6542 307.7619558  +6.6880817     554.8951     721.1768     571.4906     80.48227      160.582     321.0683      1.524     4.12     891.2324     56.59351     86.21198         6     1.060     0.458 -34.21   0
       681    634.8929     40.3668 307.6725435  +6.6962472     10157.52     14787.77     16077.29     80.60951     160.4543     321.1322      1.514     3.45     884.6241     56.59351     1555.427        37     1.480     0.994 -29.97   0
       682    404.6343     40.4962 307.7682153  +6.6884726     8917.504     12843.02     12945.24     80.60951     160.4543      321.196      1.557     3.61     892.8389     56.59351     1303.455        31     1.469     0.900 -26.36   0
       683    946.2270     41.4867 307.5431371  +6.7061954      585.604     832.2595     864.1636     80.60951     160.3266     320.9406      1.219     3.37      878.139     56.59351     104.1362         5     1.037     0.317 -23.03   0
       684    666.8148     38.0605 307.6593566  +6.6982681     13821.22     28091.38     32757.11     79.97127     160.5182     320.8129      2.284     7.65     884.1836     56.59351     2247.047        56     2.493     0.948 -34.64   0
       685    720.2156     39.2484 307.6371273  +6.6995653     2045.052     2803.686     2761.329     79.97127      160.582     320.8129      1.414     3.33     883.2177     56.59351     293.4842        14     1.088     0.794 -40.48   0
       686    146.3029     39.2552 307.8755940  +6.6803003     624.1484     646.8959     660.6219     80.35483      160.582     321.2598      1.341     4.64     904.9342     56.59351     100.9732         7     1.133     0.540 -25.35   0
       687    183.3222     37.1819 307.8602827  +6.6824020     1158.232     1954.864     1555.368     79.97127     160.2626     321.0364      1.769     4.68      904.754     56.59351     186.6981        14     1.472     0.722 -30.59   0
       688    644.2596     36.2785 307.6687887  +6.6982484     3352.179     4783.664     5804.314     80.60951      160.582     321.0045      1.581     3.40     884.3601     56.59351     477.4978        24     1.357     0.910 -30.12   0
       689    933.0489     33.1584 307.5488920  +6.7091931     964.6461     1235.976     1292.677     80.48227     160.5182     321.0045      1.341     3.55     878.7406     56.59351     174.2239         8     0.961     0.585 -53.17   0
       690     51.0993     33.4249 307.9153469  +6.6795004     3409.773     4965.423     5361.003     80.60951     160.3265     320.9406      1.555     3.22     906.8661     56.59351     488.6467        21     1.355     0.807 -27.75   0
       691    141.7996     30.9894 307.8777441  +6.6835604     5612.278      8155.46     8359.238     80.09932     160.2626     320.8767      1.535     3.57     904.7362     56.59351     786.2189        28     1.407     0.939 -27.58   0
       692     73.2137     31.0095 307.9062403  +6.6812424     764.1392      1025.39     1946.692     80.22717     160.3265     321.0045      1.411     4.30     905.9317     56.59351     100.1542         7     1.196     0.441 -33.51   0
       693    769.1721     29.3389 307.6171168  +6.7052934      1393.18     2061.503     1939.695     80.09932     160.6459     321.0045      1.595     4.26     881.8512     56.59351     226.0791        15     1.330     0.719 -24.76   0
       694    875.9194     27.5490 307.5728194  +6.7096005     2161.143     2895.845      3090.48     80.48227     160.6459     321.0683      1.412     3.37     879.1387     56.59351     327.5583        15     1.232     0.681 -28.85   0
       695    213.1540     27.1114 307.8482274  +6.6875623     1157.752     1517.141     1114.953     80.48227     160.4543     321.1641      1.405     3.94      904.534     56.59351     194.1909        12     1.161     0.689 -29.64   0
       696    621.8297     26.6891 307.6784310  +6.7014553     1210.525       1588.5     1340.717     80.60951     160.3265     321.0045      1.340     4.09     884.2651     56.59351     195.6354        10     1.126     0.622 -29.54   0
       697    961.3674     24.5288 307.5374134  +6.7137005     968.7559     1456.664      1682.72     80.35483      160.582     321.0364      1.589     4.70     876.5932     56.59351     169.6774         9     1.146     0.599 -29.62   0
       698    828.1971     25.1133 307.5927315  +6.7090111     962.8575      1428.44     1528.155       79.843     160.1986     320.7809      1.518     5.10     880.1516     56.59351     134.6011        10     1.107     0.665 -16.02   0
       699    728.4487     24.6243 307.6341969  +6.7058771     1624.454     2192.801     1975.293     80.09933      160.582     320.9726      1.438     3.39     882.6496     56.59351     265.4424        15     1.252     0.713 -26.28   0
       700    784.9099     18.2579 307.6109488  +6.7103936     3257.041      4521.32     4350.082     80.35482      160.582      321.196      1.445     3.57     881.0584     56.59351     504.7262        20     1.361     0.805 -30.64   0
       701    212.3361     17.3545 307.8488962  +6.6915620     936.6351     1137.895     991.2065     80.48227     160.5182     321.1003      1.311     4.08     904.3217     56.59351     162.9653         8     1.033     0.655 -30.61   0
       702     92.0170     18.1810 307.8988609  +6.6871707     658.3881     916.0405     744.0645     80.22717     160.3265     321.0045      1.435     2.80     904.6997     56.59351     126.1781         6     0.876     0.457 -36.33   0
       703    539.9671   1020.3810 307.6790680  +6.2885422     1150.748     1733.458     2160.464     79.97127     160.3905     289.2278      1.606     4.89     923.6437     56.59351      192.954        13     1.346     0.675 -31.03  16
       704    656.0453     13.9648 307.6646407  +6.7078534       1175.2      1543.27     1344.279     80.22717     160.5182     320.9726      1.399     5.15     883.2853     56.59351     170.7511        11     1.222     0.613 -26.66   0
       705    222.7590   1019.8513 307.8107851  +6.2781184     1515.641     2327.093     2276.755     80.48227      160.582     295.5721      1.686     4.16     926.9086     56.59351      201.503        16     1.334     0.798 -29.67  16
       706    187.2015   1019.5244 307.8255586  +6.2770583     749.0356       1074.4     801.4155       79.843     160.0066     298.9509      1.506     4.22     927.3828     56.59351       130.52         7     1.222     0.415 -38.22  16
       707     47.8128   1017.7916 307.8834863  +6.2730849     2980.693     4591.401      4456.01     80.09932     160.3905     314.8797      1.641     3.98      928.394     56.59351      438.844        24     1.392     0.999 -41.59  16
       708    941.6375   1015.9300 307.5124425  +6.3038085     6742.751     10963.14     11549.16     80.35482      160.582     321.1322      1.708     3.63     913.9733     56.59351      925.559        35     1.526     1.105 -34.34  16
       709    197.5207   1011.7562 307.8215360  +6.2806116     705.3701     1103.371     580.7596     80.48227      160.582     321.0683      1.748     5.88     927.0963     56.59351      120.052         9     1.300     0.749 -27.33   0
