#   1 NUMBER                 Running object number                                     
#   2 X_IMAGE                Object position along x                                    [pixel]
#   3 Y_IMAGE                Object position along y                                    [pixel]
#   4 ALPHA_J2000            Right ascension of barycenter (J2000)                      [deg]
#   5 DELTA_J2000            Declination of barycenter (J2000)                          [deg]
#   6 FLUX_APER              Flux vector within fixed circular aperture(s)              [count]
#   9 FLUXERR_APER           RMS error vector for aperture flux(es)                     [count]
#  12 FLUX_RADIUS            Fraction-of-light radii                                    [pixel]
#  13 FWHM_IMAGE             FWHM assuming a gaussian core                              [pixel]
#  14 BACKGROUND             Background at centroid position                            [count]
#  15 THRESHOLD              Detection threshold above background                       [count]
#  16 FLUX_MAX               Peak flux above background                                 [count]
#  17 ISOAREA_IMAGE          Isophotal area above Analysis threshold                    [pixel**2]
#  18 A_IMAGE                Profile RMS along major axis                               [pixel]
#  19 B_IMAGE                Profile RMS along minor axis                               [pixel]
#  20 THETA_IMAGE            Position angle (CCW/x)                                     [deg]
#  21 FLAGS                  Extraction flags                                          
         1    630.8730     26.0652 307.6804588  +6.6761983     3264.765     5565.152      6583.56     78.37322     156.1271     312.1612      1.910     6.05     822.5312     55.02348     457.7341        32     2.033     0.901  71.28   0
         2    449.8160     27.1511 307.7556581  +6.6696821     22914.27     34803.11     36368.97     77.75268     156.1892     311.8817      1.620     3.61     824.3237     55.02348     3067.954        49     1.511     1.114  60.24   0
         3    258.3072     24.0513 307.8353397  +6.6645312     3126.469     4651.585     4808.078      78.1256      156.003     312.3473      1.599     3.70     831.9209     55.02348     418.8825        25     1.550     0.936  63.68   0
         4    699.7279     16.6435 307.6521633  +6.6823924     1862.371     2944.848     3402.027      78.1256     156.1271     312.1922      1.724     3.68     821.6034     55.02348     274.6503        20     1.328     0.987  73.32   0
         5    265.5534     12.3623 307.8327233  +6.6696002     783.2594     1383.637      1772.07     78.00149     156.0651      312.037      1.953     5.64     831.7254     55.02348     108.7892         8     1.145     0.784  62.33   0
         6    210.9403     12.3956 307.8554152  +6.6677505     745.3281     1160.253     1037.885     77.62798      156.003     311.9438      1.813     5.77     831.6458     55.02348     110.8649        10     1.272     0.738  57.73   0
         7    187.8857      9.6086 307.8650891  +6.6681256     10921.88     16365.59     17101.04     77.87718     155.8165      312.006      1.616     3.59     831.6135     55.02348     1391.368        37     1.400     1.109  59.68   0
         8      1.5997      9.9165 307.9424831  +6.6617265     857.8453     1040.224     789.1733     70.97816     127.8062     239.0427      1.272     4.34     832.2112     55.02348     149.3784         9     1.114     0.605  83.52  24
         9    532.1094      7.7910 307.7221143  +6.6804339     3003.181     4399.868     4437.524     77.87718     155.8165     309.5118      1.548     3.48     822.5152     55.02348      386.434        24     1.352     0.969  63.87  16
        10    933.4753      7.3403 307.5553408  +6.6940444     4408.064     6564.031      6993.11     78.49674     156.1271     306.9975      1.650     3.63     818.8908     55.02348     576.3324        29     1.428     1.008  56.35  16
        11    734.3240      6.0456 307.6381431  +6.6879249     2056.062     3102.609       3158.3      78.1256     156.1892     296.6618      1.605     4.14     820.3912     55.02348     275.5321        18     1.341     0.868  65.55  16
        12    470.3722      5.9739 307.7478299  +6.6791141     1971.807     2934.877     2817.293     77.75268     155.9409      295.746      1.682     3.76     823.4233     55.02348     294.9138        18     1.333     0.845  50.68  16
        13    998.2631      3.6318 307.5285417  +6.6977371     1973.652     3017.784     3114.687     78.00149     151.5934     269.1273      1.623     3.55     817.5181     55.02348      256.965        18     1.238     0.868  55.66  24
        14    718.0302      1.4074 307.6450699  +6.6892947     3802.564     4388.515      4660.92     68.75954     125.1249     235.9423      1.006     1.99     820.5081     55.02348     1021.013        11     0.954     0.534  -2.37  24
        15    638.3427      1.2709 307.6781888  +6.6866843     1124.268      1188.38     1367.074     67.33579      123.174     233.8802      0.870     1.91     821.8691     55.02348     332.9189         6     0.792     0.411  14.42  24
        16    372.2727   1001.7110 307.7550398  +6.2647491     1618.742     2823.189     2870.072      78.2495     156.3752     312.1922      1.775     5.53     854.7971     55.02348     228.0938        20     1.482     1.200  58.01   0
        17    802.2997   1023.0845 307.5757702  +6.2703195     5120.613     6863.694     7084.953     74.44252      132.788      244.215      1.409     3.77     852.9204     55.02348     807.1523        21     1.286     0.878  18.69  24
        18    590.9384   1024.0000 307.6634991  +6.2628743     7487.597     9460.263     10568.98     63.02531     118.6876     229.1092      1.147     3.33     858.0909     55.02348     2447.238        13     1.531     0.297   5.15  27
        19    593.2645   1019.8467 307.6626728  +6.2646668     69919.45     114577.5     122404.3      78.1256     156.0651     287.4396      1.769     3.67     857.9197     55.02348     8529.717        90     1.668     1.397  58.15  18
        20    623.6053    996.1565 307.6508707  +6.2754625     416.8616     513.1697    -241.2753     77.62798     155.8165     311.8506      1.097     3.40     856.3386     55.02348     74.14728         5     0.758     0.442 -70.15   0
        21    759.1860    991.0469 307.5947462  +6.2821057       7368.9     12060.51     12729.53     77.62798     155.9409     311.9438      1.722     3.76     853.2828     55.02348     944.5826        38     1.517     1.141  58.23   0
        22    554.6179    991.6962 307.6796653  +6.2749947     4101.413     6744.594     6855.035      78.1256     155.9409     311.9749      1.766     3.77     856.6834     55.02348     550.0145        32     1.519     1.138  66.19   3
        23    551.7684    983.7789 307.6811146  +6.2781678     8136.163     12702.45     13784.93     77.75268     155.9409      312.037      1.687     3.62     856.3607     55.02348     1045.851        38     1.523     1.091  58.76   2
        24    524.9787    992.8254 307.6919340  +6.2735359       1134.8       1623.2     1514.375     77.87718     155.9409     312.0991      1.567     3.90     856.6752     55.02348     143.2012        12     1.092     0.717  72.53   0
        25    305.0133    990.1521 307.7833554  +6.2672641     14451.02     23725.48     26802.73     77.62798      156.003     311.8817      1.816     5.32     854.5583     55.02348     1918.437        65     1.807     1.489 -29.52   0
        26    429.3353    990.9056 307.7317108  +6.2711235     1031.018     1495.076     1236.682      78.1256     156.1892     312.1922      1.561     3.90     855.1411     55.02348     144.8833        11     1.137     0.651  61.56   0
        27    820.0887    990.1014 307.5694895  +6.2845306     1018.331     1962.084     2223.772      78.2495     156.5609     312.1612      2.002     5.31      852.371     55.02348     129.9772        14     1.380     0.855  33.98   0
        28      1.6758    991.1301 307.9092657  +6.2566637     590.4966     794.5986     1016.083     72.33025     129.1635     240.5376      1.561     5.02     851.1091     55.02348     112.2668         7     1.096     0.649  73.15  24
        29    275.6831    987.8286 307.7956116  +6.2672387     811.0209     1414.384     1631.035      78.1256     155.9409     312.0991      1.784     4.04     854.4497     55.02348     144.8162         8     1.127     0.749  69.00   0
        30    920.4601    984.4365 307.5280020  +6.2902198     7871.572      13533.1     14646.84      78.2495     156.1271     312.1301      1.884     3.87     850.7056     55.02348     878.4208        44     1.649     1.229  59.04   0
        31    894.1841    980.6723 307.5390388  +6.2908971     11134.36     19611.52     21488.28     77.75268      156.003      312.068      1.882     3.91     851.1379     55.02348     1397.772        53     1.618     1.413  38.78   0
        32    606.7035    981.4609 307.6583823  +6.2809638     1299.947     2247.655     2236.612     78.00149     156.1271     312.2542      1.889     4.69     856.1766     55.02348     196.4639        17     1.398     0.943  80.82   0
        33   1015.8773    980.0709 307.4885276  +6.2952042     4194.363     7437.519      7496.75     78.49674     156.3752     312.1612      1.906     3.93     847.0538     55.02348     549.3041        37     1.608     1.270  53.73  16
        34      3.3967    982.7567 307.9088342  +6.2601783     613.1933     885.5339     796.0964     77.62798     149.1451     265.6124      1.579     4.06     850.9659     55.02348      97.7196         7     1.002     0.470  81.13  16
        35    538.5957    979.7261 307.6867203  +6.2793999     3992.717     6678.312     7856.648     77.87718     155.6922      312.037      1.979     4.10     856.1979     55.02348     562.9968        37     1.816     1.194  24.45   0
        36    647.7322    978.9472 307.6414307  +6.2833744      1368.52     1906.321     1895.835      78.1256     156.0651      312.068      1.532     3.93     854.9744     55.02348     208.5382        17     1.152     1.002  75.77   0
        37     72.9662    978.2654 307.8801015  +6.2643736     963.8436     1476.158      1893.96      78.1256     156.1271     312.1612      1.778     5.99     851.0497     55.02348     144.5671        13     1.421     0.768  57.66   0
        38    491.4591    976.2868 307.7064080  +6.2792408     2190.838     3385.942     3311.825      78.2495     156.1892     312.2853      1.638     3.72     855.9736     55.02348     297.1827        21     1.365     0.929  50.90   0
        39    399.2149    975.1509 307.7447474  +6.2766176     529.6792      1008.27     1022.852     77.62798     156.0651     311.8817      2.186     5.65     854.6782     55.02348     81.66241         6     1.373     0.655  -1.36   0
        40    925.8273    968.2203 307.5263164  +6.2970937     39752.24     67915.06     72725.14     77.75268     155.9409      312.068      1.824     3.80     850.0378     55.02348     5081.272        81     1.703     1.379  56.73   0
        41    233.0125    966.3787 307.8140517  +6.2746609     1651.883     2720.735     3246.712     78.00149     155.8787      312.037      1.749     3.85     853.8326     55.02348     220.2636        18     1.227     0.960  43.50   0
        42    121.0230    965.4783 307.8605804  +6.2712689     725.8934      1167.27      1882.51     77.87718     155.9409     312.1301      1.924     3.74     851.2214     55.02348     114.8632         7     1.213     0.529  63.36   0
        43    823.8369    962.0215 307.5688745  +6.2962485     2158.585     3688.897     3855.361     77.87718     155.8787     311.9128      1.792     4.59     851.9093     55.02348     245.6748        26     1.508     1.101  70.42   0
        44    771.9381    959.9630 307.5904938  +6.2953646     6218.118     10216.92     11671.15      78.2495     156.1892     312.1612      1.839     3.83     852.5439     55.02348     833.6066        42     1.705     1.234  80.93   0
        45    631.5666    964.3436 307.6486335  +6.2888626     844.3954     1285.308     644.1862      78.1256     156.1271     312.1612      1.583     6.96     854.8727     55.02348     116.6035        12     1.449     0.945  46.06   0
        46    558.7789    959.4109 307.6790227  +6.2884627      944.668     1284.709     1437.854     77.87718     155.8165      312.006      1.617     3.63     855.3284     55.02348     137.5116        10     0.990     0.805  50.10   0
        47    241.4278    958.9066 307.8108096  +6.2780283     1524.997     2305.598     2738.117     78.37322     155.8787      312.068      1.672     3.46      853.812     55.02348     201.0179        15     1.142     0.840  52.57   0
        48    205.3765    957.8920 307.8258125  +6.2772361     848.3005     1391.252     1522.693      78.2495     155.9409      312.006      1.714     5.33     852.9379     55.02348      128.819        12     1.323     0.722  69.21   0
        49    960.1685    955.0178 307.5124986  +6.3036899     6022.014     10435.74     11106.13     77.87718     155.9409      312.037      1.845     3.85     848.5057     55.02348      762.343        38     1.637     1.150  54.85   0
        50     66.3165    956.9156 307.8835835  +6.2729637     2622.501     4379.862     4495.986     78.00149     156.2512     312.2232      1.782     3.68     850.7225     55.02348     326.0763        22     1.268     1.052  79.20   0
        51    216.4137    950.6228 307.8214750  +6.2806078     636.6667     967.7524     1086.931     78.00149     155.9409      312.068      1.631     3.36     853.1318     55.02348     99.10126         5     0.997     0.328  22.27   0
        52    933.8795    946.8825 307.5236874  +6.3061716     1926.372     3337.222     3530.756     78.37322     156.3751     312.2853      1.904     4.31     849.0826     55.02348     232.5121        21     1.307     1.096  73.72   0
        53    266.8255    942.8361 307.8008059  +6.2855157     4311.168     6741.067     7034.334     77.87718     155.9409     311.9438      1.661     3.45     854.0564     55.02348     576.7729        30     1.431     1.110  81.45   0
        54    793.5886    943.0765 307.5820699  +6.3030595     1246.114     2036.505     2060.922     77.87718     155.7544      312.006      1.848     5.77     852.0884     55.02348     140.9398        16     1.331     0.879  57.26   0
        55    654.5926    942.4372 307.6398081  +6.2986768     4548.024     7063.272     6729.453     77.50307     155.9409     311.9128      1.676     3.69     853.7252     55.02348     564.9086        30     1.402     1.069  58.59   0
        56    476.9290    940.9728 307.7136290  +6.2933329     1111.795     1834.662     2106.182     77.87718      156.003     312.0991      1.847     6.29     854.6877     55.02348     127.0649        14     1.401     0.793  61.70   0
        57   1004.4644    942.0889 307.4945376  +6.3105046     659.3094      1000.52     461.8173      78.1256     156.3752     312.1922      1.587     4.89     846.8436     55.02348     111.2994         6     1.027     0.658  34.47   0
        58     35.4884    940.1381 307.8969501  +6.2788524     2091.823     3230.145     3337.207      78.2495     156.3132     312.2232      1.649     3.41     850.3317     55.02348     293.0097        18     1.240     0.850  50.17   0
        59    886.2753    939.0798 307.5437162  +6.3078044     825.1254     1222.642     1035.906     78.49674     156.3752     312.2853      1.637     4.37     850.1959     55.02348      108.915        10     0.940     0.758   4.02   0
        60    302.9367    936.6419 307.7860207  +6.2892852     748.5361      907.001     795.3215      78.2495     156.0651     312.2232      1.623     5.98     854.4955     55.02348     99.90613        11     1.439     0.699  82.48   0
        61    978.6584    936.9497 307.5054255  +6.3117659     594.8817     874.9529     443.4077      78.2495     156.1271     312.1612      1.639     4.54     847.4661     55.02348     114.9133         5     0.853     0.686 -56.91   0
        62   1011.1386    934.9290 307.4920056  +6.3136830     822.5717     1487.534      1831.29     78.37322     156.1271     312.2232      2.120     5.78     846.5244     55.02348     117.1001        12     1.283     0.935 -67.17   0
        63    958.2349    936.1975 307.5139315  +6.3113953     642.7543     1136.339      1215.23     77.37796     155.9409     311.9438      1.885     4.36     848.0348     55.02348     85.17584         5     0.773     0.700 -57.47   0
        64    579.4092    935.0792 307.6712741  +6.2991985     1711.492     2484.495     2712.154     77.87718     155.7544      312.006      1.624     4.45     854.2329     55.02348     237.4944        15     1.227     0.838  45.72   0
        65    618.3766    931.2446 307.6552222  +6.3020858     1149.554     1603.108     1221.081     77.75268     156.1271      312.006      1.520     5.09     853.7919     55.02348     183.0877        12     1.272     0.669  57.19   0
        66     68.4845    932.1382 307.8835202  +6.2832654     724.0387     1054.429      1270.18     78.37322     156.1892     312.1922      1.565     5.07     850.3636     55.02348     91.12756         8     0.997     0.729  24.69   0
        67    298.5335    929.1583 307.7881011  +6.2922269     1456.553      2196.03     2348.166      78.2495     156.0651     312.2232      1.603     3.83      854.485     55.02348     199.5804        15     1.240     0.777  69.24   0
        68    566.4849    927.5004 307.6768954  +6.3018946     613.4404     795.5336     741.7162      78.2495     156.6228     312.2542      1.264     4.66     854.0383     55.02348     92.84808         7     1.213     0.509  49.84   0
        69    765.7444    925.3579 307.5942263  +6.3094442     839.7368     1344.729     1491.968      78.1256     156.0651     312.1922      1.651     4.24     852.0011     55.02348     142.7691        10     1.067     0.707  55.60   0
        70    902.9203    921.8564 307.5373813  +6.3154706     6661.742     10965.94     11171.42     78.37322     156.1271     312.1612      1.737     3.56     849.2325     55.02348     855.7816        38     1.532     1.161  59.74   0
        71    438.6865    918.9828 307.7302483  +6.3011294     2115.373     3146.905     3248.169     77.87718     155.8787     312.0991      1.597     3.53     854.1085     55.02348     301.6702        20     1.233     0.951  56.34   0
        72    340.4211    917.3239 307.7711071  +6.2985184     9858.194     14949.56     15563.28     77.87718     155.9409     312.0991      1.654     3.63     854.2589     55.02348     1235.011        38     1.427     1.133  56.84   0
        73    260.5515    916.2678 307.8043066  +6.2962732     7092.456     10775.03     11152.16      78.2495     156.0651     312.1612      1.672     3.54     853.5864     55.02348      915.631        34     1.441     1.102  60.62   0
        74    588.2945    911.0169 307.6683932  +6.3094298     1152.782     1865.325     2084.562      78.1256     155.9409      312.006      1.649     3.85     853.6678     55.02348     172.5907        13     1.091     0.990  29.52   0
        75    773.1647    910.8791 307.5916307  +6.3156697     512.1531     1002.456     1137.479      78.1256     156.1892     312.1612      1.997     4.86     851.7474     55.02348     83.84174         6     1.065     0.629 -80.95   0
        76    918.4832    906.8330 307.5314220  +6.3221923     1064.808     1975.708     1660.662      78.2495     155.9409     312.0991      1.933     5.49     848.3748     55.02348     131.5856        16     1.299     1.165  12.53   0
        77    152.1264    907.0450 307.8496382  +6.2964375     528.9956     769.8802     1185.019      78.1256     156.1892     312.1922      2.333     4.05     850.7198     55.02348     99.96783         6     1.036     0.750  20.80   0
        78    874.9714    905.5052 307.5495351  +6.3212884     757.3725     1233.404     930.3219     78.37322     155.8787      312.068      1.826     4.64     849.7248     55.02348     87.74225         8     0.855     0.714 -88.35   0
        79    222.7474    906.1865 307.8203438  +6.2991653     524.2776     873.1239     1622.768     77.62798     156.0651     311.9128      2.018     3.36       852.59     55.02348     88.49731         5     0.937     0.350  46.79   0
        80    985.5972    903.1061 307.5036769  +6.3259696     630.3566     1071.167     1840.816     77.87718     155.8165     311.8817      2.593     5.07     845.7957     55.02348     94.24347         7     1.352     0.538 -57.57   0
        81    578.5629    900.2221 307.6727970  +6.3135606      697.235     1206.894     1548.602     77.87718     155.8787     311.9438      2.119     7.05     853.5435     55.02348     95.06958         9     1.515     0.921  44.47   0
        82    848.4804    900.6647 307.5606979  +6.3224023     512.7786     844.6597     612.5633     78.49674     156.1892     312.1301      1.360     3.52     850.2954     55.02348       109.78         5     0.962     0.483  46.64   0
        83    754.8295    900.0728 307.5996070  +6.3195183     1586.353     2543.312     3041.724      78.1256     156.1271     312.1301      1.706     4.84      851.767     55.02348     194.3604        19     1.420     0.893  47.43   0
        84      5.9291    897.5308 307.9106631  +6.2954468     845.9976     1598.492     1459.551      78.2495     156.2512      295.451      1.852     6.98      848.541     55.02348     116.2944        10     1.533     0.890  67.35  16
        85    986.1908    895.7269 307.5036774  +6.3290359     1005.581      1926.16     2430.266     77.75268     155.6921      312.006      2.083     6.55     845.4464     55.02348     149.0141        14     1.523     0.795  39.71   0
        86    618.9357    896.4875 307.6561576  +6.3164537     953.7554     1223.487     823.5687      78.2495     156.3132     312.1922      1.488     4.53     853.2573     55.02348     122.5128        10     1.127     0.676  53.55   0
        87    540.1408    895.7158 307.6889031  +6.3141344     1257.607     1753.882      1749.51      78.2495     156.1892     312.2542      1.501     4.02     853.5947     55.02348     154.3442        12     0.999     0.864  79.78   0
        88    673.5885    893.2386 307.6335721  +6.3196235     2637.963      3954.83     4529.609     77.75268     155.9409     311.8817      1.622     3.53     852.4413     55.02348     344.4193        21     1.284     0.950  60.66   0
        89     70.1898    889.4244 307.8842549  +6.3009560     2918.431     4361.882     4649.909     77.87718     155.9409      312.037      1.594     3.55     849.3991     55.02348     391.3279        24     1.304     1.042  72.95   0
        90    834.2339    889.2446 307.5669967  +6.3266414     746.8318     1244.023     493.0627     77.87718     156.0651      312.068      1.646     5.63     850.3358     55.02348      110.596        12     1.321     0.762  50.74   0
        91    213.7468    888.4235 307.8246802  +6.3061960     2146.084     3169.003     3051.935     77.75268     156.1271     311.9749      1.548     3.43     852.1167     55.02348     313.3387        19     1.208     0.932  81.36   0
        92     87.6439    888.7997 307.8770287  +6.3018012     1940.622     3229.543     3226.784     77.50307     155.8165     311.7885      1.796     3.95     849.7599     55.02348     264.0272        22     1.330     1.018  41.14   0
        93    952.0961    888.3367 307.5180832  +6.3309498     660.4856      1390.41     1433.169      78.1256     156.2512     312.2232      2.162     5.86     846.5212     55.02348     107.1389         9     1.440     0.671  42.47   0
        94    352.9160    884.7139 307.7670172  +6.3124002     913.5914     1605.637       1870.1     78.00149     156.3132     312.1922      1.800     5.26     853.6027     55.02348     144.5923        13     1.331     0.864  68.62   0
        95    247.7816    885.1530 307.8106581  +6.3086895     811.9723     1149.644      810.241     77.75268     156.0651     311.9749      1.498     4.75     852.8275     55.02348     124.4912         8     0.948     0.730  88.78   0
        96    668.0854    882.4645 307.6362190  +6.3238875     7124.115     10604.77     11275.71     78.37322     156.3132     312.1922      1.626     3.59     852.3036     55.02348     896.9558        31     1.422     1.026  65.31   0
        97    805.9563    883.6634 307.5789265  +6.3280011     744.4383     873.6387     1069.818      78.2495     156.0651     312.1922      1.397     5.21     850.8531     55.02348     104.6321         9     1.006     0.763  52.69   0
        98     28.2274    880.8466 307.9019683  +6.3030850     1218.047     1922.631     1904.751     77.87718     156.1892      312.068      1.718     5.06     848.2457     55.02348      147.062        10     1.192     0.625  53.14   0
        99    905.8713    878.7599 307.5375996  +6.3333614     2742.636     4441.914     4654.862      78.1256     156.1271     312.2232      1.701     4.10     848.0474     55.02348     350.9922        24     1.452     1.023  48.86   0
       100    457.8976    879.9811 307.7235836  +6.3178747     590.1613     857.3574     651.1513      78.1256      156.003     311.9128      1.427     3.46      853.445     55.02348     91.03473         5     0.964     0.381  29.98   0
       101     41.0928    878.8940 307.8966923  +6.3043242     1033.512     1570.539     1740.557      78.2495     156.6228     312.1301      1.625     4.91     848.4769     55.02348     117.0137        14     1.262     0.788  50.56   0
       102    780.3229    879.1368 307.5897229  +6.3290135     468.2363     489.5937     712.2333     78.49674     156.1271     312.1301      1.245     3.53     851.1616     55.02348     95.12701         5     0.828     0.435  75.95   0
       103    351.1574    875.5408 307.7680564  +6.3161281     16901.34     25075.58      26566.2      78.2495     156.1271     312.2542      1.624     3.41     853.4172     55.02348     2166.198        53     1.501     1.207  53.91   0
       104     85.7017    876.6554 307.8782453  +6.3067493     1300.772     1993.916     1655.708      78.1256     156.1271     312.3783      1.585     5.01     849.5123     55.02348     168.5715        15     1.349     0.831  78.95   0
       105    401.9835    875.1840 307.7469632  +6.3179805     789.9902     978.2325     772.8025     78.00149     155.8165     312.0991      1.365     3.39     853.3685     55.02348     117.0648         8     0.952     0.583  67.01   0
       106    221.8595    875.1009 307.8217608  +6.3119685     1369.956     1877.585     1851.716     78.00149     156.0651     312.2853      1.498     3.15     852.1859     55.02348      219.082        14     1.122     0.798  85.84   0
       107    680.4102    866.7991 307.6316270  +6.3307671     647.1755      1284.79     1789.666     77.87718     155.8165     311.9749      2.381     5.36     851.8914     55.02348     87.43329         7     1.434     0.565  58.42   0
       108    428.9310    866.4199 307.7360683  +6.3225022     1130.077     1498.181     1051.247     77.87718      156.003      312.068      1.462     4.44     853.2068     55.02348     142.7303        11     1.152     0.661  53.07   0
       109    114.4509    866.3007 307.8666574  +6.3119910     1749.463     2730.399     2565.882      78.2495     156.1271     312.3473      1.723     3.68      849.838     55.02348     260.4324        18     1.206     0.992  55.38   0
       110    510.0949    863.8318 307.7024518  +6.3262909     650.2628     882.8618     1098.112     78.37322     155.9409     312.2232      1.296     3.71     853.0692     55.02348     114.4983         6     0.991     0.584 -80.66   0
       111    682.5803    862.5178 307.6308696  +6.3326071     870.7017     1277.292     2280.563     77.87718     155.8166     312.0991      1.668     4.70      851.802     55.02348     122.8936         8     1.042     0.601  46.11   0
       112    896.1490    860.4518 307.5422503  +6.3405954     1932.642      3326.67     3434.391     78.37322      156.003     312.1612      1.787     4.16     847.9327     55.02348     266.8861        23     1.445     0.971  48.91   0
       113    830.3706    859.4153 307.5696010  +6.3388273     2911.644      4452.77     5039.372     77.87718     155.8787     312.0991      1.650     3.82     849.6826     55.02348     406.2178        25     1.504     0.939  54.60   0
       114     97.7772    859.6577 307.8738052  +6.3141727     2592.265     4028.185     4352.924     77.87718     156.1271     311.9749      1.691     4.71     849.4932     55.02348     308.3322        24     1.541     0.952  59.50   0
       115    866.8967    859.8059 307.5544196  +6.3398856     1934.256     3099.426     2687.726     78.00149     155.8165     311.9749      1.659     3.91     848.8728     55.02348     278.5764        20     1.295     1.005  41.08   0
       116    566.2158    850.8035 307.6795851  +6.3335492     341083.2     511741.6     538009.6     77.87718     155.7544      312.006      1.613     3.45     852.4099     55.02348     42901.21       174     1.665     1.338  59.97   0
       117    410.4561    853.3845 307.7441788  +6.3272642      8016.42     12004.79     12614.49     77.62798     156.0651     311.8817      1.648     3.59     852.7467     55.02348     1080.917        34     1.400     1.067  60.11   0
       118    653.9199    853.9517 307.6430589  +6.3351849     1194.106     1576.486      1606.14      78.2495     156.1892     312.1301      1.520     6.10     851.9276     55.02348     138.4899        14     1.232     0.849  64.87   0
       119    353.7160    851.7614 307.7677950  +6.3260310     12863.37     19230.39     20096.53      78.2495     156.0651     312.0991      1.617     3.63     852.7779     55.02348     1743.148        39     1.416     1.104  57.53   0
       120    672.0789    848.1274 307.6357137  +6.3381969     3714.278     5565.742     5752.895     78.49674     156.3752     312.1301      1.593     3.58      851.558     55.02348     468.3409        24     1.320     0.997  58.92   0
       121    904.5608    847.0400 307.5392064  +6.3464132     5017.428     8170.176     8902.676     78.00149     156.1892      312.037      1.775     3.73     847.4199     55.02348     614.9498        36     1.435     1.239  69.35   0
       122    743.8565    845.0095 307.6060111  +6.3418841     900.2477     1401.896     1454.254     77.62798      156.003     311.8817      1.590     5.02     851.0124     55.02348     134.7206        10     1.196     0.596  59.87   0
       123    646.8314    842.0759 307.6464014  +6.3398506     3417.698     5247.485      5072.55      78.1256     156.1892     312.1301      1.640     3.91     851.6782     55.02348     421.4352        26     1.444     0.997  47.38   0
       124    835.6019    841.3834 307.5680331  +6.3464464     1618.963     2457.197     2759.279     77.87718     155.6922     311.9438      1.712     3.80     848.9013     55.02348     223.8617        15     1.175     0.880  51.90   0
       125    637.3103    841.0641 307.6503892  +6.3399497     852.7668     1525.158     1691.775      78.1256     156.3132     312.1922      1.919     5.37     851.7415     55.02348      139.226        11     1.261     0.645  52.31   0
       126    962.6097    839.8727 307.5153398  +6.3513088     833.6139     1237.516      1540.97     77.75268     155.7544      312.006      1.833     4.86     845.0106     55.02348     122.6868        13     1.152     0.825  49.37   0
       127    639.7382    836.6797 307.6495282  +6.3418410     2212.416     3462.388     4105.352     78.37322     156.1892     312.1612      1.776     4.17     851.5881     55.02348     287.3152        21     1.544     0.832  53.31   1
       128    183.3687    836.7996 307.8390359  +6.3264871     566.4566      713.019     510.0492     77.62798     155.9409     311.9749      1.301     4.23      850.519     55.02348     85.45044         6     0.764     0.668  28.52   0
       129    923.4873    834.7912 307.5317569  +6.3521016      3185.97     4872.322     5211.741     77.87718     155.8165     311.9438      1.665     3.42     846.7873     55.02348     426.0834        24     1.299     1.017  55.39   0
       130    333.7084    835.6329 307.7766466  +6.3320180     880.5087       1413.2     845.0811     78.37322      156.003     312.1922      1.391     4.70     852.2763     55.02348      130.245         9     1.243     0.504  51.40   0
       131    381.5016    830.7274 307.7569653  +6.3356468     2771.508     4002.232     4197.006     78.00149     156.2512     312.1301      1.574     3.62     852.0234     55.02348     370.7618        20     1.347     0.864  62.87   0
       132    517.7283    820.4808 307.7007399  +6.3444437     3359.278     4820.831     4751.795     78.49674     156.4371     312.1922      1.572     3.40     851.0814     55.02348      442.194        22     1.292     0.931  53.31   0
       133    862.9282    819.6434 307.5574137  +6.3563341     1127.852     1774.731     2389.579      78.1256     156.1271     312.1922      1.728     4.39     847.7364     55.02348     155.2173        14     1.285     0.866  59.10   0
       134    583.1158    818.1512 307.6736646  +6.3475952     872.2753     1179.897     965.7454      78.2495     156.1271     312.1922      1.396     4.98     850.9868     55.02348     117.5238         9     0.997     0.705  67.05   0
       135    564.6492    816.6447 307.6813839  +6.3475989     6171.579     9182.563     9503.973      78.2495      156.003     312.1612      1.620     3.70     850.9207     55.02348     868.2634        31     1.408     1.012  52.87   0
       136    571.4566    816.1698 307.6785730  +6.3480229     1493.264     2263.007       2447.7      78.1256     156.1892      312.068      1.633     4.78     850.8847     55.02348     168.4279        12     1.066     0.789  38.68   0
       137    276.1499    816.8825 307.8011801  +6.3378265     786.6664      890.652     603.6647      78.2495     156.1271     312.1922      1.331     4.75      851.517     55.02348     126.5377         9     1.261     0.508  46.92   0
       138    900.4665    814.8325 307.5419857  +6.3595734     1425.744     2000.451     1602.817      78.1256     156.1892     312.0991      1.505     3.65     846.9601     55.02348     215.2669        17     1.174     1.017 -86.44   0
       139    482.4932    815.5980 307.7155363  +6.3452789     1628.029     2277.943     2214.161     77.75268     155.8165     311.8817      1.538     3.41     850.9712     55.02348     261.9151        14     1.037     0.926  33.55   0
       140    124.1172    814.3644 307.8643971  +6.3337568     1350.835     2080.684     2330.424      78.2495     156.0651     312.1301      1.692     5.21      848.841     55.02348     178.4042        13     1.161     0.826  65.46   0
       141    700.2798    813.4689 307.6251662  +6.3534486      778.041     1245.722     1118.471     78.49674     156.3752     312.1301      1.705     4.73     850.6677     55.02348     117.2982         9     1.018     0.669  81.74   0
       142    535.3382    810.4882 307.6937631  +6.3491589     20570.33     30331.22     31318.57      78.2495     156.3132     312.2232      1.629     3.49     850.6033     55.02348     2725.204        50     1.470     1.137  60.09   0
       143    376.7950    811.9932 307.7595507  +6.3432230     792.5474     1200.503     674.7954     77.62798     155.8787      312.006      1.635     4.70     851.3963     55.02348     119.7164         8     1.001     0.625  31.20   0
       144    949.0693    808.7883 307.5220039  +6.3636904     3678.395     6030.385     6297.178     77.75268     155.9409      312.037      1.713     3.85      845.515     55.02348     521.3947        28     1.435     1.061  57.77   0
       145    182.1119    809.6313 307.8404745  +6.3376606     576.8563     770.4974     523.2476     78.37322     155.9409     312.0991      1.356     4.63       850.05     55.02348     91.18658         6     0.973     0.626  33.64   0
       146    421.5990    806.2357 307.7411389  +6.3471026     606.7419     982.7757     810.9619     77.37797     155.9409     311.9749      1.547     3.45     850.9372     55.02348     97.37683         6     0.707     0.656  10.77   0
       147     68.9058    806.4059 307.8875924  +6.3351850     594.9862     1080.612     1048.297     78.00149     155.8165     311.9749      1.613     3.78     847.3569     55.02348     82.04968         5     0.871     0.488  -4.21   0
       148    703.0717    802.7667 307.6243660  +6.3579603     617.3795     852.7365     523.6141      78.1256     156.1271     312.1922      1.497     4.56     850.4296     55.02348     101.4122         6     0.968     0.609  60.01   0
       149     45.7875    800.8369 307.8973804  +6.3367061     1457.687     2359.265     2196.283     77.75268     155.9409     311.8817      1.745     5.27     846.7821     55.02348     199.7784        16     1.352     0.843  62.17   0
       150    590.3406    800.2082 307.6712674  +6.3552447     567.7612     1094.655     1258.951     77.62798     155.9409     311.9128      2.212     4.95     850.2225     55.02348     80.80884         7     1.227     0.564  50.73   0
       151    328.0968    799.0466 307.7802096  +6.3469337     3403.452     5247.989     5309.559      78.2495     156.0651     312.3163      1.620     3.53     851.1006     55.02348     452.4532        25     1.310     1.094  68.34   0
       152    793.5118    795.0656 307.5870657  +6.3641626     56145.61     84439.35     89265.18      78.2495     156.3132     312.1612      1.625     3.50     847.9844     55.02348     7180.414        77     1.564     1.232  56.97   0
       153     27.9179    797.2208 307.9049229  +6.3375974     2217.217     3538.884     3583.105     78.00149     155.8165     312.0991      1.663     3.80     846.4196     55.02348     287.8403        20     1.307     0.969  74.68   0
       154    732.1751    797.1668 307.6124677  +6.3612453     740.8409      1156.11     1137.788     77.62798     155.8787     311.9438      1.623     3.33      850.009     55.02348     105.8636         8     0.826     0.662 -42.97   0
       155    436.8335    793.4844 307.7352417  +6.3528777     1017.505     1330.189      1251.74      78.2495      156.003     312.1301      1.501     5.00     850.2913     55.02348     137.5037        12     1.144     0.828  80.21   0
       156    250.2150    771.4565 307.8134816  +6.3557088     765797.4      1801163      1999332     77.62798     156.0651     311.8506      2.307     5.07     849.9329     55.02348     63777.53       664     2.894     2.122  82.35   4
       157    915.6697    781.7410 307.5367806  +6.3737425     6699.947      10553.7     11921.39     78.37322     156.1271     312.1612      1.747     3.55     845.9671     55.02348     951.4492        37     1.492     1.141  56.47   2
       158    721.7191    789.6346 307.6170628  +6.3640053     22116.91     33664.02        36048      78.1256     156.1892     312.1922      1.651     3.61     849.8265     55.02348     2997.334        47     1.489     1.126  63.02   3
       159    715.4602    786.1296 307.6197797  +6.3652431     91419.02     134650.7     141893.7     78.37322     156.1271     312.1922      1.606     3.49     849.7222     55.02348     12149.65        87     1.577     1.198  57.91   3
       160    538.1539    790.2219 307.6932752  +6.3576200     570.7112     663.2193     393.5634     77.87718     156.1271      312.006      1.251     3.38     849.7469     55.02348     91.95099         5     0.970     0.341 -46.84   0
       161    360.3044    786.9816 307.7672412  +6.3529954     20974.98     31943.09     33443.04      78.1256     155.9409     311.9438      1.621     3.51     850.5997     55.02348     2572.666        54     1.516     1.167  61.10   0
       162    649.3209    786.7303 307.6472266  +6.3627829     840.4958      1173.86     1669.071     78.49674     156.3752     312.1301      1.417     4.96     849.9192     55.02348     128.3899         9     1.248     0.653  56.86   0
       163    422.1891    784.8370 307.7416143  +6.3559566     22652.91     33904.55     35319.62     77.75268     155.9409     311.8506      1.599     3.48     850.0646     55.02348     2814.456        49     1.480     1.116  59.49   0
       164    409.6405    787.0340 307.7467514  +6.3546288     1435.857     2213.671      1968.06     78.00149     156.1271     311.9749      1.550     3.58     850.2382     55.02348     180.6133        13     1.074     0.813  52.50   0
       165    959.4241    783.7815 307.5185410  +6.3743598     2074.352     3335.276     3242.633     78.00149      156.003     312.0991      1.684     3.60     844.7026     55.02348     275.1205        22     1.278     1.065  77.19   0
       166    888.5067    782.6143 307.5480321  +6.3724754     665.5284     929.6426     1020.462     78.00149     155.8787      312.006      1.300     3.82     846.4761     55.02348     112.6295         6     1.044     0.401  71.97   0
       167    656.2215    780.6970 307.6445635  +6.3655046     6681.197     9939.613     10772.38      78.1256     155.9409     311.9749      1.622     3.52     849.6973     55.02348     861.1855        30     1.379     1.008  60.12   0
       168    444.8898    778.9097 307.7323867  +6.3591648     1831.563     2465.283     2418.148      78.2495     156.6228     312.2542      1.498     3.63     849.6359     55.02348     222.0314        17     1.151     0.921  52.85   0
       169    170.0091    778.2886 307.8465580  +6.3501930     857.0469     1197.614     975.5753     77.87718     155.8165     311.9438      1.508     4.22     849.0899     55.02348     117.0264         9     1.044     0.731  44.44   0
       170    918.7361    790.2473 307.5352221  +6.3703330     8551.429     13316.91     14105.64      78.1256      156.003     312.2232      1.686     3.69     846.1465     55.02348     1083.652        39     1.467     1.198  55.12   2
       171    884.1533    772.1140 307.5501920  +6.3766651     638.1865     1159.382     818.4592      78.2495     156.0651     312.1612      1.949     6.11     846.3658     55.02348     117.2883         9     1.537     0.683  81.93   0
       172    609.3351    772.9429 307.6642955  +6.3671369     955.9779     1393.918     1170.894     78.37321     156.0651     312.1922      1.521     4.24     849.1896     55.02348     159.6147         7     0.919     0.557  59.12   0
       173    691.4152    770.9044 307.6302766  +6.3707247     2417.535     3776.236      3885.31     78.00149     155.8787     311.9749      1.694     3.46     849.2583     55.02348     347.2485        17     1.189     0.837  66.95   0
       174    425.1545    767.5056 307.7409662  +6.3632111     55582.73      82795.6     87325.25      78.1256     156.0651     312.2853      1.634     3.47     849.3178     55.02348      6842.77        81     1.576     1.246  59.57   0
       175    160.6432    771.3447 307.8506817  +6.3527448     948.2349     1583.531       1677.2      78.2495     156.1271     312.1612      1.786     5.42     848.7611     55.02348     111.9177        10     1.100     0.753  34.46   0
       176    135.4189    771.4561 307.8611527  +6.3518507     1079.201      1683.04      1603.03     77.75268     156.0651     311.9749      1.764     4.60     848.1246     55.02348     148.6533        13     1.349     0.727  46.23   0
       177    968.1307    769.1348 307.5154155  +6.3806971     866.7365     1412.174     1553.448      78.2495     156.1892     312.1922      1.684     5.67     844.1484     55.02348     104.7546        11     1.196     0.757  51.38   0
       178    542.8613    766.5142 307.6921175  +6.3675651     7305.623     10758.75     11047.38     78.37322     156.2512     312.1922      1.598     3.46     848.7988     55.02348     986.3569        32     1.361     1.073  52.76   0
       179    459.7096    765.1751 307.7266945  +6.3653318     4480.828     6726.807     7591.326     78.37322     155.9409      312.006      1.625     3.72     848.9298     55.02348     611.5208        25     1.347     0.963  59.99   2
       180    456.3051    758.5521 307.7283313  +6.3679519     2489.708     3520.969     4101.022      78.1256      156.003     312.3163      1.613     3.85     848.7051     55.02348     302.8552        21     1.308     0.990  46.90   2
       181    788.1083    763.1525 307.5903802  +6.3771573      11822.1     17760.93     18621.42      78.2495     156.0651     312.2853      1.603     3.59     847.4445     55.02348     1530.745        41     1.474     1.094  54.62   0
       182     17.5772    759.2089 307.9105016  +6.3529415     1204.789     1757.366     1753.443     77.87718     155.8787     311.9749      1.643     6.43     846.2423     55.02348     157.8983        13     1.311     0.885  53.85   0
       183    809.7474    757.4316 307.5815853  +6.3802421     1260.781     2197.521     2477.917      78.1256     156.1892      312.068      1.962     5.08     846.9276     55.02348     164.6507        16     1.380     0.876  88.15   0
       184    145.8336    755.0854 307.8573805  +6.3589592     11634.59     18031.61     19585.98      78.2495      156.003     312.1301      1.644     3.54      847.968     55.02348     1478.237        42     1.468     1.159  51.12   2
       185    138.0914    752.3737 307.8606872  +6.3598183     3036.712     4553.364     5234.289     78.37322     155.8787      312.006      1.709     3.77      847.714     55.02348     385.4588        21     1.324     0.919  48.51   3
       186    978.1469    757.1003 307.5116586  +6.3859995     642.4781     877.6326     819.3468      78.1256     156.1271     312.3783      1.498     3.88      843.723     55.02348     99.21942         6     0.770     0.562  59.52   0
       187    154.0699    755.3781 307.8539504  +6.3591153     3061.555     4572.524     4916.232     77.87718     156.0651     312.1301      1.572     3.69     848.1456     55.02348     413.4479        22     1.243     0.979  56.98   0
       188    933.6242    751.7228 307.5303295  +6.3867345     6335.221     9782.324     10486.12     77.87718      156.003     312.1301      1.675     3.65     844.6483     55.02348     890.0007        33     1.404     1.150  51.19   0
       189    982.7941    751.6974 307.5099095  +6.3883851     1558.642     2573.682     3010.568     78.00149     155.8165     311.9438      1.758     4.39     843.5586     55.02348     217.2326        17     1.381     0.837  62.68   0
       190    689.0621    749.2032 307.6319825  +6.3796052     1756.299     2382.796      2718.19     77.62798     155.9409     311.8817      1.495     3.73      848.363     55.02348     248.9175        16     1.203     0.815  45.00   0
       191    576.0040    748.7486 307.6789509  +6.3760094      2394.01     3695.163     3774.682     77.62798     155.8787     311.7574      1.585     3.61     848.1491     55.02348     348.4146        19     1.249     0.924  54.78   0
       192    423.9916    748.2381 307.7420979  +6.3711265     1195.273     1997.364     2505.165     77.50307     155.8787     311.9128      2.049     5.03     848.4733     55.02348     175.1317        14     1.346     0.762  84.13   0
       193    707.4835    746.9657 307.6244072  +6.3811450     614.8644     914.5443     1240.208      78.2495     156.1271     312.1301      1.511     4.56     848.2581     55.02348     114.3749         5     1.122     0.526  36.29   0
       194    138.2919    746.0194 307.8608185  +6.3624483     1992.291     2964.527     3063.406      78.1256     155.8787      312.006      1.520     3.65     847.5611     55.02348     264.6981        14     1.207     0.735  60.36   0
       195    957.2137    743.2945 307.5208148  +6.3910011      3121.65     4903.821     5031.571     78.00149     155.8787      312.006      1.665     3.66     843.9572     55.02348     375.1168        27     1.450     1.039  63.03   0
       196    927.9197    743.7465 307.5329658  +6.3898372     3071.608     4935.816     5016.815      78.2495     156.1271     312.2232      1.725     3.68     844.5305     55.02348     409.8206        26     1.389     1.032  52.55   0
       197    988.1843    743.0551 307.5079602  +6.3921328     1814.005     2808.673     2908.553     77.62798     156.0651     311.8817      1.609     3.41     843.3918     55.02348     256.6824        18     1.211     0.926  64.93   0
       198    680.0667    743.0339 307.6359255  +6.3818513     1635.345     2583.958     3009.984      78.1256     156.1892     312.2232      1.756     3.72     848.1233     55.02348     202.5583        16     1.221     0.842  63.85   0
       199    827.3269    741.2622 307.5748266  +6.3875047     971.2425     1676.569     1893.567     78.37322     156.1271     312.2232      1.976     4.49     846.5528     55.02348     134.2994        11     1.108     0.853  54.13   0
       200    903.0892    739.1794 307.5434314  +6.3908941     751.5812     1025.932     1426.032      78.1256     155.8787      312.037      1.421     4.42     845.1642     55.02348     106.2036         7     0.952     0.600 -75.49   0
       201    252.6135    737.8628 307.8136185  +6.3696579     1840.888     2874.638      3404.92     77.75268     155.9409      312.006      1.678     4.51     849.0698     55.02348     263.6472        19     1.498     0.833  53.94   0
       202    945.7452    733.6697 307.5259002  +6.3945921     1115.953     1733.194     2047.867      78.2495      156.003     312.0991      1.725     6.20     843.9534     55.02348     175.5972        14     1.341     1.034  87.92   0
       203    689.8234    735.0146 307.6321428  +6.3854883      683.304     922.9643     824.0201     78.00149     155.9409      312.068      1.457     4.44     847.8135     55.02348     91.51349         8     0.872     0.644  49.13   0
       204    273.2242    733.3918 307.8052099  +6.3721959     822.7514     1058.065     680.7219     77.87718     155.9409      312.006      1.470     4.38     848.9819     55.02348      106.201        10     1.067     0.702  77.32   0
       205    972.1685    731.0206 307.5150148  +6.3965671      2435.89     4075.035     4383.018     77.75268     155.9409      312.037      1.784     3.82     843.4856     55.02348     317.7698        27     1.425     1.138  65.49   0
       206    919.4872    732.1060 307.5368580  +6.3943616     971.5088     1534.777     1633.003      78.2495     156.5609     312.2232      1.682     4.86     844.4979     55.02348      131.605        12     1.176     0.894  83.61   0
       207    168.3967    732.8731 307.8487605  +6.3688877     837.8629     1300.061     874.3025     77.75268     155.6921      312.006      1.675     5.43     847.7456     55.02348     108.3354        11     1.131     0.735  40.00   0
       208    691.5848    730.2842 307.6315701  +6.3875001     1031.775     1495.501      1837.07     77.87718     155.8787      312.068      1.576     3.66     847.6718     55.02348      159.197        10     1.063     0.653  44.70   0
       209   1014.1237    724.3360 307.4978137  +6.4007259     1656.428     2611.713     2527.765     78.49674     156.1271     312.1301      1.732     3.89      842.667     55.02348     219.0868        15     1.193     0.853  46.17   0
       210    640.3370    724.1193 307.6530608  +6.3883308     751.0325     1124.219     1041.989     78.37322     156.1892     312.1612      1.760     4.75     847.5721     55.02348     103.2715         9     1.000     0.866  56.90   0
       211    815.3052    722.8221 307.5804378  +6.3947161     1144.758     1693.262      1755.49      78.2495     155.9409      312.006      1.498     4.57     846.2481     55.02348     157.1738        13     1.304     0.745  68.02   0
       212    901.4719    720.1742 307.5447399  +6.3986864     1540.024     2380.615     2178.184     77.87718      156.003      312.068      1.597     3.81     844.7712     55.02348     214.8823        15     1.232     0.801  55.32   0
       213    876.0618    715.4410 307.5554519  +6.3997923     996.9515     1506.254     1914.777      78.2495     156.1271     312.1922      1.748     6.73     845.3338     55.02348     137.0741        15     1.482     0.875  71.51   0
       214    858.3403    711.6331 307.5629397  +6.4007727     1521.729     2330.252     2304.244      78.1256     156.1892     312.0991      1.666     3.60     845.6058     55.02348     202.2664        14     1.148     0.782  57.79   0
       215     57.6185    710.5308 307.8955189  +6.3743849     2556.437     3829.156     4170.996     77.87718      156.003     312.0991      1.641     4.07     846.1066     55.02348     330.4321        22     1.344     1.019  48.52   0
       216    121.8011    709.5223 307.8688991  +6.3769607     749.9837     1640.436     1796.382     77.50307     155.5676     311.9749      2.182     5.78     846.4301     55.02348     109.9907        12     1.700     0.553  73.58   0
       217    575.7313    706.2338 307.6804934  +6.3935522     622.5275      1003.65     549.1871      78.1256     156.1271     312.2232      1.544     5.08     847.1635     55.02348      92.3302         7     1.155     0.632  55.15   0
       218    714.3412    702.7603 307.6230432  +6.3996243     517.1973      819.168      764.466      78.2495     156.1892     312.2232      1.851     4.35      846.864     55.02348     93.15155         5     1.480     0.364  77.76   0
       219    670.2089    698.9619 307.6414997  +6.3997164     6424.641     9427.543      9879.73     77.50307     155.9409     311.8817      1.554     3.54     846.8604     55.02348     859.7136        30     1.400     0.987  55.65   0
       220    616.8597    698.3538 307.6636770  +6.3981823     1453.072     2101.668      2122.41      78.1256     156.1271     312.2542      1.617     4.34     847.2698     55.02348     184.0957        16     1.257     0.878  66.64   0
       221    527.8115    698.6942 307.7006486  +6.3950599     790.2612     1168.323     1586.055     78.00149     155.8165     311.9438      1.787     5.58     846.8072     55.02348     134.8133        10     1.257     0.699  60.50   0
       222    538.8476    698.7012 307.6960649  +6.3954267     623.7104     982.2531      1353.09      78.2495      156.003     312.3473      1.818     4.93     846.7837     55.02348     85.77057         5     1.039     0.662  61.35   0
       223   1007.2130    694.3392 307.5016880  +6.4128797     2492.022     3769.022     4154.759     77.75268     155.9409     311.8506      1.649     3.91     842.1382     55.02348     324.3928        21     1.383     0.920  58.54   0
       224    643.9645    694.7057 307.6525425  +6.4005955      2192.13      3390.02     3893.022     78.37322      156.003     312.2542      1.662     3.79     846.9881     55.02348     271.8892        19     1.324     0.874  65.94   0
       225    133.1895    694.8132 307.8646664  +6.3834161     3501.508     5543.467     5821.259     78.00149     155.8787     312.0991      1.663     3.63      846.158     55.02348     468.3102        26     1.407     1.011  61.62   0
       226    319.4068    694.9098 307.7873279  +6.3896333     689.7706     1081.231     980.3729     77.87718     155.8165     311.9438      1.508     4.56     847.0891     55.02348     106.5597         6     0.991     0.596  53.99   0
       227    787.0809    691.1561 307.5932221  +6.4068464     20571.65     30495.83     31650.62      78.2495     156.1271     312.1301      1.569     3.54     845.9541     55.02348     2640.429        44     1.441     1.095  57.37   0
       228    486.0514    691.4816 307.7182347  +6.3966383     1486.047     2167.667     2341.657      78.2495     156.1271     312.1612      1.650     5.53     846.7512     55.02348     183.1526        13     1.265     0.714  60.71   0
       229    917.1426    690.8187 307.5392150  +6.4113288     3608.243     5457.217     6297.171     77.87718     156.0651     311.9749      1.600     3.43     843.7243     55.02348     488.4111        25     1.362     0.937  58.28   0
       230    514.3156    690.8940 307.7065160  +6.3978280     951.0253     1592.927     1232.149      78.1256      156.499     312.2853      1.721     4.60     846.6806     55.02348     131.0041        11     1.248     0.703  55.11   0
       231    332.2453    690.9701 307.7821288  +6.3916907     694.8618     876.5317     899.9849     77.87718     156.1271      312.037      1.403     4.83     847.0292     55.02348     109.3833         7     1.048     0.632  68.10   0
       232    288.3995    690.4667 307.8003550  +6.3904265      593.136      922.316     709.1907     77.50307     155.6299     311.9128      1.580     4.24     846.5326     55.02348     90.23187         5     1.273     0.403  54.81   0
       233    650.2462    685.0179 307.6502591  +6.4048051     897.6696     1385.595     1455.537     77.75268      156.003     311.9128      1.676     3.74     846.7201     55.02348      140.832        10     1.031     0.775  62.44   2
       234    260.5485    684.7356 307.8121148  +6.3918571     6271.228     9304.022     9764.436      78.2495     156.0651     312.1301      1.638     3.66     846.1578     55.02348     805.3082        32     1.458     1.033  52.12   0
       235    667.5715    683.9348 307.6430998  +6.4058320     7195.278     10699.08     11671.41     78.00149     156.1271     312.0991      1.638     3.55     846.4873     55.02348     980.8947        34     1.462     1.061  49.76   0
       236    927.6028    676.7290 307.5353426  +6.4174947      1325.42      1939.56     1957.526     77.75268     155.7544      312.006      1.772     3.90     843.2349     55.02348     205.4745        14     1.225     0.753  58.82   0
       237    739.2693    672.2548 307.6137140  +6.4130518     3699.426     5936.774     6386.169      78.2495      156.003     312.0991      1.701     3.96     845.8512     55.02348     498.5449        28     1.455     1.050  70.31   0
       238    694.8016    672.7871 307.6321649  +6.4113451     1051.105     1507.168     1792.416     77.87718     155.8165     311.9438      1.626     5.49     846.0473     55.02348      149.199        12     1.392     0.610  51.19   0
       239   1005.6564    668.9655 307.5031839  +6.4233033     8720.561     13293.87     13820.38      78.1256     156.1271     312.1612      1.636     3.63     841.7064     55.02348     1143.482        36     1.472     1.104  64.16   0
       240    944.2507    669.5758 307.5286677  +6.4210034     2561.587     3719.164     3700.051     77.87718     156.1271      312.068      1.577     3.65     842.8107     55.02348     367.2429        21     1.388     0.840  62.14   0
       241      4.5873    670.7787 307.9188855  +6.3890102     736.5325     928.3241     952.8118     78.00149     155.8165     280.8936      1.444     4.90     845.7039     55.02348     105.1647         7     0.992     0.685 -17.77  16
       242    994.7944    670.0319 307.5076596  +6.4225009     495.8649     854.5633      698.225     77.62798     155.9409     311.9438      1.915     3.93     841.9025     55.02348     83.90552         5     0.842     0.524  37.69   0
       243     24.4451    668.7534 307.9107072  +6.3905149     1846.481     3288.207     4125.688      78.2495     156.0651     312.1612      2.142     5.69      845.689     55.02348     235.6857        22     1.556     1.160  -8.18   0
       244    441.6191    667.0154 307.7375116  +6.4052493     600.5816     812.3566     1072.762     78.00149     155.8787      312.068      1.436     4.06     846.3232     55.02348     124.9694         5     1.254     0.432  59.14   0
       245     82.9951    663.7295 307.8865616  +6.3945597     25519.38     39298.39     40861.44     77.75268     155.7544      312.037      1.648     3.57     845.5078     55.02348     3197.016        56     1.525     1.180  60.07   0
       246    544.4022    664.7753 307.6948990  +6.4096187     1999.397     2762.865     2942.964     77.87718     155.8165     311.9749      1.585     3.68     846.0974     55.02348     271.0624        16     1.250     0.812  68.31   0
       247    512.8984    661.9182 307.7080794  +6.4097428     1556.132     2409.592     2766.164      78.2495      156.499     312.2542      1.669     3.47     846.1358     55.02348     224.8274        16     1.177     0.879  61.02   0
       248    934.0819    661.0248 307.5331777  +6.4241944     1061.484     1478.913     1032.969     78.00149     155.8787     312.1301      1.429     4.77     842.7977     55.02348     132.7261        11     1.078     0.708  65.90   0
       249    553.2467    658.4009 307.6914400  +6.4125466     1059.038     1315.292     1435.167     77.62798     155.8165     311.7263      1.392     4.10     846.0523     55.02348     167.3573        13     1.221     0.727  65.70   0
       250    728.9945    656.1197 307.6185231  +6.4193695     3741.784     5332.646       5815.2     77.87718     155.6921     311.9438      1.508     3.38     845.4691     55.02348     501.9781        22     1.259     0.927  53.36   0
       251    751.1058    654.2261 307.6094030  +6.4208905     4268.262     6037.377     6243.051     78.37322     155.8787      312.006      1.538     3.48     845.2843     55.02348      559.274        23     1.231     1.018  53.04   0
       252    418.7185    653.0859 307.7474916  +6.4102320     1362.527     1932.627     2319.988     78.00149     156.3752     312.2542      1.688     4.20       846.05     55.02348     211.0046        17     1.301     0.885  55.18   0
       253    243.2199    651.8751 307.8204199  +6.4048408     1770.882     2750.046     2852.385     77.87718     155.9409     312.0991      1.644     4.14     845.0452     55.02348     216.7191        18     1.250     0.984  67.38   0
       254    582.3441    652.2169 307.6795629  +6.4160740     3440.761     4939.672     4924.534     77.75268     156.0651     311.9128      1.563     3.81     846.1503     55.02348     471.4861        20     1.263     0.900  53.71   0
       255    326.7108    651.1970 307.7857678  +6.4079246     1503.513     2357.755     2627.155     77.62798     155.8165     311.8506      1.724     4.88     845.3747     55.02348     206.5702        15     1.401     0.723  54.02   0
       256   1023.2200    650.3116 307.4965134  +6.4315901     3908.039     5378.792     5494.552     73.26186     130.5066     241.9032      1.401     3.80      841.499     55.02348     673.2225        21     1.356     0.844  79.92  24
       257    989.3000    649.3387 307.5106345  +6.4308608     8220.968     12494.64     12906.25     78.00149      156.003     312.2542      1.651     3.55     841.9007     55.02348     1073.536        36     1.470     1.059  57.42   0
       258    709.1276    647.9280 307.6270496  +6.4220871     1054.738     1416.223     1191.916     78.49674     156.2512     312.1612      1.390     5.06     845.3944     55.02348     134.6107        12     1.348     0.650  72.87   0
       259    100.6944    646.3456 307.8797984  +6.4023318     821.7885     1432.153      1462.77      78.1256     156.1271     312.3783      1.866     5.37      845.012     55.02348     127.3044         8     1.004     0.811 -66.19   0
       260    434.5704    643.6882 307.7412244  +6.4146434     2972.156     4314.689     4199.206     78.37322     155.8787      312.037      1.567     3.72     845.8744     55.02348     408.8445        21     1.315     0.905  65.55   0
       261    147.7770    642.6727 307.8603688  +6.4054318     24520.69     36909.96     37771.98     77.87718     155.9409     312.1301      1.627     3.60     844.9661     55.02348     3260.092        47     1.473     1.124  57.13   0
       262    816.1861    643.4129 307.5827353  +6.4275294     1323.513     1868.928     1814.748      78.1256     155.8165     312.0991      1.542     4.16     844.4634     55.02348     179.0278        11     1.042     0.723  70.79   0
       263    652.2726    642.5248 307.6508450  +6.4224159     539.5485     798.3169     -70.4466     78.49674     156.3752     312.2232      1.288     3.34     845.7067     55.02348     117.7247         5     0.757     0.427  24.40   0
       264    367.2854    637.9650 307.7693623  +6.4147491      644.533     1068.505      1453.22      78.2495      156.003     312.1612      2.033     6.10      844.957     55.02348     96.12775         9     1.414     0.740  54.99   0
       265    984.1292    632.2963 307.5133529  +6.4377243     6863.053     11254.45     11922.36      78.1256     156.2512     312.1922      1.742     3.97     841.8463     55.02348     887.5073        42     1.695     1.100  53.02   0
       266     28.5292    631.3416 307.9102758  +6.4060970     1221.781     1860.881     1907.483     78.37322     156.1271     312.1612      1.612     3.86     845.5742     55.02348     169.6632        14     1.171     0.830  39.53   0
       267    577.7594    627.5341 307.6822970  +6.4261106     50023.72     72829.44     76437.53      78.2495     156.0651     312.2542      1.608     3.61     845.5134     55.02348     6701.036        72     1.512     1.217  58.45   0
       268    942.7848    629.6280 307.5306148  +6.4374469     612.9816     1149.459     1187.869     77.87718     155.9409      312.068      1.883     3.31     842.0844     55.02348     100.8766         5     0.738     0.450  17.62   0
       269    220.7679    628.5738 307.8305306  +6.4137059     700.0483     1274.574     1738.143     77.75268     155.8787      312.006      2.520     4.75     844.4463     55.02348     98.68677         8     1.158     0.552  65.32   0
       270    802.2801    627.1166 307.5890578  +6.4337927     622.5692     841.0622     134.5156      78.1256     156.3752     312.2542      1.404     4.95     844.2266     55.02348     96.74371         5     1.234     0.563  57.61   0
       271    536.9400    627.9203 307.6992378  +6.4245840     676.3019     1172.292     1281.281     78.37322     156.1271     312.1301      1.536     3.66     845.5058     55.02348     140.5444         7     0.963     0.663  37.88   0
       272    185.2386    624.1258 307.8454366  +6.4143480     2827.417     4139.127     4485.761      78.1256     156.1271     312.2232      1.568     3.44     844.5118     55.02348     353.8402        21     1.217     0.988  69.39   0
       273    507.9727    624.7635 307.7113752  +6.4249167     582.6415      936.915     1150.913     77.75268     155.8165     311.9438      1.468     3.69     845.4808     55.02348     104.8027         5     0.816     0.481  49.65   0
       274    989.2224    624.0697 307.5115129  +6.4412905      573.226     725.5298     1638.375     77.87718     156.0651     312.1301      1.300     4.46     841.7714     55.02348     84.90613         8     1.073     0.528  35.84   0
       275     77.8267    618.2961 307.8902431  +6.4131419     1432.101     2092.915     2595.341     78.37322     155.8787     312.0991      1.562     3.64     844.6476     55.02348     232.5944        13     1.113     0.785  55.37   0
       276    474.9752    611.3130 307.7255329  +6.4293637     64868.56     95949.29     100664.2     78.37321     155.9409      312.037      1.602     3.56     845.2304     55.02348     8127.431        78     1.539     1.208  59.19   0
       277     18.7399    612.8256 307.9149673  +6.4134112     1761.516     2710.764     3055.851     77.87718     156.1271      312.037      1.601     3.74      845.721     55.02348     244.6531        18     1.348     0.842  61.19   0
       278    660.8454    608.3160 307.6484337  +6.4368257     871.4277     1267.794     892.1399      78.2495     156.1271     312.1922      1.416     5.36     844.8433     55.02348     108.2137        11     1.251     0.649  55.49   0
       279    149.5222    606.7199 307.8608579  +6.4203328     1780.358     2691.336     2401.332     78.49674     156.3752     312.3163      1.656     4.10     844.2777     55.02348     224.2294        19     1.263     1.060  65.73   0
       280    944.6082    604.2097 307.5307090  +6.4480016     701.3398     1082.143     507.4941     77.75268     155.9409      312.068      1.640     4.05     841.6296     55.02348     111.2478         7     1.100     0.691  38.48   0
       281    428.8606    603.8171 307.7449384  +6.4309121     812.2765     1071.792      1168.51     77.87718     156.0651     311.9438      1.360     4.05     844.9802     55.02348     140.3582         9     1.073     0.638  75.48   0
       282    621.2510    603.1591 307.6650525  +6.4376296     763.4221     1220.085     1026.589      78.2495     156.1271     312.1301      1.646     4.57     844.6484     55.02348     102.2587         8     0.853     0.695 -48.13   0
       283    503.1075    602.2831 307.7141523  +6.4340344      649.571     917.7172     1137.153     78.00149     156.4371     312.2853      1.809     4.85     844.9095     55.02348     86.20349         7     1.034     0.645 -86.05   0
       284     21.8010    602.5905 307.9140421  +6.4177396     760.9549     1097.281     1292.618     77.62798     155.8165     311.9128      1.540     4.97     845.6012     55.02348     101.6138         8     1.056     0.663  59.97   0
       285    320.3493    600.6569 307.7901135  +6.4285757     2045.657     3197.152      3729.66      78.2495     156.1271     312.1612      1.720     4.02     843.7816     55.02348     291.6124        20     1.381     0.888  74.69   0
       286    472.7330    599.3214 307.7268678  +6.4342391     1000.107     1344.052     2331.647     78.37322     156.1892     312.1301      1.687     3.60     844.7917     55.02348     153.6929        12     1.097     0.877  38.30   0
       287    747.0937    594.8516 307.6130623  +6.4452689     5536.513     8054.461     8614.831      78.1256     155.9409     312.3783      1.538     3.43      843.787     55.02348      728.926        29     1.319     1.069  69.26   0
       288   1018.1636    590.7405 307.5006077  +6.4560155     928.2498     1409.506     838.1996      78.2495     156.1271     303.4105      1.569     4.28     841.1481     55.02348     139.9352        12     1.312     0.686  61.80  16
       289    800.5850    590.1411 307.5910023  +6.4490013     14207.91     20680.06      21054.7     77.62798     156.1271     311.9128      1.558     3.50     843.4566     55.02348     1967.972        38     1.435     1.013  57.57   0
       290    542.9453    589.8110 307.6980254  +6.4405182     1337.665     2307.583     2449.058     77.62798     156.0651     311.8506      1.783     5.69     844.4014     55.02348     176.1619        15     1.454     0.782  78.72   0
       291     46.5596    590.0048 307.9041849  +6.4237689     630.6834     888.6092     1163.305     77.50307     155.8165     311.8817      1.520     4.17     844.9731     55.02348     101.5328         5     0.794     0.625  -0.63   0
       292    624.5544    588.1284 307.6641855  +6.4439455     3054.983     4417.386     4911.357      78.1256     156.1271     312.1612      1.570     3.44     844.0638     55.02348     423.6836        22     1.293     0.916  46.16   0
       293    941.7675    584.2195 307.5325586  +6.4561598     1156.374      1868.43     2577.782     77.75268     155.9409     311.9749      1.879     4.90      841.391     55.02348     149.7878        12     1.269     0.635  56.74   0
       294    236.9828    581.7026 307.8253776  +6.4336007     1346.479     2179.002     2626.572      78.1256     155.9409     311.9438      1.744     4.19     843.4789     55.02348     169.4034        16     1.244     0.870  47.74   0
       295    383.0771    581.5740 307.7647033  +6.4385591     995.4529     1318.347     1120.933     78.00149     156.1271     312.1301      1.524     5.67     843.3288     55.02348      127.833        12     1.093     0.829  58.93   0
       296    876.7346    573.3796 307.5599346  +6.4584645     2912.105     4490.437     4595.735     77.87718     156.1271      312.037      1.655     3.92      841.923     55.02348     392.2379        20     1.406     0.807  55.75   0
       297    171.5983    572.8569 307.8528325  +6.4350547     686.6816     1222.908     1813.154     77.62798     155.8165     311.9128      2.477     5.87     843.6282     55.02348     92.61414         9     1.181     0.822  45.72   0
       298    835.3848    570.9059 307.5771930  +6.4581050     2647.639     3744.394     3908.231     78.00149     155.9409     311.9749      1.524     3.40     842.5453     55.02348     343.5304        19     1.247     0.865  57.12   0
       299    806.3409    566.7018 307.5893979  +6.4588704     2465.123     3916.182     4848.513     78.00149     156.0651     312.2853      1.748     3.87     843.0179     55.02348     316.1169        20     1.303     0.905  57.38   0
       300    263.4267    565.7570 307.8149323  +6.4410720     8036.409     12090.97     12004.65     77.87718     156.1271      312.068      1.622     3.39     843.0379     55.02348     1017.325        35     1.437     1.095  58.63   0
       301    815.9808    561.9931 307.5855517  +6.4611364       162902     239127.5     251118.1     77.87718     155.8165     311.9749      1.535     3.48     842.7307     55.02348     21766.77       115     1.584     1.243  58.33   0
       302    197.5625    560.2985 307.8424725  +6.4411121     59788.53     89922.77     95557.77      78.2495      156.003     312.3473      1.672     3.59      843.194     55.02348     7811.464        87     1.565     1.323  58.95   0
       303    745.7886    562.7717 307.6146813  +6.4584692     720.1143     1410.058     2172.288     77.75268     155.9409      312.006      3.269     5.58       843.15     55.02348     113.6235        10     1.316     0.668  62.56   0
       304    121.6200    556.5606 307.8741405  +6.4401015     6383.871      9655.55     9904.266     77.87718     155.9409     311.9128      1.668     3.70     843.6416     55.02348     810.9819        34     1.418     1.105  43.83   0
       305    986.7864    553.8033 307.5148778  +6.4702187     1235.604     1887.957     1712.752     77.87718     155.8165      312.037      1.625     3.77      840.435     55.02348      192.489        15     1.222     0.838  60.41   0
       306   1007.5756    552.7819 307.5062765  +6.4713337     666.0109     1043.204     912.3078     77.87718     155.9409     312.0991      1.460     3.38     840.1304     55.02348     93.64832         5     0.742     0.445  68.68   0
       307    236.1400    551.8312 307.8267355  +6.4459042     741.7443     1117.043     1409.361     78.00149     156.1892     312.1301      1.648     4.08     842.7549     55.02348     146.5674         6     1.138     0.418  61.60   0
       308    852.5363    549.3297 307.5707923  +6.4675855     4545.687     6649.543     6679.096      78.2495     156.1271     312.1612      1.593     3.35     841.6071     55.02348     634.3368        26     1.309     0.992  51.45   0
       309    370.9684    547.4098 307.7708837  +6.4522570     17524.76     26256.11     26820.07     77.75268     155.8787      312.006      1.609     3.47     842.2347     55.02348      2231.01        50     1.476     1.173  59.06   0
       310    461.4987    547.5175 307.7332778  +6.4552491     911.1962     1269.224     1287.048      78.2495     156.5609     312.2542      1.403     4.70     842.7153     55.02348     127.7877        10     1.203     0.676  66.10   0
       311    172.7046    546.3893 307.8532666  +6.4460185     1879.348     2746.236     3264.224     77.87718     155.7544     311.9438      1.529     3.63     843.1221     55.02348     230.2852        19     1.154     1.046  71.05   0
       312    537.3204    542.3627 307.7019578  +6.4599184     6659.791     9761.341     9957.689      78.1256     156.1892     312.1612      1.599     3.63     842.4229     55.02348     915.6194        34     1.422     1.062  61.18   0
       313    806.5075    542.5709 307.5901383  +6.4688383     6149.146      8918.37     9744.264     78.37322     155.8787      312.068      1.607     3.54     842.5731     55.02348     881.3876        28     1.364     0.972  55.40   0
       314    248.0778    543.8556 307.8220462  +6.4495979     788.3664     825.4938     12.19341      78.2495     156.1271     312.1612      1.174     4.28     842.4368     55.02348      120.401         7     1.139     0.458  55.10   0
       315    110.1328    543.9052 307.8793390  +6.4449395     722.3679     1151.526     1411.271      78.1256     156.2512     312.1612      1.552     3.86     843.5952     55.02348      119.468         6     0.921     0.463  56.20   0
       316    395.6535    539.1162 307.7609101  +6.4565092     1292.013      2100.74     2052.213      78.2495     156.1271     312.3163      1.743     4.64     842.0992     55.02348     173.7435        17     1.290     1.005  41.24   0
       317    582.0702    535.3215 307.6836071  +6.4643241      2319.84     3984.907     3787.764     78.49674     156.3752     312.1301      1.837     3.99     842.0528     55.02348     315.5491        29     1.375     1.289  22.32   0
       318    184.3558    535.4001 307.8487983  +6.4509469     6803.618     10110.84      10024.6     77.50307     155.7544     311.7885      1.617     3.54     842.6998     55.02348     877.8724        31     1.386     1.049  64.84   0
       319    823.0885    534.8204 307.5835109  +6.4725920     1431.896     1927.304     2065.805      78.1256     155.8787      312.037      1.488     3.67     841.9688     55.02348     199.1156        14     1.198     0.783  52.19   0
       320    279.5996    531.9280 307.8093560  +6.4555809     86565.94     131541.6     138398.6     77.62798     155.6299      312.006      1.629     3.51     841.7421     55.02348      11522.6        94     1.574     1.279  56.94   0
       321     55.9357    534.1312 307.9021794  +6.4471505     5075.896     7763.913     8368.903      78.2495     156.1892     312.1922      1.640     3.50     844.2528     55.02348     644.5886        30     1.496     1.006  62.09   0
       322    569.1089    529.5011 307.6891865  +6.4662929     1006.756      1329.98      1486.37      78.2495     156.5609     312.1301      1.447     3.51     841.8774     55.02348     149.4299         9     1.065     0.565  63.57   0
       323    263.5057    527.1152 307.8162030  +6.4570272     1435.905     2075.221      2580.17      78.1256      156.499     312.2853      1.565     3.38     841.6995     55.02348     201.7744        16     1.197     0.870  54.19   0
       324    978.9492    525.6255 307.5190769  +6.4815906     1539.277     2199.141     2132.868     77.87718     156.1892      312.068      1.505     4.28     839.5563     55.02348     225.5378        15     1.275     0.800  79.58   0
       325    802.7227    524.4079 307.5923198  +6.4762104      16833.3     24330.71     25460.14     77.87718     155.6299     311.9749      1.592     3.66     842.0054     55.02348     2223.625        41     1.446     1.038  61.30   0
       326    506.3538    522.7662 307.7154797  +6.4669710     40916.65      65812.8     70544.64     77.87718     156.1271     312.0991      1.746     3.82     841.7777     55.02348     5211.599        79     1.659     1.338  44.47   0
       327    656.5136    521.4028 307.6531531  +6.4725623     886.3491     1289.074     1587.639     77.62798     155.7544     311.8817      1.534     4.40     841.4652     55.02348     120.6015        11     1.100     0.762  40.83   0
       328    218.7826    519.2319 307.8350449  +6.4587789     1833.565      2999.52     3016.996     77.87718     155.9409      312.037      1.684     3.79     841.7618     55.02348      235.678        20     1.297     0.993  55.67   0
       329     54.5885    519.3442 307.9032387  +6.4532096      1227.73     1924.846     2052.251     77.62798     156.0651     311.8506      1.681     4.09     844.0142     55.02348     192.2974        17     1.351     0.829  65.93   0
       330    728.7197    517.2354 307.6233001  +6.4766980     1305.357     2179.297     2050.325      78.1256     156.1892     312.1922      1.897     5.59     841.7153     55.02348     183.5626        18     1.617     0.804  56.08   0
       331    676.4257    517.9883 307.6449968  +6.4746381     1355.458     1961.758     2047.699     77.87718     155.9409     312.0991      1.581     4.10     841.3713     55.02348      203.078        14     1.351     0.679  62.21   0
       332    666.2808    517.8338 307.6492160  +6.4743625     2950.098     4596.875     4738.975      78.1256     156.0651     312.1922      1.653     3.62     841.3499     55.02348     393.2532        21     1.315     0.918  55.32   0
       333     84.5044    514.9893 307.8909605  +6.4560143     640.8788     1343.338     1568.377     78.00149     155.7544     311.9438      2.122     6.28     843.4399     55.02348     101.2563        10     1.488     0.744  30.51   0
       334    404.1141    513.2538 307.7582671  +6.4674699     1791.754     2628.622     2152.956      78.2495     156.0651     312.2853      1.579     4.44     841.1155     55.02348     215.3257        18     1.292     0.935  55.49   0
       335    335.5550    511.7423 307.7867951  +6.4657932     4020.963     5802.756     5089.395      78.2495     156.1271     312.2232      1.551     3.49     841.0299     55.02348     548.5466        23     1.320     0.928  61.53   0
       336    150.6691    510.2899 307.8636379  +6.4601804     26072.07     39063.57     40539.39     78.37322     156.3132     312.1612      1.656     3.56     842.3725     55.02348     3437.068        56     1.492     1.196  59.08   0
       337    878.7784    510.6942 307.5611872  +6.4844123     1618.181      2466.71     2310.083      78.1256     155.9409      312.006      1.663     3.86     840.7138     55.02348      211.093        18     1.240     0.958  71.52   0
       338    515.4974    511.1753 307.7120717  +6.4720625     2194.337      3052.01     3355.891     78.37322     155.8787      312.068      1.522     3.65     841.2835     55.02348     298.5675        16     1.222     0.795  59.39   0
       339    115.8215    508.7040 307.8781654  +6.4596629     2790.675     4262.847     4436.876      78.1256     155.9409     311.9749      1.671     3.83     842.8615     55.02348     363.2207        21     1.212     1.024  55.51   0
       340    352.5654    506.7690 307.7798972  +6.4684173     1049.491      1565.94     1442.945     77.87718     155.8787     311.9438      1.558     4.42     840.8702     55.02348     128.8811        12     1.083     0.906  43.51   0
       341    976.2177    504.9137 307.5209053  +6.4900503     4921.362     7284.174     7707.562     77.87718     155.8787      312.068      1.550     3.47     838.7709     55.02348      660.376        25     1.364     0.956  57.69   0
       342    549.5221    497.3267 307.6984046  +6.4789197     1603.709     2115.886     2173.975     78.49674     156.3752     312.1922      1.439     3.34      840.574     55.02348     246.5309        14     1.179     0.723  62.60   0
       343     14.9631    494.6109 307.9205332  +6.4620858     25184.94     38766.91     41140.44     77.75268     155.9409     311.8506      1.663     3.53     844.2607     55.02348     3159.119        60     1.531     1.233  62.89   0
       344    447.6839    491.4466 307.7409039  +6.4779341     44064.51     64547.21     68202.15      78.2495     156.1271     312.1922      1.630     3.50      840.465     55.02348     5907.429        71     1.524     1.221  56.23   0
       345    424.4253    494.2078 307.7504720  +6.4760142     589.0272     648.6845     630.4854     77.87718     155.9409      312.006      1.204     3.45     840.3994     55.02348     121.3202         5     0.843     0.408  67.81   0
       346    655.6993    491.0916 307.6545099  +6.4850487     12523.79     18361.19     19140.58      78.2495     156.5609     312.1301      1.565     3.47     840.3114     55.02348     1689.365        39     1.432     1.078  56.56   0
       347    295.7127    491.6789 307.8040207  +6.4727382     892.1407     1327.368     1094.542     78.00149     156.4371     312.2853      1.397     4.56     840.3909     55.02348     117.9866         9     1.121     0.566  46.75   0
       348    212.8791    489.0238 307.8385165  +6.4710513     18852.97     30075.07     31542.21     77.87718     155.8787     312.1612      1.679     3.73     840.7391     55.02348     2401.833        54     1.628     1.172  56.30   0
       349      1.6707    488.7792 307.9262513  +6.4640456     3884.753     6656.195      8209.02     71.92729     129.0133     240.2958      2.027     5.17      844.364     55.02348     808.1324        33     2.047     0.961 -88.44  24
       350   1021.7597    490.3419 307.5024752  +6.4975849     533.5241     655.8465     901.5878      78.2495     148.1675     263.8558      1.435     3.78     836.4501     55.02348     91.89282         5     0.984     0.417  84.03  16
       351    989.6844    489.6070 307.5158239  +6.4968188     996.1108     1545.334     2050.271     77.87718     155.8165      312.006      1.916     4.52     837.6402     55.02348     145.1516        12     1.208     0.723  72.01   0
       352    178.4879    490.1404 307.8527636  +6.4694341     1644.783     2283.292     1795.885      78.2495     156.1892     312.2542      1.472     3.49      841.379     55.02348     241.9976        15     1.241     0.735  57.19   0
       353    918.4902    489.2143 307.5454112  +6.4946058     760.0741     1079.822     1298.792     78.00149     155.9409      312.006      1.734     4.91     840.0023     55.02348     132.2375         9     1.240     0.776  69.54   0
       354    829.8855    489.1025 307.5822211  +6.4916935     876.4905     1098.577     514.2025      78.2495      156.499     312.2232      1.335     3.55     840.6846     55.02348     151.1696         7     1.052     0.458  58.64   0
       355    577.4882    488.1412 307.6870969  +6.4836486     2820.087     4091.148     4004.747      78.2495     156.1271     312.2542      1.582     3.53     840.2036     55.02348     422.4299        21     1.348     0.863  57.87   0
       356    951.4241    484.9976 307.5318717  +6.4974456     4721.953     6794.792     6753.881     77.87718     155.8165     311.9749      1.536     3.46     838.9371     55.02348     642.8633        26     1.298     1.014  56.83   0
       357    112.2445    484.1246 307.8804815  +6.4696896     1174.542     1838.443     1987.347      78.1256     156.1892     312.1922      1.647     5.33     842.4502     55.02348     140.8008        16     1.450     0.907  60.45   0
       358    624.5319    483.4971 307.6677117  +6.4871410     6762.005     9583.598     9936.368      78.2495     156.1892     312.1301      1.573     3.49     840.0037     55.02348     935.9969        29     1.351     0.985  57.86   0
       359    973.8923    477.1777 307.5228003  +6.5014235     3274.071     5032.173     4885.235      78.2495     155.9409      312.006      1.614     3.72     837.7876     55.02348     477.0661        26     1.444     0.984  57.00   0
       360    412.4589    476.2326 307.7560480  +6.4830336     824.3259     1395.041     2119.919      78.1256     156.1892     312.1301      2.433     6.00     839.6167     55.02348     124.7393        12     1.242     0.815  55.05   0
       361    753.1319    475.4998 307.6145608  +6.4947445     554.2253     660.7424     422.9578      78.2495     156.2512     312.1301      1.192     3.75     840.1674     55.02348      109.999         6     1.011     0.449 -61.54   0
       362    536.7346    474.7339 307.7044764  +6.4878185     7430.396     10746.52     11253.27      78.2495     156.1271     312.1922      1.563     3.46     839.6005     55.02348     1002.769        30     1.329     1.043  56.31   0
       363    382.5936    474.9095 307.7684980  +6.4825778      2682.99     4073.161     3829.492     77.87718     155.8165     311.9438      1.595     3.44     839.6682     55.02348     364.3647        22     1.283     1.007  56.36   0
       364    893.1409    470.5506 307.5565670  +6.5014649     3267.621     4578.474     4734.924      78.2495     156.1271     312.2232      1.536     3.51     839.7034     55.02348     437.5112        20     1.245     0.905  56.21   0
       365    546.0332    470.9535 307.7007410  +6.4896908     687.0335     833.6821     1148.089     78.00149     156.1271     312.0991      1.256     5.22     839.3024     55.02348     116.5478         8     0.979     0.788  28.36   0
       366    900.5646    464.9828 307.5536698  +6.5040114     2211.899     2877.407     3419.025     77.75268     155.9409     311.9438      1.471     3.69     839.3583     55.02348     296.2825        18     1.246     0.854  59.50   0
       367    939.9030    464.1716 307.5373555  +6.5056591     1240.719      1669.89     1263.427     78.37322     155.8787     312.1612      1.448     4.50     838.6467     55.02348     176.2175        12     1.221     0.669  62.65   0
       368    119.4287    464.5573 307.8781586  +6.4780092     643.5627      902.459     751.9843     77.87718     156.1892      312.037      1.491     4.23     841.9031     55.02348     94.91437         7     1.078     0.474  81.55   0
       369    724.5345    460.9553 307.6269285  +6.4997929     3125.531     4396.421     4375.573      78.2495     156.0651     312.1612      1.493     3.30     839.3314     55.02348     453.5767        22     1.285     0.905  53.13   0
       370     86.4108    459.9471 307.8920288  +6.4788013     1902.645     3079.214     3040.035     77.62798     156.0651     311.9128      1.650     4.06     842.4429     55.02348     239.6075        19     1.341     0.923  78.32   0
       371    435.9304    459.4607 307.7468633  +6.4907449     1028.051     1537.521     1985.319     78.37322     156.1271     312.1922      1.606     4.69     838.8695     55.02348     153.8325        12     1.262     0.659  77.10   0
       372    395.3443    459.0959 307.7637344  +6.4895340     3560.899     5324.247     5627.383      78.1256     156.0651     312.3473      1.598     3.53     838.9354     55.02348      509.985        24     1.348     0.965  60.10   0
       373    623.1807    455.7266 307.6692065  +6.4985605     10265.83     15007.87      15889.4     77.87718     156.0651     312.0991      1.565     3.38     838.7014     55.02348     1288.599        38     1.412     1.101  54.67   0
       374    785.8789    452.2788 307.6017371  +6.5054257     16899.16     24353.41     25953.99     78.49674     156.3752     312.2542      1.560     3.50     839.1163     55.02348     2233.897        40     1.423     1.048  58.79   2
       375    789.7604    447.4418 307.6002871  +6.5075523     1460.727      2260.96     3112.903     78.00149     156.1892      312.037      2.010     4.23     838.8969     55.02348     172.5446        17     1.225     0.944  70.02   3
       376    305.6587    452.5237 307.8012098  +6.4892368     2884.187     4120.435     4184.635     78.37322     156.1892     312.1301      1.570     3.60     838.7595     55.02348     378.5074        22     1.232     1.008  63.91   0
       377    429.1448    451.6953 307.7499434  +6.4937231     736.3664     1126.757     1249.995      78.1256     156.1271     312.3783      1.670     4.42     838.5439     55.02348     103.8716         7     1.076     0.516  61.86   0
       378    814.7527    449.3909 307.5898396  +6.5075827     1355.556      2079.42     1964.156     77.75268     156.0651     311.8196      1.511     4.82     839.0346     55.02348     178.9913        13     1.312     0.695  60.39   0
       379    737.7482    450.3977 307.6217940  +6.5045934     464.6996     746.1508     1204.709     77.62798     155.8165     311.7574      1.764     4.40      838.819     55.02348     75.71405         5     1.126     0.489 -57.78   0
       380    388.6934    449.1987 307.7668306  +6.4933968     1571.804     2280.721     2514.491     77.75268     155.7544     311.8817      1.544     3.52     838.5123     55.02348     219.7911        15     1.209     0.767  65.06   0
       381    971.1288    447.3194 307.5249486  +6.5136582     2008.363      2638.93     2488.901     78.49674     156.4371     312.1922      1.460     3.75     837.2017     55.02348     314.2176        18     1.391     0.782  54.13   0
       382    404.2466    448.9279 307.7603791  +6.4940304      538.274     833.4482     1216.528      78.2495     156.1892     312.1612      1.896     4.26     838.4856     55.02348     97.43048         6     1.144     0.453  61.04   0
       383    376.9680    445.0793 307.7718400  +6.4947040     817.0311     1310.156     1756.364      78.1256     156.1271     312.1301      2.046     4.91     838.3563     55.02348      145.023        11     1.077     0.997  31.31   0
       384    123.2541    444.1856 307.8772579  +6.4865478     4310.943     6625.907     7351.151     77.62798     156.0651     311.8817      1.630     3.53     841.3536     55.02348     573.7639        26     1.367     0.999  54.00   0
       385    761.3569    443.2296 307.6122275  +6.5083420     2247.123     3476.612     3385.114     77.87718     156.1271      312.006      1.673     3.92     838.5626     55.02348      313.739        19     1.340     0.897  63.83   0
       386   1023.6205    441.4366 307.5033396  +6.5178374     1817.782     2409.689     2418.927     68.33553     124.5039     235.4079      1.314     3.60     835.7748     55.02348     396.7378        13     1.412     0.536  83.69  24
       387    281.2310    441.3165 307.8117346  +6.4930430     1417.874      2157.79     2003.941      78.2495     155.9409      312.037      1.668     5.14     838.3804     55.02348     194.0781        16     1.371     0.852  57.55   0
       388    359.3634    438.9405 307.7793596  +6.4966474      3219.98     4654.062     4951.419      78.2495     156.1271     312.1301      1.549     3.31     838.1121     55.02348      416.801        22     1.262     0.947  65.81   0
       389    715.2025    436.6577 307.6316211  +6.5095119     1735.052     2464.384     2423.277     77.62798     155.8165     311.9128      1.524     3.68     838.0641     55.02348     248.6797        18     1.255     0.907  51.77   0
       390    418.6764    435.0534 307.7548525  +6.5002424     534.7675     609.9619     208.5832     78.37322     156.1271     312.1612      1.304     4.23     837.8503     55.02348     84.77588         5     1.078     0.473  25.41   0
       391    246.7444    434.8651 307.8262774  +6.4945477     881.5599     1345.767     1467.438     78.37322     156.0651     312.1612      1.606     5.08     838.9419     55.02348     117.8912        10     1.091     0.681  24.71   0
       392    556.4814    428.9575 307.6978136  +6.5073784     952.9135      1450.93     2158.431      78.2495     156.1271     312.1301      1.967     4.83     836.7811     55.02348     133.8214        11     1.355     0.651  47.74   0
       393    478.6353    427.4360 307.7302023  +6.5053978     1441.847     2096.953     1814.687     78.00149     155.8787     311.9128      1.631     4.08     836.6417     55.02348     220.7714        16     1.230     0.914  65.37   0
       394    841.3074    426.7711 307.5795673  +6.5178083     1445.211      2271.85     2706.635     78.37322     155.8787      312.068      1.790     3.98     838.0278     55.02348     199.1726        18     1.282     0.949  70.91   0
       395    827.0881    425.9622 307.5855014  +6.5176673     2057.957     2764.392     2527.514      78.2495      156.003     312.1612      1.467     3.60     837.9836     55.02348     263.8144        17     1.226     0.847  59.01   0
       396    724.3867    423.9583 307.6282324  +6.5150619     15195.31     22397.21     23696.04     77.62798     155.9409     311.9128      1.566     3.50     837.4175     55.02348     2040.497        39     1.424     1.045  62.09   0
       397    645.4547    420.0635 307.6611526  +6.5140292     2693.223     4309.966     4666.631     78.37322     156.0651     312.1301      1.734     3.89     837.0486     55.02348      359.848        26     1.472     1.061  52.69   0
       398    617.8623    415.1076 307.6727814  +6.5151517     13315.75     25831.92     30257.01      78.2495     156.1892     312.2232      2.229     6.67      836.667     55.02348     2053.572        64     2.417     1.143  38.45   0
       399    949.7559    413.9372 307.5349458  +6.5267270     3728.741     5614.183     5691.846      78.2495     156.0651     312.2232      1.599     3.49     836.6732     55.02348     549.7565        23     1.346     0.959  48.09   0
       400    388.7695    409.8105 307.7681262  +6.5096602     29302.65     44375.47     45990.83     77.75268     155.9409      312.006      1.621     3.51     836.7048     55.02348     3982.254        53     1.490     1.163  58.65   0
       401    904.3350    408.5313 307.5539960  +6.5274430     1167.462     2398.962     3547.072      78.2495     156.1892     312.1922      2.421     7.87     837.0378     55.02348     210.0222        22     2.543     0.681  46.83   0
       402    134.8340    409.2500 307.8736280  +6.5013598     2406.538     3575.143     3528.703      78.1256     156.1271     312.0991      1.593     3.71     840.3315     55.02348     332.2686        21     1.270     0.986  58.33   0
       403    918.4423    404.2958 307.5482774  +6.5296625     5275.019     7565.792     7422.978      78.2495     156.0651     312.2853      1.567     3.35     836.7615     55.02348     749.6719        25     1.306     0.947  64.42   0
       404     67.8788    404.8415 307.9015891  +6.5009265      1528.39     2560.932     2599.387      78.1256     156.1271     312.1612      1.734     4.66     841.6046     55.02348     192.0018        18     1.330     1.010  41.10   0
       405    246.3252    400.3527 307.8276162  +6.5087814     13985.65     21009.84     22326.69      78.1256     156.1892     312.1612      1.646     3.54     837.7626     55.02348     1801.998        41     1.428     1.126  56.16   0
       406    741.2684    393.9411 307.6222275  +6.5280188     670.7288     962.0605     1306.178     78.37322     156.0651     312.1612      1.637     4.71     836.6585     55.02348      86.9137         8     1.329     0.474  69.09   0
       407    709.2487    393.4169 307.6355468  +6.5271644     752.0233     1064.391     1153.856     77.75268     156.1892     311.9438      1.514     6.12     836.4143     55.02348     106.5121        11     1.468     0.750  45.01   0
       408     81.6861    394.3521 307.8962083  +6.5057215     823.7689     1554.793     1705.133      78.2495     156.0651     312.1612      1.741     4.90      841.034     55.02348     143.6226         8     1.289     0.528  72.00   0
       409   1019.2744    393.6987 307.5067437  +6.5374011     591.4525     820.6838     1279.976     77.75268     156.2512     293.4439      1.366     3.83     834.1703     55.02348     94.44891         6     1.082     0.389  77.49  16
       410    969.7966    392.6002 307.5273352  +6.5362045     1070.635     1513.492     1527.512     77.62798     155.6921     311.9128      1.498     3.47     835.2962     55.02348     179.4738         9     0.901     0.768  31.03   0
       411    359.2045    390.0627 307.7810731  +6.5168205     1259.944     1929.929     1749.281     77.50307     155.9409     311.9438      1.572     3.60     835.5638     55.02348     173.3596        13     1.117     0.826  52.77   0
       412    192.0363    390.4088 307.8505031  +6.5110617     842.5657     1083.777      608.353     77.75268     155.8787     311.9438      1.444     4.06     838.7794     55.02348     117.6402        11     0.943     0.889 -73.81   0
       413    146.5506    388.9466 307.8694470  +6.5101357       5181.5     7815.153     8182.643     78.37322     156.1271     312.1922      1.643     3.61     839.7865     55.02348     679.4492        30     1.391     1.066  52.35   0
       414    386.6545    389.6154 307.7696853  +6.5179264     625.2242     1039.713     1137.731     77.62798     156.1271     311.8817      1.729     5.53      835.538     55.02348     96.73645         9     1.145     0.753  54.46   0
       415    251.2646    387.7569 307.8259894  +6.5141473     1348.761     1861.797     1627.237      78.2495     156.0651     312.1612      1.449     5.06     837.1008     55.02348      194.846        12     1.216     0.679  71.81   0
       416    444.3336    387.8133 307.7457856  +6.5206053     747.6124     1133.602     1316.682     77.75268     155.9409      312.068      1.715     3.32     835.1158     55.02348     130.1248         7     0.981     0.803  76.27   0
       417    168.6609    384.9322 307.8603981  +6.5125366     2530.753     4116.823      4357.58     78.37322     156.0651     312.1612      1.730     3.61     839.2919     55.02348     304.3597        24     1.363     1.027  69.98   0
       418    832.4881    385.1688 307.5846268  +6.5346890     826.2236     984.6482     1105.395     78.37322     155.9409     312.0991      1.302     5.36     836.9443     55.02348     135.0692        10     1.133     0.715  68.92   0
       419    564.0539    383.9099 307.6961834  +6.5262294      965.437     1354.287     1327.571      78.1256     155.9409     312.2853      1.536     5.13     834.5488     55.02348     134.6151        10     1.130     0.658  66.94   0
       420    391.9798    379.5001 307.7678140  +6.5222811     2214.729     3318.825     3385.364      78.2495      156.003     311.9438      1.619     3.55     834.9481     55.02348     293.7186        22     1.330     0.941  59.80   0
       421    280.1837    380.1503 307.8142330  +6.5182592     754.3746     1142.139     1292.522     77.75268     156.1892     311.8506      1.707     4.66     835.9602     55.02348     125.7873         9     1.257     0.491  58.43   0
       422     10.8148    380.1191 307.9261285  +6.5092109     710.0759     1211.353     1054.903     77.87718     155.8787      312.006      1.681     4.45     842.1672     55.02348     96.60809         8     0.878     0.642  44.85   0
       423    980.7155    378.7865 307.5232619  +6.5422717     1050.918     1585.997     1749.115     77.87718     155.9409      312.006      1.656     3.48     834.2532     55.02348     164.2775        10     1.060     0.632  49.32   0
       424    326.0028    376.7632 307.7953137  +6.5211963     635.5378     1060.118     1567.486     77.37796     155.9409     311.9749      1.903     4.20     835.1517     55.02348     117.0124         7     1.379     0.365  56.51   0
       425     42.2930    374.1513 307.9132546  +6.5127346     3123.624     5208.813     5805.415      78.1256      156.003     312.2853      1.828     3.69     841.3628     55.02348     393.2373        31     1.370     1.307 -76.05   0
       426    445.9889    373.1919 307.7455904  +6.5266971     7367.032      11126.2     11521.55     77.87718     155.9409     312.0991      1.592     3.50     834.3315     55.02348      981.463        35     1.366     1.123  54.87   0
       427    778.5495    372.0937 307.6074734  +6.5382847     1801.542     2604.494     2728.791      78.1256      156.003     312.3473      1.537     4.31     836.7283     55.02348     254.4283        17     1.286     0.849  62.78   0
       428    786.5424    370.5940 307.6042032  +6.5391710     13527.53     19308.17     20221.18     77.75268      156.003     311.8817      1.578     3.46     836.8156     55.02348     1965.811        38     1.415     1.029  59.10   0
       429    349.9810    368.7870 307.7856219  +6.5252942     1152.698     1914.296     1924.778     78.00149     155.8787      312.068      1.702     4.23     834.4116     55.02348     142.9241        13     1.062     0.855  43.70   0
       430    912.5762    361.7320 307.5521413  +6.5470390     455.1726     575.2542     315.7076     77.87718     156.0651     312.1301      1.293     3.49     835.4639     55.02348     91.23792         5     0.739     0.477  76.85   0
       431    194.8872    361.5638 307.8502928  +6.5230656     925.4979     1199.582     1283.187      78.2495      156.003     312.1612      1.472     4.32      837.879     55.02348     147.8996        10     1.116     0.779  62.10   0
       432    961.5150    361.3281 307.5318235  +6.5488388     560.8878     865.9471      786.813     78.37322     156.3752     312.1922      1.459     3.34     833.9769     55.02348     99.42499         5     1.030     0.314  20.84   0
       433    400.6311    359.8687 307.7648817  +6.5306758     509.9266       843.29     1263.391      78.1256     156.1271     312.1301      1.551     3.01       833.76     55.02348     110.1456         5     0.754     0.425  68.48   0
       434      1.4862    359.9570 307.9306854  +6.5172199     660.3467     1094.637     1376.072     70.01617      126.281     237.4568      2.066     4.40     841.9402     55.02348     127.1537         6     0.849     0.653 -59.12  24
       435    494.0648    356.8370 307.7261694  +6.5350609      3168.08     4788.955     4751.639      78.1256     156.1271     312.2232      1.603     3.62     833.3849     55.02348     390.1555        23     1.277     1.005  68.65   0
       436    466.2973    357.4566 307.7376838  +6.5338742     2480.928     3547.535     3525.548      78.1256     156.0651     312.3783      1.584     3.53     833.4935     55.02348     350.7057        18     1.227     0.885  72.06   0
       437    851.9268    353.4856 307.5776141  +6.5484185      33762.2     50847.45      53416.8     78.37322     156.4371     312.1612      1.638     3.69     836.0229     55.02348     4356.199        60     1.586     1.147  70.44   0
       438    922.7184    356.5609 307.5481011  +6.5495124     823.4739     1123.411     831.8333      78.2495     156.1892     312.0991      1.506     3.18     835.1715     55.02348     137.7352         6     0.867     0.658  41.41   0
       439    343.7978    349.0850 307.7888547  +6.5332202     1064.203     1585.995     1286.642     77.62798     155.7544     311.8817      1.570     5.75     833.5362     55.02348     137.7775        12     1.213     0.768  51.01   0
       440    623.6727    345.9968 307.6726912  +6.5438779     2783.809     4249.281     4496.492     77.75268     155.6922      312.006      1.643     3.65     833.4835     55.02348     384.1185        22     1.349     0.922  58.75   0
       441     31.9858    346.2973 307.9184781  +6.5238863     1035.513     1592.998     1620.426      78.1256     155.8787     311.9438      1.647     4.98     840.9618     55.02348     134.5187         9     1.071     0.688  63.81   0
       442    708.3488    339.4372 307.6377340  +6.5494194     82547.56     119397.4     124872.4     78.00149     156.1271     312.1301      1.589     3.54     834.5754     55.02348     11537.53        85     1.537     1.193  62.64   0
       443    155.4267    344.2437 307.8672699  +6.5288888     628.3122     710.8869     -23.1417     77.87718     156.1892     312.0991      1.355     3.43      839.038     55.02348     87.81653         5     0.751     0.453  70.56   0
       444    866.6802    340.7020 307.5719137  +6.5541889     1282.319     1675.143      1895.36      78.1256     156.4371     312.2232      1.483     4.56     835.1765     55.02348     180.0838        14     1.115     0.957 -77.55   0
       445     87.7398    339.0415 307.8955632  +6.5287588     1262.651     1985.214     1745.556      78.2495     156.1271     312.2232      1.650     4.51     839.6445     55.02348     198.6577        15     1.277     0.823  44.95   0
       446    949.6491    336.2060 307.5375951  +6.5588145     855.3487      983.663     1205.309     77.75268     155.9409     311.8196      1.383     5.38     833.4497     55.02348     122.3038        11     1.144     0.713  38.81   0
       447    570.9317    336.1241 307.6949337  +6.5461876     2666.757     3919.881     4037.701     78.37322     156.2512     312.1612      1.534     3.75     832.3173     55.02348     356.3267        20     1.327     0.883  51.61   0
       448    108.1795    334.9810 307.8872097  +6.5311230     6252.567      9584.29     10040.33     78.00149     156.0651      312.068      1.611     3.39     839.3065     55.02348     766.2808        33     1.433     1.051  56.09   0
       449    554.1360    332.3391 307.7020385  +6.5471876     7481.559     11008.54     11501.49      78.2495     156.1271     312.1922      1.571     3.59     831.9291     55.02348     913.1556        32     1.405     1.019  58.09   0
       450    283.0301    330.0443 307.8147409  +6.5390401       2767.1     4026.447     3761.519     77.87718     156.1271      312.037      1.515     3.75     834.4169     55.02348     329.6277        22     1.348     0.922  56.89   0
       451    417.0039    327.5081 307.7591704  +6.5445847     26376.31     39382.95      40856.6     77.87718     155.8165     311.9438      1.617     3.46     832.7628     55.02348     3202.763        53     1.477     1.166  59.45   0
       452    524.5784    326.2432 307.7145230  +6.5487138     1325.521     1945.255     1995.836     77.75268      156.003     311.9749      1.526     3.74     831.7365     55.02348     237.9601        15     1.308     0.720  59.49   0
       453    396.8632    325.6337 307.7676006  +6.5446827     1103.372     1731.898     2402.363      78.1256     156.1892     312.1301      2.072     4.34     832.7524     55.02348     164.5602        13     1.195     0.819  60.30   0
       454    683.5237    325.7682 307.6485067  +6.5542321     653.6223      816.252     599.8785      78.1256     156.1271     312.0991      1.412     4.78     833.5528     55.02348     95.77979         5     1.038     0.625  21.02   0
       455    496.3202    322.6859 307.7263822  +6.5492353     1060.599     1463.466     1732.346     78.00149     156.4371     312.2542      1.436     3.88     831.9003     55.02348     141.1024        11     1.131     0.659  53.19   0
       456    811.6597    319.8490 307.5954716  +6.5609600     932.4238     1449.937     1232.322      78.2495     156.1271     312.2232      1.601     5.05     834.5319     55.02348     162.1293        11     1.363     0.596  55.25   0
       457    393.8150    319.9118 307.7690597  +6.5469427     785.5538     1260.975     1303.298     78.00149     155.9409      312.037      1.970     5.22     832.6227     55.02348     97.24939        10     1.365     0.564  53.12   1
       458    647.5768    319.6725 307.6636455  +6.5555457     524.6276     734.7262     481.4756     77.87718     155.9409     312.1301      1.630     3.93     832.6913     55.02348     85.49243         5     1.046     0.422  74.46   0
       459    506.0516    317.8909 307.7225008  +6.5515411     8747.158     13254.83     13837.31      78.2495     155.9409     312.3163      1.601     3.49     831.5743     55.02348     1126.948        37     1.440     1.084  63.21   0
       460    775.2553    316.7335 307.6107004  +6.5610296     3181.314     4664.067     5023.255     78.37322      156.003     312.1301      1.599     3.75      834.153     55.02348     409.6929        27     1.671     0.956  39.32   0
       461    722.6916    316.0160 307.6325622  +6.5595684     793.4865     1179.529     840.6656     78.00149     155.9409      312.037      1.605     6.21     833.5231     55.02348     111.9409        11     1.505     0.721  64.42   0
       462    930.6546    316.4186 307.5461497  +6.5663498     950.9752     1179.916     1046.651     77.75268     156.1271     311.9438      1.471     4.57      833.363     55.02348     145.8022         9     1.172     0.638  65.23   0
       463    332.6167    314.5721 307.7946633  +6.5470928     1178.931     1792.879     1733.644     77.87718     155.8787      312.068      1.662     4.05     833.0037     55.02348     156.2614        11     1.022     0.794  52.95   0
       464    168.0164    308.4825 307.8632479  +6.5440754     1086.795     1728.755     1883.603     77.87718     155.8165      312.037      1.750     4.58     837.9996     55.02348     157.3359        12     1.148     0.733  39.47   0
       465    251.7759    302.7189 307.8286468  +6.5492707     1955.641     3100.328     2986.744     78.00149     155.8787      312.068      1.724     4.29     834.9778     55.02348     258.9657        19     1.299     1.010  68.59   0
       466    395.9967    302.1090 307.7687533  +6.5543655     7467.028     11255.95     11729.17     77.75268     155.8165     311.9128      1.613     3.53     832.2163     55.02348     981.0376        33     1.440     1.040  57.34   0
       467    763.8329    298.0067 307.6160747  +6.5683790     55212.37     80513.09     84041.62     77.62798     155.9409     311.9749      1.554     3.46     832.8802     55.02348     7888.228        72     1.519     1.144  56.46   0
       468    749.3006    301.6385 307.6219903  +6.5663938         1105     1564.981      1987.48      78.2495      156.003     312.3783      1.468     4.11     832.9897     55.02348     160.5388        12     1.176     0.635  45.87   0
       469    435.5671    297.3895 307.7524733  +6.5576414     2368.222     3535.674     3309.399     77.75268     155.8787      312.006      1.594     3.56     831.7499     55.02348     329.4396        18     1.284     0.817  56.79   0
       470    998.7297    295.1528 307.5185796  +6.5774004     1754.595     2628.146     2337.058      78.2495     156.0651     312.1612      1.551     3.88     830.3376     55.02348     226.3062        15     1.156     0.876  54.41   0
       471    939.7193    294.2890 307.5431254  +6.5757884       2409.8     3642.225     3413.665     78.00149     156.3132     312.2542      1.607     4.10     832.1783     55.02348     345.5978        22     1.432     0.904  61.39   0
       472    581.6903    294.9381 307.6918496  +6.5635511     1194.238     1550.359     1220.727      78.2495     156.2512     312.2232      1.334     3.34     830.5396     55.02348     193.9767        12     1.093     0.731  48.80   0
       473    472.4709    293.7266 307.7372652  +6.5603912     1151.454     1772.964     1617.675     78.49674     156.2512     312.1922      1.717     5.39     831.0068     55.02348     145.3784        11     0.986     0.833  32.48   0
       474    422.0448    293.0034 307.7582387  +6.5589985     1923.989     3000.922     3137.928     77.62798     155.8165     311.8196      1.607     4.28      831.899     55.02348     239.0834        17     1.344     0.835  54.81   0
       475    301.8386    292.4290 307.8081964  +6.5552006      723.816     903.0349     435.5442     77.75268     155.8165      312.006      1.443     4.83     833.2116     55.02348     90.19244         7     1.023     0.645  49.93   0
       476    472.5275    288.1370 307.7374300  +6.5627006     726.1423     1237.821     1092.903     78.37322     156.1271     312.2232      1.818     5.77     830.7676     55.02348     117.8375         8     1.308     0.717  64.35   0
       477    843.2859    287.5774 307.5834151  +6.5753397     1363.254     1907.016     1944.889      78.2495     155.9409      312.037      1.495     3.58     832.4611     55.02348     215.8512        12     1.130     0.686  56.72   0
       478    198.5489    284.2978 307.8513806  +6.5550862      2325.71     3520.494     3684.752      78.1256     156.1271     312.3783      1.707     3.88      836.537     55.02348      299.168        19     1.292     0.887  66.92   0
       479    762.2601    282.6194 307.6172448  +6.5746789     6187.951     9268.269     10082.59     77.87718      156.003      312.037      1.642     3.46     832.0881     55.02348     853.9093        31     1.368     1.040  58.37   0
       480    452.4745    284.2756 307.7458909  +6.5636223     1111.797     1422.757     1561.094     78.49674     156.3752     312.2542      1.414     3.90      831.071     55.02348     164.2562        10     1.077     0.652  51.31   0
       481    353.2740    282.6972 307.7871564  +6.5609453     564.0614     881.8798     863.3735     77.87718     156.3132     312.1612      1.702     3.93      831.938     55.02348     108.4626         5     1.362     0.325  50.54   0
       482    234.2900    282.8174 307.8365826  +6.5568989     589.7151     838.2344     729.4543     78.00149     155.8787      312.068      1.517     3.42       835.37     55.02348      106.085         5     0.968     0.349  48.19   0
       483    778.5507    280.5637 307.6105457  +6.5760722     2832.946     4013.189      3884.54     78.00149     156.1271      312.068      1.571     3.64     832.1064     55.02348     409.1273        21     1.325     0.915  58.77   0
       484     94.8656    281.6561 307.8945428  +6.5526887     1152.363     1864.983     1456.219     78.37322     156.0651     312.1612      1.793     3.39     838.8345     55.02348     193.6412        13     1.145     0.748  37.77   0
       485    480.8664    279.6874 307.7342501  +6.5664685     563.5543     800.9913     438.6913      78.2495     156.3132     312.1612      1.450     4.18     830.4302     55.02348     78.14331         6     1.218     0.410  34.38   0
       486     82.0575    275.8473 307.9000599  +6.5546555     1162.012     1776.875     1601.465      78.2495     156.1271     312.2853      1.651     4.96     838.8895     55.02348     158.8757        14     1.296     0.763  60.65   0
       487    368.2183    275.2213 307.7811999  +6.5645333     1719.592     3592.148      3721.64     78.00149     156.0651     312.0991      2.137     6.53     831.7891     55.02348     177.5962        27     1.607     1.144  18.27   0
       488   1016.8809    271.4449 307.5118325  +6.5877933       6015.8     8776.721     8891.905      78.2495     156.1271     311.1353      1.594     3.53     828.9225     55.02348      753.092        27     1.350     0.986  65.72  16
       489    494.9080    271.3264 307.7286981  +6.5703910     2104.097     2975.308     3537.149      78.2495     156.2512     312.1922      1.589     3.80     830.0892     55.02348     277.2158        16     1.179     0.822  69.76   0
       490    257.5163    266.8135 307.8274738  +6.5642863     5916.944     8671.312     9617.184     77.87718     155.9409      312.006      1.592     3.51     834.2433     55.02348     811.8612        29     1.413     0.993  57.91   0
       491    822.1738    265.3783 307.5929314  +6.5837991     716.9363     911.0004     1083.204     77.75268     155.9409     312.0991      1.435     2.46     831.4307     55.02348     149.2531         7     0.836     0.579  73.28   0
       492    948.5028    261.9621 307.5405597  +6.5894275     536.8329      584.954     379.1209      78.2495      156.003     312.3163      1.092     3.72     830.3207     55.02348     95.46875         6     0.797     0.500 -89.24   0
       493    777.1981    260.4540 307.6117828  +6.5843291     938.5898      1282.36      789.762     77.62798     155.9409     311.7885      1.480     5.20     831.2172     55.02348     137.9391        11     1.224     0.765  47.58   0
       494    391.7754    257.6541 307.7720053  +6.5725762     1767.475     2534.756     2856.958     77.87718     156.1892     311.9749      1.543     3.64     831.2332     55.02348     246.0494        15     1.185     0.820  58.22   0
       495    978.5098    256.6377 307.5282708  +6.5926268     1081.714     1568.446     2009.432      78.2495     156.0651     312.1922      1.646     4.75     829.3278     55.02348     126.3076        12     1.197     0.709  53.98   0
       496    314.1624    253.6628 307.8043842  +6.5716183     1186.334     1892.836     1116.788      78.2495     156.1892     312.1612      1.676     4.51     832.4841     55.02348     154.0209        17     1.345     0.907  58.32   0
       497    197.9042    254.7961 307.8526447  +6.5672436     500.8111     732.4787       1145.9     78.00149     155.8165     311.8817      1.714     4.59     835.9831     55.02348     106.1424         5     1.192     0.502  66.45   0
       498    161.4866    253.5773 307.8678152  +6.5665220     1811.383     2699.967     2694.103      78.2495     155.9409      312.037      1.638     3.76     836.9756     55.02348     243.3403        17     1.214     0.916  63.00   0
       499    571.1709    249.0946 307.6977622  +6.5821247     2169.463     3097.271     2828.821     78.37322     155.8787      312.068      1.564     4.01       829.55     55.02348     277.4807        16     1.263     0.810  57.30   0
       500    914.2814    248.0193 307.5552454  +6.5940416     1593.463      2884.54     3272.502     77.87718     155.8165     312.0991      1.959     5.97     830.1803     55.02348     268.4364        18     1.660     0.811  39.99   0
       501    734.7066    246.7327 307.6298977  +6.5885731     5278.184     7580.797      7957.11      78.1256     156.3132     312.1922      1.598     3.67      830.758     55.02348     710.4092        25     1.370     0.954  62.33   0
       502    675.7719    246.6832 307.6543850  +6.5866221     2357.484     3359.431     3685.467      78.1256     155.9409     312.0991      1.538     3.57     830.2377     55.02348     365.0386        18     1.275     0.887  39.58   0
       503    972.9862    246.3996 307.5309089  +6.5966692     787.8273     1195.104     1311.185     77.87718     155.8165     311.9438      1.442     3.83     828.9643     55.02348     143.6579         9     1.112     0.566  63.89   0
       504    866.0000    243.0401 307.5754723  +6.5944852     467.8052     521.7285     651.8583     77.25266     155.7544     311.8196      1.346     3.72     830.3361     55.02348     101.1298         5     1.375     0.289  90.00   0
       505    390.3503    240.8263 307.7731645  +6.5794754     675.3898     894.9231     1136.789     77.87718     156.1892      312.068      1.451     4.33     830.8965     55.02348     106.6625         7     0.861     0.619  55.11   0
       506    930.6920    239.1377 307.5487248  +6.5982561     1153.246     1769.561     2069.319      78.2495     156.2512     312.2232      1.650     4.26     829.5214     55.02348     153.9196        12     1.009     0.864  61.65   0
       507    234.2272    231.8678 307.8383287  +6.5779301      2321.93     3718.378     3823.849     77.87718      156.003      312.068      1.640     3.84      834.545     55.02348     280.8517        22     1.323     1.017  48.72   0
       508    877.0447    230.8634 307.5712919  +6.5998812     1743.144     2460.574     2784.692      78.2495     156.0651     312.1922      1.478     4.00     829.6685     55.02348     210.4952        16     1.229     0.890  49.27   0
       509    767.5184    230.4097 307.6168133  +6.5964090     1732.837     2424.954     2485.034     77.87718     155.7544      312.006      1.553     4.22     830.0224     55.02348      223.418        17     1.277     0.859  61.76   0
       510    256.1784    225.6407 307.8294192  +6.5812386     531.9105     684.9453     626.4599     77.87718     155.9409     311.9749      1.258     3.72     833.6713     55.02348     77.34839         5     1.055     0.377  86.21   0
       511    468.1371    221.8581 307.7414862  +6.5899156     23344.58     34957.72     36171.84     78.37322     156.0651     312.1922      1.602     3.41     829.1633     55.02348     2859.926        49     1.470     1.127  58.26   0
       512    794.1879    221.0379 307.6060473  +6.6011695      13493.4     20213.66     22280.07     77.75268     155.9409     311.8817      1.619     3.51     829.4343     55.02348     1812.753        52     1.499     1.298  33.33   0
       513    329.0762    223.7316 307.7991977  +6.5844757     756.5771     1170.479     607.5699     78.37322     156.2512     312.1612      1.446     3.99     831.9537     55.02348     112.7943         9     0.983     0.649  52.81   0
       514    732.7677    216.9084 307.6317051  +6.6008210     646.0361     951.4266     937.5182     78.37322     155.9409     312.1922      1.609     5.29     829.6885     55.02348     99.58929         7     1.182     0.669  82.37   0
       515    473.8324    216.4843 307.7393009  +6.5923251     1524.325     2293.128     2395.673      78.2495     155.9409     312.0991      1.689     4.31     828.8157     55.02348     191.0281        16     1.243     0.935  69.45   0
       516    156.3185    215.1192 307.8712614  +6.5822245     2369.668     3609.807     3743.963      78.2495     156.3752     312.2542      1.595     3.66     836.0202     55.02348     335.4542        20     1.292     0.914  71.95   0
       517    131.0436    213.9936 307.8817999  +6.5818388     917.3641     1676.939     1609.196     77.75268     155.8787     311.8506      1.890     5.02     836.6243     55.02348     152.4018        12     1.348     0.897  65.09   0
       518    182.9265    212.6392 307.8602909  +6.5841433     557.3843     958.1185      505.958      78.1256     156.1271     312.2232      1.791     5.25     835.4501     55.02348     90.31323         7     1.642     0.474  43.00   0
       519    930.7798    211.3818 307.5496189  +6.6097178     1604.029     2409.742     2519.661     78.00149     156.0651      312.068      1.618     3.97     828.2599     55.02348     210.6447        14     1.105     0.915  49.81   0
       520    592.2307    207.6267 307.6904076  +6.5999495      4882.26     7331.474     7049.659     77.75268     155.8787      312.006      1.642     3.42     828.6677     55.02348     621.0474        30     1.417     1.051  58.78   0
       521    554.7809    207.7158 307.7059642  +6.5986582     2038.942     3123.447     2830.089     77.87718     155.8165     312.1301      1.636     3.89     828.5553     55.02348     273.0505        15     1.286     0.733  56.18   0
       522    312.7831    208.4933 307.8064809  +6.5902193     1033.709     1424.963     1682.121     78.00149     155.9409      312.037      1.424     4.56     832.1215     55.02348     141.4342         9     1.086     0.558  64.23   0
       523    396.6643    206.5776 307.7716957  +6.5938262     1568.898     2356.892     1997.559     77.87718     156.1271      312.037      1.566     3.69     829.7272     55.02348     232.9228        14     1.207     0.758  65.97   0
       524    953.1391    204.7934 307.5405496  +6.6131839      2924.92     4213.738     4557.165     77.62798     155.9409     311.9438      1.561     3.26     827.5905     55.02348     406.3823        21     1.272     0.903  63.42   0
       525    899.2545    204.2539 307.5629565  +6.6116082     11619.84     16723.17     17237.34     78.49674     156.1271     312.1612      1.564     3.57     828.2837     55.02348     1482.152        37     1.413     1.020  58.84   0
       526    697.3801    202.3183 307.6468983  +6.6056607      2949.53     4365.225     4744.697     77.87718     155.8165     312.0991      1.718     4.67     828.8385     55.02348     381.8984        24     1.986     0.849  61.35   0
       527    326.7453    204.8016 307.8008046  +6.5922122      881.827     1325.942     1329.354     77.62798     155.8787     311.8196      1.741     5.10     831.7948     55.02348      131.976        12     1.285     0.774  67.06   0
       528    574.4114    203.9575 307.6979346  +6.6008674     902.7241     1341.921     1120.238     77.62798     155.9409     311.8817      1.468     4.71     828.4709     55.02348     124.9848        11     1.147     0.715  51.53   0
       529    218.6544    204.3597 307.8457271  +6.5887627     716.5956     1023.166     1209.993      78.1256     156.1271     312.1922      1.674     5.84     834.7983     55.02348     104.4872        10     1.231     0.780  65.33   0
       530    985.8791    202.0618 307.5270378  +6.6154039     9794.412     14420.17     15307.69     78.37322     156.1892     312.1612      1.563     3.57     826.7775     55.02348     1353.613        36     1.443     1.025  57.30   0
       531     25.3668    200.7486 307.9261509  +6.5837488     25935.86      39674.1     42036.71      78.1256     156.1271      312.068      1.656     3.61     837.9678     55.02348     3272.191        51     1.508     1.157  62.16   0
       532    271.4876    201.7244 307.8238660  +6.5916264     1219.116     1759.638       1738.6      78.2495     156.4371     312.2542      1.629     6.33     833.2547     55.02348     178.3652        15     1.394     0.863  42.55   0
       533    505.8881    197.0072 307.7266385  +6.6014406     1985.924     3038.085     2537.844     77.75268     155.8165     311.9128      1.512     3.53     827.9129     55.02348     277.3729        18     1.273     0.852  74.64   0
       534    837.8011    193.6507 307.5888457  +6.6139334     2211.193     3188.051     3421.049     77.62798     155.7544     311.7263      1.628     3.67     828.0892     55.02348     283.8689        19     1.296     0.855  58.58   0
       535    423.3793    194.7055 307.7609965  +6.5996238     318.3018     446.6446     453.0557      78.1256     155.9409      312.006      1.713     5.68      828.477     55.02348     79.95221         5     1.229     0.740  48.37   0
       536    889.9514    192.7343 307.5672082  +6.6160534     2116.631     3143.489     3435.304      78.1256      156.003     312.1922      1.545     3.53     827.8902     55.02348     284.8043        16     1.216     0.802  55.67   0
       537    749.4268    190.1770 307.6256814  +6.6124138     41603.81      60225.2     62640.11     77.75268      156.003     312.0991      1.563     3.48     828.4347     55.02348     5746.163        58     1.482     1.105  56.84   0
       538    517.7687    192.7941 307.7218442  +6.6035781      2575.75     3862.203     3780.637     77.62798     155.9409     311.9438      1.602     3.43     827.7931     55.02348      388.443        21     1.380     0.871  63.26   0
       539    352.5089    189.4925 307.7906169  +6.5993974     5950.573      12228.7     13246.04      78.2495     156.6228     312.1612      2.172     5.93     830.8514     55.02348     659.0659        48     2.032     1.233 -87.05   0
       540    983.1071    188.9378 307.5286293  +6.6207296     2967.002     4113.409     3876.549      78.2495     156.1271     312.2232      1.479     3.54     826.2952     55.02348     386.6301        20     1.287     0.879  50.36   0
       541   1021.6808    187.6906 307.5126436  +6.6225309     1784.553     2574.196     2585.761     78.00149     149.0151     264.8087      1.501     3.33     825.3578     55.02348     285.8582        14     1.183     0.712  59.15  16
       542    917.3224    187.2521 307.5560195  +6.6192305     7748.098     11049.45     11447.49      78.2495     156.1892     312.1612      1.528     3.59     827.5132     55.02348     1059.613        27     1.383     0.914  60.38   0
       543    460.8262    186.3586 307.7457194  +6.6043258     5051.385     7606.843     7611.231     77.87718     156.0651      312.006      1.616     3.66     827.5464     55.02348     657.4694        30     1.407     1.037  63.11   0
       544    234.9108    183.7798 307.8396681  +6.5978051     702.8755     1150.768     1468.882      78.1256     155.8787      312.006      1.769     5.02     834.4079     55.02348     114.0729         7     0.942     0.758  -6.51   0
       545    118.2413    177.5563 307.8883502  +6.5964501     5007.572      7446.14     7402.379     78.00149     156.1271      312.068      1.617     3.54       836.01     55.02348     589.8791        27     1.372     1.003  58.23   0
       546    937.5244    176.8880 307.5479730  +6.6241835     999.6795      1285.83     1926.111      78.2495     156.4371     312.2542      1.405     3.43     826.8876     55.02348      186.601        10     1.089     0.684  70.28   0
       547    288.4997    174.3184 307.8177229  +6.6035119      34347.4      52166.8     54502.68      78.2495     156.6228     312.2542      1.672     3.70      832.939     55.02348     4421.666        58     1.525     1.190  56.19   0
       548    263.7781    175.4189 307.8279568  +6.6022269     6763.739     10195.78      10762.3     78.00149      156.003     312.0991      1.643     3.64     833.6009     55.02348     876.4004        33     1.403     1.104  60.47   0
       549    614.5396    175.9177 307.6822052  +6.6137871     666.5916     1224.989     1439.943     78.37322     156.1271     312.1922      1.842     4.49     827.7376     55.02348     122.8143         7     1.260     0.456  50.53   0
       550    718.1390    173.7198 307.6392341  +6.6181616     843.9124      1403.86     1877.787     78.37322     156.1271     312.1301      1.718     5.96     827.8287     55.02348     120.2435        11     1.436     0.756  36.07   0
       551    412.5424    169.8270 307.7663374  +6.6095308     50854.23      77659.6     81301.04     77.87718     156.1892     311.9749      1.651     3.62     827.7419     55.02348     6786.744        70     1.552     1.201  59.52   0
       552    168.4898    171.1234 307.8676912  +6.6007965     4066.321     6035.044     6151.742      78.2495     156.3752     312.2232      1.614     3.67     834.4114     55.02348     518.3385        25     1.343     0.982  57.26   0
       553    430.0920    170.3978 307.7590266  +6.6098840     1446.351     2107.774     2056.221     77.75268     155.8165     311.8817      1.613     4.08     827.3371     55.02348     215.7012        15     1.259     0.794  60.03   0
       554    316.6038    167.5476 307.8062748  +6.6072511     18653.27     28356.76     30141.93     77.62798     155.9409     311.7574      1.662     3.57     831.8344     55.02348     2493.714        49     1.519     1.141  56.44   2
       555    323.8548    167.4537 307.8032653  +6.6075334     2025.798     3484.795     4704.226     78.49674     156.0651     312.1612      2.313     5.74     831.5445     55.02348     274.8976        26     1.801     1.077 -82.12   2
       556    751.8627    166.0530 307.6254795  +6.6224546     34115.23     49962.94     52387.96      78.2495     156.0651     312.1301      1.559     3.52     827.3458     55.02348     4631.488        57     1.496     1.116  60.50   0
       557    583.2773    168.8620 307.6954318  +6.6156530     597.3352     833.6836     1131.276     78.49674     156.1892     312.1612      1.332     3.40     827.3013     55.02348      87.7926         5     0.962     0.348  45.65   0
       558    699.8386    167.9849 307.6470306  +6.6199170     926.4218     1414.837     1656.536     78.00149     155.9409     311.9128      1.658     4.79     827.5679     55.02348     116.5304         9     1.039     0.627  38.32   0
       559    800.4069    166.4722 307.6052953  +6.6239043     1361.205     1951.693     2374.207     77.87718     155.6922     312.0991      1.754     3.59      826.793     55.02348     192.4669        14     1.115     0.815  51.93   0
       560     39.1427    166.6286 307.9215819  +6.5982982     585.8248     1036.155     971.4971     77.87718     156.1892      312.068      1.709     4.26     837.9355     55.02348     72.09485         6     1.469     0.352  46.26   0
       561     68.6957    163.2890 307.9094168  +6.6006721     9003.139     13696.48     13881.92      78.2495      156.499     312.1922      1.664     3.69     837.1247     55.02348     1144.163        36     1.492     1.066  58.61   0
       562    102.6496    161.2403 307.8953795  +6.6026609      1450.59     2414.324     2277.405     78.37322     156.1271     312.0991      1.688     4.20      836.097     55.02348     187.8756        18     1.310     0.886  52.55   0
       563   1010.5342    160.4695 307.5181870  +6.6333973      1033.68     1513.536      1881.86      78.2495     156.1892     312.1612      1.617     3.50     824.3621     55.02348      170.883        12     1.136     0.773  53.95   0
       564    978.4619    159.5616 307.5315439  +6.6327024     602.6312     780.1335     588.0892      78.2495     156.1892     312.1922      1.425     5.15     825.2224     55.02348     82.10608         7     1.023     0.732  -1.50   0
       565    621.7692    158.4553 307.6797887  +6.6212383     474.0349     619.2075     926.6529      78.1256     156.1892     312.1301      1.384     4.42      827.123     55.02348     67.46564         5     1.194     0.467 -58.02   0
       566   1011.2986    146.7034 307.5183306  +6.6391061      2283.62     3394.954     4547.659      78.2495     156.6228      312.006      1.919     3.91     824.1269     55.02348     315.9276        22     1.542     0.818  51.92   2
       567    585.9613    150.7389 307.6949263  +6.6232248     821.9916     1000.726     715.5766      78.2495     156.1892     312.1922      1.467     5.01     826.5308     55.02348     112.9894         8     1.078     0.659  37.87   0
       568      2.2524    148.8154 307.9375110  +6.6044090     757.5625     947.3892     793.9724     76.74937      137.025     249.1634      1.333     4.28     839.1476     55.02348     131.4999         7     0.858     0.608  73.48  24
       569    594.3822    144.2849 307.6916446  +6.6261713     1057.647     1570.651     1343.281     77.87718     155.8787     312.0991      1.564     5.22     826.2297     55.02348     144.4011        11     1.321     0.607  54.47   0
       570    287.4101    140.5756 307.8193142  +6.6174052     31555.78     47966.14     50550.88     77.87718     155.9409      312.037      1.686     3.65     833.0577     55.02348     3922.578        61     1.537     1.210  55.39   0
       571    347.0403    142.1578 307.7944854  +6.6187548     949.3578     1440.718     1691.015     78.00149     156.1271      312.037      1.666     4.57     830.6757     55.02348     130.8823        12     1.104     0.806  65.39   0
       572     32.6734    139.1395 307.9251996  +6.6094282     4596.121     7039.165     7415.087     78.37322     156.1271     312.1922      1.652     3.64     837.9922     55.02348     570.1481        29     1.405     1.124  72.84   0
       573    719.0753    137.1761 307.6400730  +6.6332796     8320.245      12266.7     12957.75     77.87718      156.003     312.0991      1.554     3.63     826.4387     55.02348     1108.119        33     1.373     1.098  57.86   0
       574    196.7218    138.4931 307.8570638  +6.6152165     913.2322      1293.87     1050.691     78.00149     156.3132     312.1922      1.573     5.21     833.9778     55.02348     115.6342        10     1.167     0.657  58.67   0
       575    602.6063    142.2789 307.6882950  +6.6272748     2152.142     3002.989     3208.765     77.87718     155.6299     311.9128      1.534     3.94     826.1965     55.02348      270.985        18     1.330     0.831  49.23   0
       576    129.8474    134.2407 307.8849922  +6.6147223     4854.085     7448.605     7660.803      78.1256     156.1271      312.006      1.634     3.74     834.3522     55.02348     601.8052        29     1.426     1.034  57.48   0
       577    591.7919    132.1994 307.6931275  +6.6310738      706.374     894.7876     1176.865     77.62798     155.8165     311.9749      1.568     4.74     825.5809     55.02348     115.6879         6     1.045     0.609  80.02   0
       578    468.9426    131.4323 307.7441973  +6.6272733     1415.216      2010.41     1993.672      78.1256     156.1892     312.0991      1.652     4.64     825.2537     55.02348     176.0339        14     1.249     0.784  70.24   0
       579    400.5259    130.4434 307.7726576  +6.6253863     3854.535     6217.893     6510.524      78.1256     156.1892     312.1922      1.765     3.89     827.4402     55.02348     493.3906        32     1.565     1.072  61.22   0
       580    657.7728    130.9846 307.6657528  +6.6337845     786.5235     1149.654      788.936     77.87718     155.9409      312.068      1.482     4.44     826.0894     55.02348     132.8878         8     1.065     0.527  38.83   0
       581    364.9475    129.2107 307.7874817  +6.6247010     3276.066     5156.365     4938.533     77.62798     156.0651     311.9128      1.645     3.70     829.7845     55.02348     411.8751        24     1.319     0.980  55.32   0
       582    119.2429    129.1517 307.8895702  +6.6164663     1752.866     2786.283     2439.969      78.2495     156.0651     312.0991      1.755     4.28     834.4487     55.02348      217.059        20     1.393     0.918  63.27   0
       583    576.9157    129.3406 307.6994048  +6.6317557     714.3592     1292.183     1459.609      78.2495     156.1892     312.2542      2.149     5.83     825.3138     55.02348     101.1912         7     1.183     0.810  75.81   0
       584    947.7912    128.8549 307.5453174  +6.6443561     421.9431     508.2245     631.6261     77.62798     156.0651     311.8817      1.216     4.36     824.7844     55.02348      72.7821         5     0.863     0.627  51.20   0
       585    681.2810    127.1068 307.6561153  +6.6361721     816.3007     1369.771     1272.014     78.00149     156.3752     312.2232      1.726     5.57     826.0787     55.02348     95.83588        11     1.137     0.843  33.97   0
       586    755.2850    126.8440 307.6253746  +6.6387560     585.0521     825.2874     563.3463      78.2495      156.003     312.1301      1.257     4.29     825.8638     55.02348     97.22211         7     0.862     0.607  55.65   0
       587   1011.7607    123.3462 307.5189212  +6.6487643     1373.075     1836.328     2051.847      78.1256     156.1892     312.1612      1.406     4.29      823.679     55.02348     204.7006        14     1.244     0.775  49.97   0
       588    216.8027    118.1083 307.8494090  +6.6243071     5618.716     8382.954     8334.899     77.75268     155.8165     311.9128      1.552     3.37     833.7643     55.02348      767.774        29     1.381     1.019  63.36   0
       589     99.4514    117.9478 307.8981719  +6.6204253     2151.437      3094.27     3155.425     78.37322      156.003     312.1922      1.558     3.60     834.4236     55.02348     270.2282        19     1.243     0.911  59.30   0
       590    826.5428    116.5519 307.5961113  +6.6453867     1304.865      1911.56       1673.8      78.2495     156.1271     312.2853      1.634     4.05     824.9525     55.02348     200.4798        15     1.265     0.825  49.60   0
       591    678.6251    116.8814 307.6575626  +6.6403046     6424.089     9457.956     9796.814     78.00149     155.8787     312.1301      1.572     3.67     825.7188     55.02348     910.4403        29     1.378     0.957  58.76   0
       592    630.7990    114.2087 307.6775249  +6.6398072     9688.483     14603.54     15735.07     77.62798     155.8165     311.9438      1.619     3.57     825.0394     55.02348     1268.044        38     1.460     1.079  61.60   0
       593    265.8717    114.4901 307.8291435  +6.6274502     699.3685     1105.136     1070.952      78.1256     156.3752     312.1612      1.770     3.33     833.2792     55.02348     128.7427         7     0.871     0.585 -84.82   0
       594     29.5401    113.4155 307.9273717  +6.6199420     937.4914     1633.875     1556.936     77.75268     156.0651     311.9128      1.917     6.79     838.0023     55.02348     102.6812        15     1.421     0.911 -88.26   0
       595    568.7873    113.6530 307.7033101  +6.6379598     760.9417     1090.737     1581.129     77.62798     156.0651     311.8817      1.947     5.57      824.486     55.02348     89.88928         9     0.944     0.925 -12.67   0
       596    357.9051    109.9966 307.7910557  +6.6323967     3663.433     5997.203     6568.809     78.00149     155.8165     311.9128      1.766     3.76     830.3913     55.02348     479.1122        30     1.437     1.161  89.11   0
       597    539.7075    109.3003 307.7155395  +6.6387824     1676.345     2723.968     2357.196      78.2495     156.6228     312.1301      1.740     4.26     824.0959     55.02348     243.7795        15     1.212     0.886  57.09   0
       598   1004.5439    108.7235 307.5224099  +6.6545605     952.8274     1260.006     786.8258      78.2495     156.0651     312.1301      1.482     3.90     823.4924     55.02348     131.4854         9     0.905     0.763  69.88   0
       599    634.3311    105.7264 307.6763425  +6.6434273     55697.98     81791.29     85526.62     78.37322     156.2512     312.1301      1.590     3.57     824.7058     55.02348      7229.97        69     1.525     1.173  58.81   0
       600    313.4241     99.5375 307.8098903  +6.6352207     3822.159     5631.274     6614.202     77.87718     156.1271      312.068      1.672     3.59     832.2164     55.02348     504.9802        25     1.369     0.960  54.09   0
       601    509.0261     95.7676 307.7287436  +6.6433408     650.2458      911.229      642.592     77.75268     155.8787      312.006      1.582     5.42     823.6669     55.02348     93.14172         9     1.137     0.730  22.85   0
       602     10.9015     82.5213 307.9361610  +6.6320676     741573.9      1621298      1771847     77.87718     156.3752     312.1922      2.209     4.59     838.0419     55.02348     61822.98       455     2.199     1.894  64.52  28
       603    713.3417     94.1179 307.6439024  +6.6508638     1062.019     1530.922     1105.617     78.37322     156.1271     312.2232      1.483     4.94     824.8621     55.02348     144.6129        11     1.331     0.609  62.37   0
       604    684.6447     92.7812 307.6558716  +6.6504555     1434.643     1905.639     1457.316     77.87718      156.003     311.9128      1.419     3.54     824.8435     55.02348     238.3464        15     1.199     0.759  59.68   0
       605    698.7684     89.7330 307.6501053  +6.6521865     3192.767     4686.104     4810.783      78.1256     156.1271     312.1301      1.569     3.57     824.7034     55.02348     481.2402        22     1.350     0.915  48.36   0
       606    440.4510     80.7108 307.7577446  +6.6472570     4282.804     6336.275     6731.364      78.2495     155.9409     312.2853      1.604     3.62     824.8732     55.02348     552.7574        26     1.391     0.948  51.85   0
       607    913.0452     76.1632 307.5615223  +6.6649497     4014.066     5951.868     6440.569     78.00149     156.1271      312.068      1.568     3.49     822.7125     55.02348     565.5682        24     1.331     0.916  50.63   0
       608    895.0165     76.9955 307.5689859  +6.6640042     2089.871     2972.205     2757.467     77.87718     155.8165      312.006      1.453     3.66     822.9658     55.02348     292.4691        15     1.200     0.777  62.76   0
       609    605.2333     74.5910 307.6894806  +6.6553067     1771.717     2739.642     3011.586     77.75268     155.9409      312.006      1.624     4.10     823.4249     55.02348     260.3412        18     1.364     0.858  54.25   0
       610    593.2464     76.9045 307.6943835  +6.6539501     697.2155     955.0872     939.0562      78.1256     156.0651     312.3163      1.266     3.19     823.4155     55.02348     141.6378         5     0.783     0.484  44.08   0
       611    403.8702     72.7230 307.7732137  +6.6493272     2021.219      3139.21     2945.237     78.49674     156.3752     312.1612      1.679     3.95     826.6339     55.02348     272.7283        19     1.283     0.940  65.70   0
       612    250.8854     73.8225 307.8367432  +6.6437351     907.5521      1296.32     1701.921      78.2495     155.8787      312.068      1.639     3.87     832.8293     55.02348     152.2582         7     1.101     0.482  39.60   0
       613    151.8736     69.4771 307.8780294  +6.6421992      3338.48     5234.659     5297.789     78.49674     156.3752     312.1922      1.687     3.75     832.6113     55.02348     419.2711        28     1.472     1.020  43.56   0
       614     33.6688     67.2325 307.9272188  +6.6391461     12514.11     19113.99      20881.3      78.1256     156.1271     312.1612      1.670     3.64     835.6976     55.02348     1620.429        42     1.505     1.116  55.19   0
       615    299.9634     68.1782 307.8165414  +6.6477144     1340.071     2283.795     3217.394     77.87718     155.8787     311.9438      2.002     3.88      832.304     55.02348     213.9042        15     1.249     0.798  60.37   0
       616    560.6415     67.1127 307.7082612  +6.6569002     686.6874     1173.839     944.7466      78.2495     156.1271     312.1922      1.810     6.26     823.1621     55.02348      87.0199        10     1.532     0.720  40.03   0
       617    768.4568     66.4442 307.6219302  +6.6641317     712.5781     1058.537     1381.204      78.1256     156.1271     312.1612      1.704     3.42     823.1108     55.02348     111.7245         8     1.033     0.678  54.07   0
       618    991.3610     65.5125 307.5293360  +6.6719601     528.7148     538.1991     352.4303      78.2495     156.0651     312.1922      1.137     3.39     821.4285     55.02348     92.91681         5     1.100     0.302  69.33   0
       619    954.3956     65.7793 307.5446877  +6.6706167     661.4845     900.4344     1238.654     77.87718     155.8787     311.9749      1.312     2.61     821.7778     55.02348     105.9725         5     0.703     0.466 -73.58   0
       620    902.2591     63.0610 307.5664438  +6.6699987     689.0472     901.4749     408.0688      78.2495     156.0651     312.1922      1.283     4.58     822.1954     55.02348      99.8089         8     1.193     0.500  66.96   0
       621    835.3486     61.8962 307.5942869  +6.6682449     6428.001     9254.572     9703.825      78.1256     156.0651     312.3783      1.545     3.54     822.6108     55.02348     861.3477        28     1.445     0.905  54.15   0
       622    780.4604     62.2475 307.6170832  +6.6662655     3522.216     5230.021     5517.097      78.2495     156.1271     312.2232      1.585     3.65     822.8046     55.02348     479.0062        25     1.388     0.942  50.88   0
       623    425.5782     62.7396 307.7645302  +6.6541770     1207.611      1767.51     1492.738     77.87718     156.0651     312.0991      1.601     4.51     825.2578     55.02348     174.0576        14     1.291     0.726  46.11   0
       624    542.8729     60.1853 307.7158777  +6.6591647     1245.847     1807.173     2430.817     77.75268     155.8787      312.068      1.676     4.07     823.0449     55.02348     187.7787        13     1.218     0.726  60.41   0
       625     58.4877     60.0735 307.9171489  +6.6429375     1102.924      1570.23     1418.286      78.2495     156.4371     312.1612      1.574     5.24     834.2516     55.02348      151.738        12     1.257     0.732  59.94   0
       626    662.5819     59.7130 307.6661510  +6.6633689     529.1337     690.8088     575.9036     78.00149     155.8787      312.037      1.457     4.41     823.5918     55.02348     98.06421         5     1.004     0.615  26.22   0
       627    434.9994     58.5275 307.7607575  +6.6562320     901.4392     1375.117     1865.466     77.62798     155.6299      312.006      1.687     5.75     824.9616     55.02348     118.2358        13     1.421     0.656  73.60   0
       628     73.8900     59.0566 307.9107837  +6.6438760     3419.317     5195.212     5372.489      78.1256     156.0651     312.2542      1.600     3.53     833.5551     55.02348       456.83        25     1.345     0.994  51.41   0
       629    597.8028     55.9678 307.6931947  +6.6627461     1399.261     2086.099     1953.287     77.50307     155.9409     311.9438      1.570     3.77     823.0829     55.02348     176.4134        13     1.059     0.871  58.17   0
       630     16.3236     54.5371 307.9348552  +6.6438026     2471.682     4039.144     4442.347     78.49674     156.1271     312.1301      1.763     4.11     835.5882     55.02348     309.3295        26     1.478     1.052  55.48   0
       631    725.0142     52.4403 307.6404527  +6.6684602     500.1061     710.6033     368.8486     77.75268     155.9409     311.9128      1.248     4.08     822.8179     55.02348     98.25775         5     0.973     0.546  75.65   0
       632    775.0549     49.7382 307.6197495  +6.6712491     2005.657     2742.454     3137.345     78.37322     156.0651     312.1301      1.475     3.59     822.2711     55.02348     280.8809        15     1.167     0.804  62.03   0
       633    415.9907     49.7648 307.7689513  +6.6592117     1110.958     1703.112     1579.859     77.75268     155.8787     311.9438      1.574     4.44     825.6274     55.02348     169.2532        14     1.243     0.842  61.99   0
       634     88.9272     50.5453 307.9048236  +6.6478959     768.7133     1070.311     998.1287      78.1256      156.003     312.0991      1.506     4.36     832.7117     55.02348     134.9307         9     1.159     0.624  80.15   0
       635    113.4880     48.2461 307.8946963  +6.6496719     890.9405     1315.391      979.322      78.2495      156.003     312.1612      1.697     6.69     832.3259     55.02348     146.1997        14     1.382     1.082   6.71   0
       636    101.7417     43.4351 307.8997396  +6.6512626     9665.755     14804.76     15223.43      78.1256     156.1271     312.1301      1.672     3.70     832.2287     55.02348     1243.451        39     1.503     1.083  61.40   0
       637    430.8061     43.2518 307.7630147  +6.6623975     2556.415     3978.886     3566.309     77.75268     155.9409     311.8196      1.624     3.69     825.0585     55.02348     350.8823        24     1.380     1.042  67.99   0
       638    252.1497     43.4998 307.8372416  +6.6562955     630.8366     1016.271     1832.327      78.2495     156.1271     312.3163      1.619     2.88     832.2614     55.02348     118.3143         5     0.747     0.447  21.96   0
       639    644.4551     35.4744 307.6744984  +6.6727686     19334.85     28051.84     29071.21      78.1256     156.0651     312.0991      1.618     3.56      822.754     55.02348     2627.628        48     1.490     1.099  57.83   0
       640    268.0215     37.4884 307.8308495  +6.6593106     1414.907     2299.102     3616.822      78.2495     155.9409      312.068      2.115     4.34     832.1461     55.02348     180.6924        15     1.333     0.783  53.94   0
       641    674.3448     37.2046 307.6620199  +6.6730547     658.8083     829.1442    -194.1811     77.62798     155.9409     311.8506      1.383     3.41      822.828     55.02348     104.1904         5     0.767     0.439  73.13   0
       642    544.2874     31.5361 307.7162544  +6.6710393     5400.785     7853.546     7874.098      78.2495     156.2512     312.1922      1.604     3.79     822.6948     55.02348     658.1016        28     1.375     1.000  57.96   0
       643    262.4015     31.6666 307.8333813  +6.6615251     1894.975     2914.972     3884.295     77.62798     155.7544     311.9438      1.828     3.81     832.0623     55.02348      240.671        19     1.248     0.973  54.96   1
       644    780.2335     30.0357 307.6182594  +6.6795561     478.5782     634.0411     942.8584     77.87718     155.8787     311.9128      1.441     4.32     821.2716     55.02348     65.75006         5     1.038     0.513  53.83   0
       645    900.5349   1020.7264 307.5350602  +6.2745728     1293.638      2079.07     1919.476     78.37322     155.5054     277.2834      1.688     4.86     852.1672     55.02348     163.6472        17     1.359     0.897  15.80  16
       646    223.2029   1019.2075 307.8163433  +6.2525221     1978.159     2990.355     3090.495     77.62798     155.8165     293.9717      1.598     3.79     854.8275     55.02348     249.3042        20     1.269     0.992  41.53  16
       647    270.3735     27.5370 307.8302082  +6.6634978     9652.318     14805.54     15912.97     77.87718     156.0651     312.0991      1.696     3.65     831.9971     55.02348     1239.156        38     1.470     1.102  65.46   0
       648     11.8047     29.5870 307.9375771  +6.6539501     1192.132     1681.576      1478.34     77.87718     155.8787      312.037      1.598     3.91     833.7335     55.02348     166.1844        12     1.068     0.747  61.78   0
       649    927.6221     27.2049 307.5571069  +6.6856482     1953.377     2884.475     2956.295     77.87718     155.8787     311.9749      1.585     3.69     820.0132     55.02348     276.3517        17     1.239     0.843  57.61   0
       650    330.3534     27.7181 307.8052791  +6.6654381     1089.543     1547.847     1560.818      78.2495     156.1271     312.1922      1.548     5.10     831.3051     55.02348     124.5269        10     0.983     0.749  57.55   0
       651     35.6998     27.1105 307.9277325  +6.6557775     2375.566     3582.667     3584.014      78.2495     156.5609     312.1301      1.562     3.81     833.0275     55.02348     307.2065        19     1.294     0.864  55.67   0
       652    563.2310     26.8050 307.7085419  +6.6736272     716.1264     803.7087     913.8816     77.62798      156.003     311.9438      1.355     4.23     822.6159     55.02348     111.7634         7     0.867     0.593  53.08   0
       653    535.2081     27.4568 307.7201645  +6.6724191     685.9925     720.5938     904.2721     77.62798      156.003     311.9128      1.127     3.28     822.7113     55.02348      107.852         5     0.739     0.441  23.00   0
       654    758.8663   1017.9531 307.5939765  +6.2709869      640.131      1136.86     1661.832      78.2495     156.0651     305.0346      2.368     6.20     853.8011     55.02348     113.9602        10     1.545     0.699  61.32  16
       655    311.3078     22.2214 307.8133785  +6.6670676     993.1013      1530.96     1688.279      78.1256     155.9409     311.9749      1.706     5.44     831.5721     55.02348      145.439        12     1.208     0.845  61.82   0
       656    948.4090     17.4453 307.5487961  +6.6903711     1092.748     1597.155     1649.738     77.75268      156.003     311.8506      1.714     3.31     819.1623     55.02348     207.5909        11     1.095     0.693  54.44   0
       657    726.3456   1016.3184 307.6075345  +6.2705749     6991.868     11527.77     12385.17      78.2495     156.1271     312.2232      1.800     3.83     854.3835     55.02348     804.3315        39     1.572     1.164  57.35  16
       658    104.8846     17.3816 307.8993147  +6.6621237     700.9055     1123.086     682.4815     77.87718     155.8787     312.0991      1.588     4.35     831.6172     55.02348     112.2669         8     0.984     0.731 -81.84   0
       659    582.4276   1015.4421 307.6673204  +6.2661225     3981.427     6509.145     7509.634     77.87718     156.1271      312.037      1.797     3.71     857.6753     55.02348     495.9982        32     1.465     1.177  65.96  16
       660    441.0568   1016.5033 307.7259826  +6.2609488     3901.608     6198.514     6386.763      78.1256     156.0651     312.3783      1.713     3.68     855.9466     55.02348     497.7341        28     1.363     1.132  54.03  16
       661    718.4663   1015.2803 307.6108409  +6.2707401     1134.858     1966.193     1971.492     78.37322     156.3132     312.1301      1.899     5.41      854.463     55.02348     132.5328        14     1.291     0.773  34.45  16
       662    758.5117   1011.5139 307.5943397  +6.2736335     1130.265     1959.143     2268.515     78.00149     156.3752     312.2853      1.884     4.55      853.686     55.02348     141.9811        13     1.259     0.731  60.96   0
       663    965.8430   1005.8790 307.5084398  +6.2828812     5646.061     10422.96     10390.62      78.1256     156.1271     312.1922      1.925     4.06     849.6553     55.02348     730.1682        41     1.644     1.277  56.59   0
       664    720.2133   1006.6112 307.6104064  +6.2743775     870.8882     1487.028     2399.931     78.00149     155.8787     312.0991      2.214     5.84      854.254     55.02348     112.8188        11     1.263     0.761  45.27   0
       665    250.4812   1005.7693 307.8054707  +6.2589860     1292.821     2068.614     2250.368      78.1256      156.003     312.1301      1.684     3.79     854.5752     55.02348      211.092        15     1.115     1.000  57.92   0
       666    725.8152   1003.9426 307.6081699  +6.2756664     2476.229     4406.735     4891.197     77.62798     156.0651     311.8817      1.851     3.92     854.1063     55.02348     348.3256        24     1.392     1.096  56.54   0
       667    448.6976   1004.9727 307.7231981  +6.2659652     1002.329     1575.713     1587.115     78.37321     155.8787     312.1301      1.563     4.55     855.9747     55.02348     154.6253        12     1.251     0.874  37.02   0
       668    741.3383   1003.5066 307.6017390  +6.2763653     987.4529     1563.875     1758.909      78.1256     156.1271     312.2232      1.755     5.20     853.8835     55.02348     142.1974        12     1.285     0.811  81.38   0
